time,seconds_elapsed,z,y,x
1782810989926570500,0.068570556640625,0.14458253979682922,-0.012594826519489288,0.11799519509077072
1782810989936641500,0.0786416015625,0.129136323928833,-0.023507677018642426,0.11888809502124786
1782810989946712600,0.088712646484375,0.11685366183519363,-0.02331509254872799,0.11487063765525818
1782810989956784400,0.098784423828125,0.10133755207061768,-0.03347505256533623,0.10626862198114395
1782810989966855400,0.10885546875,0.08391162753105164,-0.05562898516654968,0.09181757271289825
1782810989976926200,0.11892626953125,0.07404861599206924,-0.0811532512307167,0.07042386382818222
1782810989986998300,0.128998291015625,0.06462609767913818,-0.09953723102807999,0.05144661292433739
1782810989997069300,0.1390693359375,0.05573592707514763,-0.10373703390359879,0.032897695899009705
1782810990007140400,0.149140380859375,0.03426095098257065,-0.10868009179830551,0.019366566091775894
1782810990017212400,0.15921240234375,0.009258661419153214,-0.10991260409355164,0.023032939061522484
1782810990027283500,0.169283447265625,-0.0037413490936160088,-0.0887124091386795,0.043948400765657425
1782810990037354500,0.1793544921875,-0.018087266013026237,-0.060689568519592285,0.08458025008440018
1782810990047426600,0.189426513671875,-0.03183552995324135,-0.045037489384412766,0.11994141340255737
1782810990057497600,0.19949755859375,-0.0455462820827961,-0.043903250247240067,0.14849156141281128
1782810990067568600,0.209568603515625,-0.04371879994869232,-0.04237643629312515,0.16787774860858917
1782810990077640400,0.219640380859375,-0.040426336228847504,-0.03537179157137871,0.1761372685432434
1782810990087711200,0.229711181640625,-0.03247104957699776,-0.03913826867938042,0.16656748950481415
1782810990097783300,0.239783203125,-0.03262524679303169,-0.04203152656555176,0.14213670790195465
1782810990107854300,0.249854248046875,-0.040560197085142136,-0.04694158956408501,0.10147786140441895
1782810990117925400,0.25992529296875,-0.058774884790182114,-0.07808486372232437,0.05245492607355118
1782810990127996400,0.269996337890625,-0.06296425312757492,-0.11656604707241058,-0.0020568454638123512
1782810990138068500,0.280068359375,-0.06586256623268127,-0.1482110619544983,-0.024018071591854095
1782810990148139500,0.290139404296875,-0.07394181191921234,-0.1388784646987915,-0.003481436287984252
1782810990158211600,0.300211669921875,-0.08997403830289841,-0.09215383976697922,0.046289049088954926
1782810990168282600,0.31028271484375,-0.10642822086811066,-0.02336798422038555,0.09991305321455002
1782810990178353700,0.320353759765625,-0.12695053219795227,0.03693849593400955,0.14545363187789917
1782810990188425500,0.330425537109375,-0.13877005875110626,0.0723591297864914,0.16035737097263336
1782810990198496300,0.340496337890625,-0.13749174773693085,0.07257244735956192,0.14672544598579407
1782810990208567300,0.3505673828125,-0.1311056911945343,0.06462424248456955,0.11655139923095703
1782810990218639400,0.360639404296875,-0.12445124983787537,0.04425692558288574,0.08079206943511963
1782810990228710400,0.37071044921875,-0.10283789783716202,0.029423555359244347,0.029434602707624435
1782810990238781400,0.380781494140625,-0.06877686828374863,0.0332246869802475,-0.036395274102687836
1782810990248853500,0.390853515625,-0.04290468245744705,0.03673772141337395,-0.1039281040430069
1782810990258924500,0.400924560546875,-0.027585644274950027,0.008314071223139763,-0.15655668079853058
1782810990268995600,0.41099560546875,-0.02376338094472885,-0.017273804172873497,-0.1735386848449707
1782810990279067400,0.4210673828125,-0.03188895061612129,-0.0019997761119157076,-0.1492173671722412
1782810990289138400,0.431138427734375,-0.04419957846403122,0.03895844891667366,-0.10164923965930939
1782810990299210500,0.44121044921875,-0.05275817960500717,0.07775484770536423,-0.04491112753748894
1782810990309281300,0.45128125,-0.054535988718271255,0.10532714426517487,-0.0010002487106248736
1782810990319352300,0.461352294921875,-0.04511159658432007,0.12045896053314209,0.035310886800289154
1782810990329424400,0.47142431640625,-0.030628930777311325,0.11067566275596619,0.05421144515275955
1782810990339495400,0.481495361328125,-0.024058643728494644,0.08976772427558899,0.07600249350070953
1782810990349566500,0.49156640625,-0.027245933189988136,0.08160243183374405,0.09832941740751266
1782810990359638500,0.501638427734375,-0.032482508569955826,0.07394424080848694,0.11478828638792038
1782810990369709600,0.51170947265625,-0.03705093637108803,0.04581570252776146,0.13167603313922882
1782810990379780600,0.521780517578125,-0.0367601215839386,0.02115936204791069,0.14590051770210266
1782810990389852400,0.531852294921875,-0.030535995960235596,0.019854744896292686,0.15557396411895752
1782810990399923200,0.541923095703125,-0.011627285741269588,0.0007004913641139865,0.1545955091714859
1782810990409994200,0.551994140625,0.010471516288816929,-0.037325419485569,0.13984720408916473
1782810990420066300,0.56206640625,0.023342840373516083,-0.062024641782045364,0.12049508839845657
1782810990430137300,0.572137451171875,0.04209020733833313,-0.07751015573740005,0.11858867108821869
1782810990440208400,0.58220849609375,0.06477368623018265,-0.08076906204223633,0.12018044292926788
1782810990450280400,0.592280517578125,0.08354885876178741,-0.08382739871740341,0.13613519072532654
1782810990460351500,0.6023515625,0.10379686951637268,-0.08934333920478821,0.1436772644519806
1782810990470422500,0.612422607421875,0.12317511439323425,-0.08248976618051529,0.1544916331768036
1782810990480494600,0.62249462890625,0.13177631795406342,-0.08112782984972,0.147718146443367
1782810990490565600,0.632565673828125,0.13517248630523682,-0.09287303686141968,0.13560563325881958
1782810990500636400,0.642636474609375,0.1373102068901062,-0.08608490228652954,0.1118188127875328
1782810990510708200,0.652708251953125,0.14852409064769745,-0.0794873908162117,0.08900579065084457
1782810990520779300,0.662779296875,0.16183537244796753,-0.07183533161878586,0.07805193960666656
1782810990530851300,0.672851318359375,0.17379622161388397,-0.08088324964046478,0.0654229074716568
1782810990540922400,0.68292236328125,0.18176813423633575,-0.09622438997030258,0.05126766860485077
1782810990550993400,0.692993408203125,0.19276301562786102,-0.10153921693563461,0.03376998379826546
1782810990561065500,0.7030654296875,0.20256957411766052,-0.09918924421072006,0.011278522200882435
1782810990571136500,0.713136474609375,0.2068149894475937,-0.09290702641010284,-0.011278449557721615
1782810990581207600,0.72320751953125,0.20853006839752197,-0.09166252613067627,-0.037488218396902084
1782810990591279600,0.733279541015625,0.2052329182624817,-0.09324933588504791,-0.06456693261861801
1782810990601350700,0.7433505859375,0.2036486119031906,-0.09110601991415024,-0.08220770955085754
1782810990611421400,0.75342138671875,0.20858342945575714,-0.0826590433716774,-0.09265604615211487
1782810990621493200,0.7634931640625,0.21909359097480774,-0.08452299237251282,-0.11097646504640579
1782810990631564300,0.773564208984375,0.22999565303325653,-0.10336438566446304,-0.13004085421562195
1782810990641635300,0.78363525390625,0.23772893846035004,-0.11377415060997009,-0.1291912943124771
1782810990651707400,0.793707275390625,0.23216812312602997,-0.10463322699069977,-0.12117860466241837
1782810990661778400,0.8037783203125,0.2264825403690338,-0.08563423156738281,-0.10112953186035156
1782810990671849500,0.813849365234375,0.21478493511676788,-0.06577380746603012,-0.0789417251944542
1782810990681921500,0.823921630859375,0.2120184451341629,-0.04698200896382332,-0.05819331109523773
1782810990691992600,0.83399267578125,0.20737260580062866,-0.02581849694252014,-0.042002685368061066
1782810990702063400,0.8440634765625,0.20984987914562225,-0.01374825369566679,-0.043265823274850845
1782810990712135700,0.8541357421875,0.2104373723268509,-0.017069583758711815,-0.05621214583516121
1782810990722206500,0.86420654296875,0.2115151435136795,-0.017009662464261055,-0.06450975686311722
1782810990732277500,0.874277587890625,0.21184997260570526,-0.023342758417129517,-0.07088568806648254
1782810990742349300,0.884349365234375,0.2083689570426941,-0.024594178423285484,-0.07445193082094193
1782810990752420400,0.89442041015625,0.20295195281505585,-0.03623688593506813,-0.08153650909662247
1782810990762491400,0.904491455078125,0.19271768629550934,-0.06534896045923233,-0.09722785651683807
1782810990772563500,0.9145634765625,0.18209904432296753,-0.08782357722520828,-0.11705298721790314
1782810990782634500,0.924634521484375,0.16778695583343506,-0.10353276878595352,-0.11760851740837097
1782810990792706000,0.9347060546875,0.14644700288772583,-0.09908178448677063,-0.10350003093481064
1782810990802778000,0.944778076171875,0.12198879569768906,-0.08226978033781052,-0.07847724109888077
1782810990812849000,0.954848876953125,0.0899161845445633,-0.05266062915325165,-0.03731453791260719
1782810990822920700,0.964920654296875,0.05401277542114258,-0.013861034065485,0.004364463035017252
1782810990832991700,0.97499169921875,0.023339971899986267,0.010264735668897629,0.03052162379026413
1782810990843062800,0.985062744140625,-0.003443704452365637,0.02026224322617054,0.03739764168858528
1782810990853134800,0.995134765625,-0.026271095499396324,0.01321022491902113,0.03652307763695717
1782810990863206000,1.005205810546875,-0.04610978439450264,-0.015690665692090988,0.027186833322048187
1782810990873277000,1.01527685546875,-0.06450620293617249,-0.03174246475100517,0.026058102026581764
1782810990883349000,1.025348876953125,-0.07371221482753754,-0.038081854581832886,0.03513975068926811
1782810990893420000,1.035419921875,-0.07576913386583328,-0.041325245052576065,0.0536898709833622
1782810990903490800,1.04549072265625,-0.07030486315488815,-0.04521958529949188,0.06656518578529358
1782810990913563100,1.055563232421875,-0.06569546461105347,-0.04365934431552887,0.07959827780723572
1782810990923634000,1.065634033203125,-0.059600017964839935,-0.0395069420337677,0.09094573557376862
1782810990933705000,1.075705078125,-0.05271526798605919,-0.03613225370645523,0.1015823632478714
1782810990943776800,1.08577685546875,-0.0469503253698349,-0.03435911983251572,0.10630467534065247
1782810990953847800,1.095847900390625,-0.04350367560982704,-0.033841174095869064,0.10088146477937698
1782810990963918800,1.1059189453125,-0.044558022171258926,-0.030730869621038437,0.09163496643304825
1782810990973991000,1.115990966796875,-0.04813394322991371,-0.036222074180841446,0.08322052657604218
1782810990984062000,1.12606201171875,-0.04885779321193695,-0.03923410922288895,0.07318546622991562
1782810990994133000,1.136133056640625,-0.044873591512441635,-0.06168501824140549,0.05704978108406067
1782810991004205000,1.146205078125,-0.03303397446870804,-0.08826229721307755,0.04032193124294281
1782810991014275800,1.15627587890625,-0.014013683423399925,-0.10035794973373413,0.02807202748954296
1782810991024347000,1.166346923828125,0.004769858438521624,-0.09687133878469467,0.02379073016345501
1782810991034419000,1.1764189453125,0.023734280839562416,-0.093417689204216,0.025053376331925392
1782810991044490000,1.186489990234375,0.03615233302116394,-0.07390017807483673,0.04045896232128143
1782810991054561000,1.19656103515625,0.03983910381793976,-0.048917029052972794,0.06951513141393661
1782810991064632800,1.2066328125,0.04519738256931305,-0.03126666322350502,0.09802081435918808
1782810991074704000,1.216703857421875,0.04380243644118309,-0.021110912784934044,0.1212770864367485
1782810991084775000,1.22677490234375,0.04627491533756256,-0.018426446244120598,0.14214801788330078
1782810991094847000,1.236846923828125,0.05640733614563942,-0.01800883188843727,0.1591445952653885
1782810991104918000,1.24691796875,0.06411905586719513,-0.01974334754049778,0.16356730461120605
1782810991114988800,1.25698876953125,0.08245134353637695,-0.030128423124551773,0.16716989874839783
1782810991125060900,1.267060791015625,0.10527622699737549,-0.03786490485072136,0.17166557908058167
1782810991135132000,1.2771318359375,0.12557227909564972,-0.04703077673912048,0.173561230301857
1782810991145203000,1.287202880859375,0.14246070384979248,-0.06481670588254929,0.16692116856575012
1782810991155274800,1.297274658203125,0.1556703895330429,-0.08358696848154068,0.16585271060466766
1782810991165345800,1.307345703125,0.16925650835037231,-0.09118576347827911,0.1593596488237381
1782810991175416800,1.317416748046875,0.1746801733970642,-0.09757401049137115,0.15528492629528046
1782810991185489000,1.327489013671875,0.17424926161766052,-0.10016527026891708,0.14556919038295746
1782810991195560000,1.337559814453125,0.16788069903850555,-0.09020976722240448,0.13960543274879456
1782810991205630700,1.347630615234375,0.1561148464679718,-0.07615093886852264,0.13496726751327515
1782810991215703000,1.357703125,0.14018835127353668,-0.07825963199138641,0.12925878167152405
1782810991225773800,1.36777392578125,0.12721502780914307,-0.07246512919664383,0.13610444962978363
1782810991235844900,1.377844970703125,0.10987533628940582,-0.049086373299360275,0.14416304230690002
1782810991245917000,1.3879169921875,0.09274642169475555,-0.019358038902282715,0.1516350656747818
1782810991255988000,1.397988037109375,0.07602684944868088,0.009126116521656513,0.15058332681655884
1782810991266059000,1.40805908203125,0.055590808391571045,0.015257512219250202,0.14383967220783234
1782810991276130800,1.418130859375,0.03613610193133354,0.013350891880691051,0.1277480125427246
1782810991286201900,1.428201904296875,0.024711407721042633,0.00732522364705801,0.11120525747537613
1782810991296274000,1.43827392578125,0.006808998994529247,0.00576197961345315,0.08710207045078278
1782810991306345000,1.448344970703125,-0.0036345873959362507,0.002330230316147208,0.05710529163479805
1782810991316415700,1.458415771484375,-0.009338060393929482,-0.004317236132919788,0.028964048251509666
1782810991326486800,1.46848681640625,-0.01866445131599903,-0.007990534417331219,0.007844382897019386
1782810991336558800,1.478558837890625,-0.022259198129177094,-0.00821589957922697,-0.011208882555365562
1782810991346630000,1.4886298828125,-0.022677581757307053,-0.013857274316251278,-0.028146320953965187
1782810991356702000,1.498701904296875,-0.023109592497348785,-0.01397174596786499,-0.03714102879166603
1782810991366773000,1.50877294921875,-0.02361106500029564,-0.01710255816578865,-0.03925025090575218
1782810991376844000,1.518843994140625,-0.02432011067867279,-0.01609089970588684,-0.030722949653863907
1782810991386915000,1.5289150390625,-0.024818388745188713,-0.008716072887182236,-0.01732192374765873
1782810991396987000,1.53898681640625,-0.030192000791430473,-0.0010462496429681778,-0.006000794004648924
1782810991407058000,1.549057861328125,-0.03283198922872543,-0.0032374984584748745,0.008545124903321266
1782810991417130000,1.5591298828125,-0.03858233615756035,-0.01223759911954403,0.01321402657777071
1782810991427200800,1.56920068359375,-0.049279987812042236,-0.005399666260927916,0.030953876674175262
1782810991437271800,1.579271728515625,-0.057175684720277786,-0.001922273775562644,0.04544040188193321
1782810991447343900,1.58934375,-0.06473053991794586,-0.01366681419312954,0.05110308155417442
1782810991457415000,1.599414794921875,-0.0714641809463501,-0.013863900676369667,0.06174088269472122
1782810991467486000,1.60948583984375,-0.07741234451532364,-0.011632171459496021,0.06882596015930176
1782810991477558000,1.61955810546875,-0.08164719492197037,-0.023177918046712875,0.0765334963798523
1782810991487629000,1.629629150390625,-0.0918058231472969,-0.016152232885360718,0.0813136026263237
1782810991497700000,1.6397001953125,-0.10618210583925247,-0.004536855034530163,0.08488010615110397
1782810991507772000,1.64977197265625,-0.11900122463703156,0.00023206754121929407,0.08365452289581299
1782810991517843000,1.659843017578125,-0.12921376526355743,0.0018054940737783909,0.07180321216583252
1782810991527913700,1.669913818359375,-0.13275523483753204,0.004560001194477081,0.06296977400779724
1782810991537985800,1.67998583984375,-0.1353333741426468,0.009067309089004993,0.058072686195373535
1782810991548056800,1.690056884765625,-0.1276506930589676,0.00883854366838932,0.04503544792532921
1782810991558127900,1.7001279296875,-0.11630184203386307,0.0036386302672326565,0.036792900413274765
1782810991568200000,1.710199951171875,-0.11265677958726883,0.005867430008947849,0.028470519930124283
1782810991578271000,1.72027099609375,-0.096011221408844,0.008774269372224808,0.023434482514858246
1782810991588342000,1.730342041015625,-0.08811420202255249,0.010633514262735844,0.007663575932383537
1782810991598413800,1.740413818359375,-0.07203905284404755,0.011715932749211788,-0.00970317330211401
1782810991608484900,1.75048486328125,-0.05466992035508156,0.0038886358961462975,-0.026961790397763252
1782810991618556000,1.760555908203125,-0.03489556536078453,0.0010662527056410909,-0.044489726424217224
1782810991628627700,1.770627685546875,-0.011638176627457142,0.010393441654741764,-0.050265856087207794
1782810991638698800,1.78069873046875,0.008652283810079098,0.01941821724176407,-0.05033288151025772
1782810991648769800,1.790769775390625,0.024111934006214142,0.020069360733032227,-0.05146525800228119
1782810991658841900,1.800841796875,0.03781171515583992,0.03299548476934433,-0.05097261443734169
1782810991668913000,1.810912841796875,0.0443071648478508,0.03923846781253815,-0.04933423921465874
1782810991678984000,1.82098388671875,0.056433070451021194,0.046874284744262695,-0.05098806321620941
1782810991689056000,1.831055908203125,0.06411096453666687,0.04820213466882706,-0.053116992115974426
1782810991699127000,1.841126953125,0.07351355999708176,0.04630101099610329,-0.052345484495162964
1782810991709198000,1.851197998046875,0.08223461359739304,0.04547569528222084,-0.058496586978435516
1782810991719270000,1.861269775390625,0.08571015298366547,0.04474915564060211,-0.06680300831794739
1782810991729340700,1.871340576171875,0.08876106888055801,0.03354816511273384,-0.07399939745664597
1782810991739411700,1.88141162109375,0.08820265531539917,0.028899788856506348,-0.08184274286031723
1782810991749483800,1.89148388671875,0.08139242231845856,0.0260776374489069,-0.08579487353563309
1782810991759554800,1.901554931640625,0.07175322622060776,0.02089369297027588,-0.08717059344053268
1782810991769625900,1.9116259765625,0.06318717449903488,0.010642919689416885,-0.08930058777332306
1782810991779698000,1.921697998046875,0.061613768339157104,0.0070044249296188354,-0.07920873910188675
1782810991789768700,1.931768798828125,0.05200588330626488,0.007568215951323509,-0.07009726017713547
1782810991799839700,1.94183984375,0.04341058433055878,-0.0009176190942525864,-0.05444742366671562
1782810991809911800,1.951911865234375,0.032140884548425674,-0.008160351775586605,-0.03859868273139
1782810991819982800,1.96198291015625,0.027943527325987816,-0.007519000209867954,-0.015594256110489368
1782810991830054000,1.972053955078125,0.019021404907107353,-0.0015950652305036783,0.010911387391388416
1782810991840125700,1.982125732421875,0.004893812350928783,-0.00021971482783555984,0.027261395007371902
1782810991850196700,1.99219677734375,-0.007377500645816326,0.0023217396810650826,0.03922538086771965
1782810991860267800,2.002267822265625,-0.018396427854895592,-0.005789995193481445,0.04179567098617554
1782810991870339800,2.01233984375,-0.03268961235880852,-0.007424909621477127,0.039733853191137314
1782810991880410600,2.02241064453125,-0.051300957798957825,-0.008578560315072536,0.033759333193302155
1782810991890481700,2.032481689453125,-0.06759151071310043,0.0017462489195168018,0.03357477858662605
1782810991900553700,2.0425537109375,-0.0833209976553917,0.011508580297231674,0.022901801392436028
1782810991910624800,2.052624755859375,-0.09105135500431061,0.003513770643621683,0.011478704400360584
1782810991920695800,2.06269580078125,-0.09254144132137299,-0.008367074653506279,-0.004576046485453844
1782810991930768000,2.072767822265625,-0.09326183050870895,-0.006680761463940144,-0.01076123770326376
1782810991940839000,2.0828388671875,-0.0911591574549675,-0.007932743988931179,-0.02102241851389408
1782810991950910000,2.092909912109375,-0.09411393105983734,-0.008648867718875408,-0.024421943351626396
1782810991960981800,2.102981689453125,-0.08720947057008743,-0.004195208661258221,-0.023043910041451454
1782810991971052800,2.113052734375,-0.08111349493265152,0.0031577791087329388,-0.019314685836434364
1782810991981123600,2.12312353515625,-0.0663110688328743,0.008503487333655357,-0.00674468046054244
1782810991991195600,2.133195556640625,-0.052805375307798386,0.008478986099362373,0.005212912801653147
1782810992001266700,2.1432666015625,-0.03644664213061333,0.009557832963764668,0.01659845933318138
1782810992011337700,2.153337646484375,-0.01860133372247219,0.016669005155563354,0.033038150519132614
1782810992021409800,2.163409912109375,0.0039643291383981705,0.01589961349964142,0.04375477880239487
1782810992031480800,2.173480712890625,0.02394469454884529,0.004866403993219137,0.049766067415475845
1782810992041552000,2.1835517578125,0.04245883226394653,-0.009016151539981365,0.05215463787317276
1782810992051624000,2.1936240234375,0.05447075515985489,-0.002004048554226756,0.06587124615907669
1782810992061695000,2.203695068359375,0.06835539638996124,0.009126711636781693,0.0783909410238266
1782810992071765800,2.213765869140625,0.08177319914102554,0.008275032974779606,0.08535430580377579
1782810992081836800,2.2238369140625,0.09061772376298904,-0.0057760849595069885,0.08263928443193436
1782810992091908600,2.23390869140625,0.09940829128026962,-0.009019549004733562,0.0830502137541771
1782810992101979600,2.243979736328125,0.10833366960287094,0.00369304814375937,0.09494082629680634
1782810992112050700,2.25405078125,0.1087840124964714,0.016326818615198135,0.1031273826956749
1782810992122122800,2.264122802734375,0.10871343314647675,0.018572954460978508,0.08966905623674393
1782810992132193800,2.27419384765625,0.10708357393741608,0.008440159261226654,0.072255440056324
1782810992142264800,2.284264892578125,0.09570431709289551,0.0016037063905969262,0.05499381199479103
1782810992152337000,2.2943369140625,0.08581892400979996,0.003610131796449423,0.047137219458818436
1782810992162408000,2.304407958984375,0.07445554435253143,0.010867571458220482,0.0332411527633667
1782810992172478700,2.314478759765625,0.06557442992925644,0.013489719480276108,0.013023234903812408
1782810992182550800,2.32455078125,0.05501088127493858,0.006497012451291084,-0.01342320442199707
1782810992192621800,2.334621826171875,0.039852168411016464,0.0007541715167462826,-0.03291274979710579
1782810992202692900,2.34469287109375,0.03001643903553486,0.0010534096509218216,-0.03429858386516571
1782810992212764700,2.3547646484375,0.017049508169293404,0.006725676357746124,-0.029260950163006783
1782810992222835700,2.364835693359375,-0.0011493655620142817,0.018879661336541176,-0.029125040397047997
1782810992232906800,2.37490673828125,-0.012862480245530605,0.03003164939582348,-0.027077602222561836
1782810992242978800,2.384978759765625,-0.03146514669060707,0.03181963786482811,-0.03201121836900711
1782810992253049900,2.3950498046875,-0.0486297532916069,0.032822318375110626,-0.04042734205722809
1782810992263120600,2.40512060546875,-0.05772220343351364,0.0311408843845129,-0.04840017855167389
1782810992273193000,2.41519287109375,-0.06505734473466873,0.02547554299235344,-0.059281591325998306
1782810992283263700,2.425263671875,-0.0723440870642662,0.012576116248965263,-0.06822419911623001
1782810992293334800,2.435334716796875,-0.07879506796598434,0.01180619653314352,-0.06797625869512558
1782810992303406600,2.445406494140625,-0.08471392840147018,0.014699921943247318,-0.05789636820554733
1782810992313477600,2.4554775390625,-0.08583484590053558,0.012510270811617374,-0.0464349202811718
1782810992323548700,2.465548583984375,-0.08019433170557022,0.0046682944521307945,-0.03723858296871185
1782810992333620700,2.475620849609375,-0.06879626959562302,-0.009554849937558174,-0.02603200078010559
1782810992343691800,2.48569189453125,-0.057579029351472855,-0.023785598576068878,-0.014218862168490887
1782810992353762800,2.4957626953125,-0.04635300859808922,-0.023705169558525085,0.009099776856601238
1782810992363835000,2.5058349609375,-0.035778820514678955,-0.014163626357913017,0.043298471719026566
1782810992373905700,2.51590576171875,-0.027814636006951332,-0.013842448592185974,0.06775481253862381
1782810992383976700,2.525976806640625,-0.016587285324931145,-0.01210139412432909,0.08747003972530365
1782810992394048800,2.536048828125,-0.01132594421505928,-0.012636955827474594,0.09884946048259735
1782810992404119800,2.546119873046875,-0.007115638814866543,-0.015354764647781849,0.10698676854372025
1782810992414190800,2.55619091796875,-0.0040540690533816814,-0.015185653232038021,0.10997190326452255
1782810992424262700,2.5662626953125,0.0014798144111409783,-0.02238232083618641,0.10032400488853455
1782810992434333700,2.576333740234375,0.0052135661244392395,-0.03428957983851433,0.0806427150964737
1782810992444404700,2.58640478515625,0.005531972739845514,-0.023351415991783142,0.06792613863945007
1782810992454476800,2.596476806640625,0.008617778308689594,-0.010674501769244671,0.05550143122673035
1782810992464547800,2.6065478515625,0.00823199562728405,-0.007017091847956181,0.037288472056388855
1782810992474618600,2.61661865234375,0.01160275936126709,-0.003334472421556711,0.02052440494298935
1782810992484690700,2.626690673828125,0.012649807147681713,0.00243822461925447,0.0002713532594498247
1782810992494761700,2.63676171875,0.010804235935211182,-0.0017461341340094805,-0.019301017746329308
1782810992504832800,2.646832763671875,0.012559844180941582,-0.004662770312279463,-0.030593307688832283
1782810992514904800,2.65690478515625,0.013531898148357868,-0.008650055155158043,-0.03604346513748169
1782810992524975900,2.666975830078125,0.012355572544038296,-0.007263049483299255,-0.036796119064092636
1782810992535047000,2.677046875,0.008420486003160477,-0.008907285518944263,-0.0299531277269125
1782810992545118700,2.68711865234375,0.0068561965599656105,-0.01617445982992649,-0.030775470659136772
1782810992555189800,2.697189697265625,0.0013543723616749048,-0.017421618103981018,-0.02673066034913063
1782810992565260800,2.7072607421875,-0.0031079580076038837,-0.014587068930268288,-0.021950572729110718
1782810992575332900,2.717332763671875,-0.010414340533316135,-0.016568461433053017,-0.016935043036937714
1782810992585403600,2.727403564453125,-0.013802416622638702,-0.02434287965297699,-0.011088759638369083
1782810992595474700,2.737474609375,-0.018821144476532936,-0.030098237097263336,0.0003404626331757754
1782810992605546800,2.747546630859375,-0.019625205546617508,-0.024696607142686844,0.012380569241940975
1782810992615617800,2.75761767578125,-0.017604133114218712,-0.025249479338526726,0.02314187027513981
1782810992625688800,2.767688720703125,-0.012327607721090317,-0.021742241457104683,0.03081485815346241
1782810992635761000,2.777760986328125,-0.007660684175789356,-0.025297561660408974,0.034275371581315994
1782810992645832000,2.78783203125,-0.007796193473041058,-0.029009655117988586,0.029164496809244156
1782810992655903000,2.797903076171875,-0.006511750631034374,-0.023689458146691322,0.028214547783136368
1782810992665973800,2.807973876953125,-0.0044031087309122086,-0.024693943560123444,0.01852155290544033
1782810992676045600,2.818045654296875,-0.004148776642978191,-0.03724781796336174,0.0008179231081157923
1782810992686116600,2.82811669921875,-0.0006589703261852264,-0.03964972496032715,-0.008439757861196995
1782810992696187600,2.838187744140625,-0.00441056489944458,-0.03338676691055298,-0.008339090272784233
1782810992706259700,2.848259765625,-0.009658587165176868,-0.036260731518268585,-0.012886282987892628
1782810992716330800,2.858330810546875,-0.019418006762862206,-0.04218573123216629,-0.01835641637444496
1782810992726401800,2.86840185546875,-0.022000325843691826,-0.03172782063484192,-0.009352980181574821
1782810992736473900,2.878473876953125,-0.03260450065135956,-0.020027223974466324,0.0001326670462731272
1782810992746545000,2.888544921875,-0.040348850190639496,-0.020202023908495903,0.0034659835509955883
1782810992756616000,2.898615966796875,-0.046836841851472855,-0.013916430994868279,0.0015322620747610927
1782810992766687700,2.908687744140625,-0.05500902235507965,-0.004048874601721764,0.005200196523219347
1782810992776758800,2.9187587890625,-0.058656223118305206,-0.00457005575299263,0.001630229176953435
1782810992786829800,2.928829833984375,-0.054808277636766434,-0.012805385515093803,-0.00460964348167181
1782810992796902000,2.93890185546875,-0.050248678773641586,-0.018409473821520805,-0.00700222747400403
1782810992806973000,2.948972900390625,-0.04607055336236954,-0.019225705415010452,-0.0027422127313911915
1782810992817044000,2.9590439453125,-0.04536375030875206,-0.01909361034631729,0.0016488070832565427
1782810992827116000,2.969115966796875,-0.03989420458674431,-0.015493461862206459,-0.004452428314834833
1782810992837187000,2.97918701171875,-0.035065360367298126,-0.012471839785575867,-0.004509419668465853
1782810992847257900,2.9892578125,-0.03190423920750618,-0.015152515843510628,-0.0046195643953979015
1782810992857330000,2.999329833984375,-0.029468243941664696,-0.01492241956293583,-0.0067682028748095036
1782810992867401000,3.00940087890625,-0.024562012404203415,-0.015079103410243988,-0.013543416745960712
1782810992877472000,3.019471923828125,-0.017084389925003052,-0.01809167116880417,-0.013825180009007454
1782810992887543800,3.029543701171875,-0.011610152199864388,-0.01835470087826252,-0.013708134181797504
1782810992897614800,3.03961474609375,-0.005720038432627916,-0.014297109097242355,-0.005342612508684397
1782810992907686000,3.049685791015625,-0.0008466625586152077,-0.0042822519317269325,0.006267257034778595
1782810992917758000,3.059758056640625,0.003691896563395858,-0.007326778024435043,0.011453762650489807
1782810992927829000,3.0698291015625,0.004891109187155962,-0.007853119634091854,0.013115912675857544
1782810992937899800,3.079899658203125,0.0071963416412472725,-0.009065124206244946,0.008873230777680874
1782810992947971800,3.089971923828125,0.008909501135349274,-0.0011984717566519976,0.006052899174392223
1782810992958043000,3.10004296875,0.008908435702323914,0.00006360025145113468,0.006514957174658775
1782810992968114000,3.110114013671875,0.00908820703625679,0.0006104516796767712,-0.007467775605618954
1782810992978185000,3.12018505859375,0.005952334962785244,0.006988189648836851,-0.01442235428839922
1782810992988257000,3.130257080078125,0.007298940327018499,0.010610057041049004,-0.016337687149643898
1782810992998328000,3.140328125,0.00466986745595932,0.019900228828191757,-0.019229615107178688
1782810993008399000,3.150399169921875,0.0034034214913845062,0.02930668368935585,-0.02235579676926136
1782810993018471000,3.160470947265625,0.006932642310857773,0.029774336144328117,-0.024369679391384125
1782810993028542000,3.1705419921875,0.003909786231815815,0.029218409210443497,-0.028784887865185738
1782810993038612700,3.18061279296875,0.009471798315644264,0.03115692362189293,-0.028655191883444786
1782810993048684800,3.190684814453125,0.011805425398051739,0.019647276028990746,-0.03344295546412468
1782810993058755800,3.200755859375,0.015411878004670143,0.009705163538455963,-0.03625844791531563
1782810993068827000,3.210826904296875,0.01576474867761135,0.006915626116096973,-0.03452537953853607
1782810993078899000,3.22089892578125,0.01589018478989601,0.00773401465266943,-0.02705680951476097
1782810993088970000,3.230969970703125,0.013383930549025536,0.0009172025602310896,-0.02126230113208294
1782810993099041000,3.241041015625,0.013238787651062012,0.0010868458775803447,-0.00794303324073553
1782810993109113000,3.251113037109375,0.0102916918694973,0.009755609557032585,0.015172705985605717
1782810993119184100,3.26118408203125,0.008733476512134075,0.0147487698122859,0.0313146598637104
1782810993129255000,3.2712548828125,0.011260547675192356,0.013096416369080544,0.04097805544734001
1782810993139327000,3.281326904296875,0.010446152649819851,0.014321469701826572,0.042750388383865356
1782810993149397800,3.291397705078125,0.011091753840446472,0.014319537207484245,0.0379246324300766
1782810993159468800,3.30146875,0.013316025957465172,0.007330336607992649,0.031868334859609604
1782810993169540900,3.311540771484375,0.016284551471471786,0.013453487306833267,0.027422817423939705
1782810993179612000,3.32161181640625,0.01798524707555771,0.016275905072689056,0.022014737129211426
1782810993189683000,3.331682861328125,0.023729944601655006,0.01911630854010582,0.020445415750145912
1782810993199755000,3.341755126953125,0.026845045387744904,0.017448104918003082,0.012106793001294136
1782810993209826000,3.351825927734375,0.03300056979060173,0.009466639719903469,0.006722703110426664
1782810993219897000,3.36189697265625,0.035502608865499496,0.007946773432195187,-0.004320893436670303
1782810993229969200,3.37196923828125,0.036425501108169556,0.008265919052064419,-0.010544571094214916
1782810993240040000,3.3820400390625,0.03400495648384094,0.010656105354428291,-0.011452709324657917
1782810993250111000,3.392111083984375,0.031085705384612083,0.012187129817903042,-0.002491994295269251
1782810993260182000,3.40218212890625,0.0271516852080822,0.011674471199512482,0.00023508252343162894
1782810993270253800,3.41225390625,0.02097810059785843,0.011822443455457687,0.008370377123355865
1782810993280324900,3.422324951171875,0.018541574478149414,0.012278908863663673,0.01147083006799221
1782810993290396000,3.43239599609375,0.014437378384172916,0.006308102048933506,0.016682635992765427
1782810993300468000,3.442468017578125,0.009151269681751728,-0.0023879176005721092,0.012272708117961884
1782810993310539000,3.4525390625,0.005057936534285545,-0.017540954053401947,0.015459515154361725
1782810993320610000,3.462610107421875,-0.002027669921517372,-0.027025535702705383,0.021038571372628212
1782810993330682000,3.47268212890625,-0.012262942269444466,-0.01836208999156952,0.03528960794210434
1782810993340753000,3.4827529296875,-0.026823243126273155,-0.004713656380772591,0.04948345944285393
1782810993350824000,3.492823974609375,-0.03537188097834587,-0.001659443136304617,0.058280009776353836
1782810993360896000,3.50289599609375,-0.04374592378735542,-0.006684562191367149,0.060378581285476685
1782810993370966800,3.512966796875,-0.04934282600879669,-0.012283045798540115,0.06189174950122833
1782810993381037800,3.523037841796875,-0.04836491495370865,-0.012376256287097931,0.0673014298081398
1782810993391110000,3.53310986328125,-0.048171836882829666,-0.0054196882992982864,0.07028724998235703
1782810993401181000,3.543180908203125,-0.04504794627428055,-0.0074468860402703285,0.07338530570268631
1782810993411252000,3.553251953125,-0.04500411078333855,-0.004187021870166063,0.07291117310523987
1782810993421324000,3.563323974609375,-0.05026012286543846,0.011283013969659805,0.07107492536306381
1782810993431395000,3.57339501953125,-0.05221179127693176,0.008132517337799072,0.05860978737473488
1782810993441465900,3.5834658203125,-0.049222927540540695,-0.00006336020305752754,0.042640410363674164
1782810993451538000,3.593537841796875,-0.04388878121972084,-0.008755126968026161,0.0244477279484272
1782810993461609000,3.60360888671875,-0.03125368058681488,-0.02920980378985405,0.015590853989124298
1782810993471680000,3.613679931640625,-0.02151620388031006,-0.03461679071187973,0.014220945537090302
1782810993481751000,3.6237509765625,-0.01797313615679741,-0.04146670922636986,0.021822139620780945
1782810993491822800,3.63382275390625,-0.017661381512880325,-0.04054471105337143,0.027584483847022057
1782810993501894000,3.643893798828125,-0.026251140981912613,-0.03758992999792099,0.03555186465382576
1782810993511965000,3.65396484375,-0.03404242917895317,-0.02949054166674614,0.04540175944566727
1782810993522037000,3.664037109375,-0.039060093462467194,-0.024810567498207092,0.04787503927946091
1782810993532107800,3.674107666015625,-0.037682175636291504,-0.02626611478626728,0.03994825482368469
1782810993542178800,3.6841787109375,-0.037083763629198074,-0.03811238706111908,0.026080375537276268
1782810993552251000,3.6942509765625,-0.035185832530260086,-0.045901842415332794,0.011996537446975708
1782810993562322000,3.704322021484375,-0.02816787362098694,-0.05614195764064789,0.0007119257934391499
1782810993572393000,3.71439306640625,-0.024529514834284782,-0.0684005469083786,-0.005216582678258419
1782810993582465000,3.724465087890625,-0.024983316659927368,-0.07210074365139008,-0.006821670103818178
1782810993592536000,3.7345361328125,-0.0303493682295084,-0.06148757413029671,0.0009515533456578851
1782810993602607000,3.744607177734375,-0.03421175479888916,-0.04764445871114731,0.007707460317760706
1782810993612679000,3.754678955078125,-0.040768299251794815,-0.03528829663991928,0.014972968958318233
1782810993622750000,3.76475,-0.04722246900200844,-0.020044630393385887,0.011148403398692608
1782810993632820700,3.77482080078125,-0.048178061842918396,-0.020222583785653114,0.008121675811707973
1782810993642892800,3.784892822265625,-0.04706885293126106,-0.012360133230686188,0.0014645714545622468
1782810993652963800,3.7949638671875,-0.04275522753596306,-0.011943908408284187,-0.0024622827768325806
1782810993663035000,3.805034912109375,-0.038273394107818604,-0.01397456880658865,-0.00452090660110116
1782810993673106000,3.81510595703125,-0.03503163903951645,-0.011345317587256432,-0.0112013453617692
1782810993683178000,3.825177978515625,-0.03636908158659935,-0.016484154388308525,-0.015499421395361423
1782810993693249000,3.8352490234375,-0.03399209678173065,-0.014285755343735218,-0.016586774960160255
1782810993703320000,3.845320068359375,-0.03145943209528923,-0.010159454308450222,-0.015991557389497757
1782810993713392000,3.85539208984375,-0.03286941349506378,-0.0032630416098982096,-0.014953549951314926
1782810993723463000,3.865462890625,-0.030436348170042038,0.0014568788465112448,-0.015739981085062027
1782810993733534000,3.875533935546875,-0.03092578612267971,0.0037256800569593906,-0.021264929324388504
1782810993743605800,3.885605712890625,-0.027513476088643074,0.005013318732380867,-0.026456762105226517
1782810993753676800,3.8956767578125,-0.0270700603723526,0.004911852069199085,-0.032520778477191925
1782810993763747800,3.905747802734375,-0.02604500949382782,0.00743466429412365,-0.04001757875084877
1782810993773820000,3.91581982421875,-0.02309689112007618,0.010115668177604675,-0.042386457324028015
1782810993783891000,3.925890869140625,-0.027875401079654694,0.010193699039518833,-0.03832726925611496
1782810993793962000,3.9359619140625,-0.0354829877614975,0.01863805018365383,-0.04681582748889923
1782810993804034000,3.946033935546875,-0.04513508453965187,0.03417067229747772,-0.04854422062635422
1782810993814104800,3.956104736328125,-0.04698634892702103,0.040834859013557434,-0.05125034973025322
1782810993824175900,3.96617578125,-0.04772298038005829,0.03526805341243744,-0.0659928098320961
1782810993834248000,3.976248046875,-0.05276983231306076,0.024776507169008255,-0.090024434030056
1782810993844319000,3.986319091796875,-0.057126499712467194,0.014887924306094646,-0.10671979188919067
1782810993854390000,3.99639013671875,-0.06483187526464462,0.024137157946825027,-0.1131802499294281
1782810993864461000,4.0064609375,-0.06898454576730728,0.02187133952975273,-0.1130146011710167
1782810993874532900,4.016532958984375,-0.07396668195724487,0.024502258747816086,-0.10747581720352173
1782810993884604000,4.02660400390625,-0.0796637162566185,0.02885412983596325,-0.09920297563076019
1782810993894674700,4.0366748046875,-0.08847083896398544,0.043185874819755554,-0.0821947455406189
1782810993904747000,4.0467470703125,-0.09264747053384781,0.046034395694732666,-0.07455732673406601
1782810993914817800,4.05681787109375,-0.10429086536169052,0.046790942549705505,-0.06682941317558289
1782810993924888800,4.066888916015625,-0.11464070528745651,0.061825819313526154,-0.05253543332219124
1782810993934961000,4.0769609375,-0.11867672950029373,0.06352131813764572,-0.039572879672050476
1782810993945032000,4.087031982421875,-0.11953240633010864,0.0520167239010334,-0.03610650822520256
1782810993955103000,4.09710302734375,-0.10720159858465195,0.036774903535842896,-0.03997187688946724
1782810993965175000,4.107175048828125,-0.09682086110115051,0.022702760994434357,-0.04748491942882538
1782810993975246000,4.11724609375,-0.08877885341644287,0.004299163818359375,-0.06020288169384003
1782810993985316900,4.12731689453125,-0.08067645132541656,-0.010155143216252327,-0.06671270728111267
1782810993995389000,4.137388916015625,-0.08078399300575256,-0.015652252361178398,-0.06880549341440201
1782810994005459700,4.147459716796875,-0.07026210427284241,-0.006620141677558422,-0.05745244026184082
1782810994015530800,4.15753076171875,-0.06604025512933731,0.004156286828219891,-0.04661315307021141
1782810994025601800,4.167601806640625,-0.05507974699139595,0.0047792005352675915,-0.04180774465203285
1782810994035673900,4.177673828125,-0.046086784452199936,0.0002512941136956215,-0.04310976341366768
1782810994045745000,4.187744873046875,-0.036340415477752686,0.0005064249271526933,-0.04506532475352287
1782810994055816000,4.19781591796875,-0.031180327758193016,-0.001536807045340538,-0.040754809975624084
1782810994065888000,4.207887939453125,-0.024614572525024414,-0.0005969775374978781,-0.03609427809715271
1782810994075959000,4.217958984375,-0.018832849338650703,0.0034638105425983667,-0.03403086215257645
1782810994086030000,4.228030029296875,-0.018403280526399612,0.008406104519963264,-0.034860968589782715
1782810994096102000,4.238101806640625,-0.015902947634458542,0.008934768848121166,-0.04057635739445686
1782810994106173000,4.2481728515625,-0.01685156300663948,0.013267199508845806,-0.05079224333167076
1782810994116243700,4.25824365234375,-0.017598101869225502,0.008540833368897438,-0.0561167448759079
1782810994126315800,4.268315673828125,-0.017201291397213936,0.002970033325254917,-0.06111123785376549
1782810994136386800,4.27838671875,-0.01650087907910347,-0.002157883020117879,-0.06328171491622925
1782810994146457900,4.288457763671875,-0.016468388959765434,0.004031569696962833,-0.05654178559780121
1782810994156530000,4.298530029296875,-0.020367257297039032,0.012163798324763775,-0.047916073352098465
1782810994166601000,4.30860107421875,-0.01889095827937126,0.02004140242934227,-0.04263025522232056
1782810994176672000,4.318672119140625,-0.02123619057238102,0.02182180806994438,-0.038875363767147064
1782810994186742800,4.32874267578125,-0.024316934868693352,0.0288418997079134,-0.02777530811727047
1782810994196815000,4.338815185546875,-0.024255309253931046,0.036103248596191406,-0.015448890626430511
1782810994206886000,4.348885986328125,-0.02187870442867279,0.04167484864592552,-0.007624256424605846
1782810994216957000,4.35895703125,-0.014849931932985783,0.03707665577530861,-0.0034316503442823887
1782810994227028700,4.36902880859375,-0.00203533424064517,0.02203832007944584,-0.008849584497511387
1782810994237099800,4.379099853515625,-0.0015348736196756363,0.0020095391664654016,-0.01960897445678711
1782810994247170800,4.3891708984375,0.004788003396242857,0.00034532975405454636,-0.01894531585276127
1782810994257243000,4.399242919921875,0.0006958444137126207,-0.0003240033984184265,-0.01374263409525156
1782810994267314000,4.40931396484375,0.0025906835217028856,-0.006613857112824917,-0.008373168297111988
1782810994277385000,4.419385009765625,0.00745063740760088,-0.009165730327367783,-0.0035270049702376127
1782810994287457000,4.42945703125,0.010331644676625729,-0.007492465898394585,-0.0006436005351133645
1782810994297527800,4.43952783203125,0.020387526601552963,-0.010585159994661808,0.004068618640303612
1782810994307598800,4.449598876953125,0.0252390056848526,-0.014549542218446732,0.0048997909761965275
1782810994317670000,4.459669921875,0.03163208067417145,-0.006105166859924793,0.010100670158863068
1782810994327742000,4.469741943359375,0.03838213160634041,-0.0037823577877134085,0.016713565215468407
1782810994337813000,4.47981298828125,0.04465920105576515,-0.011398065835237503,0.010469933971762657
1782810994347884000,4.489884033203125,0.05681653320789337,-0.01698191650211811,-0.001582734053954482
1782810994357955800,4.499955810546875,0.06667251884937286,-0.031355101615190506,-0.015268013812601566
1782810994368027000,4.51002685546875,0.07357516139745712,-0.04046231135725975,-0.02446177788078785
1782810994378098000,4.520097900390625,0.07896237075328827,-0.045371294021606445,-0.023011663928627968
1782810994388170000,4.530169921875,0.0788036435842514,-0.040431663393974304,-0.011124378070235252
1782810994398240800,4.54024072265625,0.0791730284690857,-0.03207665681838989,0.005492563359439373
1782810994408311800,4.550311767578125,0.07946278154850006,-0.025642722845077515,0.01897401735186577
1782810994418384000,4.5603837890625,0.0791173130273819,-0.02346763014793396,0.0250551775097847
1782810994428455000,4.570454833984375,0.07830425351858139,-0.019239062443375587,0.031110938638448715
1782810994438526000,4.58052587890625,0.0770040899515152,-0.02310772053897381,0.028733892366290092
1782810994448598000,4.590597900390625,0.07269003987312317,-0.036261871457099915,0.02539854869246483
1782810994458669000,4.6006689453125,0.06426309794187546,-0.029100123792886734,0.03517948463559151
1782810994468740000,4.610739990234375,0.054562002420425415,-0.013391999527812004,0.04416392371058464
1782810994478811000,4.620810791015625,0.048136863857507706,-0.010738025419414043,0.04938549920916557
1782810994488882700,4.630882568359375,0.0445123016834259,-0.008677803911268711,0.050003353506326675
1782810994498953700,4.64095361328125,0.03984474018216133,0.00020066823344677687,0.04037737846374512
1782810994509024800,4.651024658203125,0.031140731647610664,-0.004183693788945675,0.025041835382580757
1782810994519096800,4.661096923828125,0.02254229038953781,-0.008343979716300964,0.005373685155063868
1782810994529168000,4.67116796875,0.0210847407579422,-0.005925030447542667,-0.01201409287750721
1782810994539239000,4.681239013671875,0.011803464964032173,0.004676188342273235,-0.022822288796305656
1782810994549311000,4.69131103515625,0.005504023749381304,0.01123848371207714,-0.02903943881392479
1782810994559382000,4.701382080078125,0.00036929157795384526,0.025004081428050995,-0.0272990595549345
1782810994569453000,4.711453125,-0.010323034599423409,0.04091540351510048,-0.030203768983483315
1782810994579525000,4.721525146484375,-0.02333603985607624,0.044308390468358994,-0.028348522260785103
1782810994589596000,4.731595947265625,-0.029609914869070053,0.04224337637424469,-0.02394445240497589
1782810994599667000,4.7416669921875,-0.03340337052941322,0.052522335201501846,-0.01861788146197796
1782810994609738000,4.751738037109375,-0.03211307153105736,0.05568057671189308,-0.012459054589271545
1782810994619809800,4.761809814453125,-0.03377584367990494,0.052200738340616226,-0.009631454013288021
1782810994629880800,4.771880859375,-0.04058874398469925,0.05037061497569084,-0.011340138502418995
1782810994639952000,4.781951904296875,-0.04138673096895218,0.04610012099146843,-0.012521638534963131
1782810994650024000,4.79202392578125,-0.04038484767079353,0.03877296671271324,-0.014768813736736774
1782810994660095000,4.802094970703125,-0.04167216643691063,0.04249785467982292,-0.01155018899589777
1782810994670165800,4.812165771484375,-0.039961617439985275,0.04936348274350166,-0.0006091249524615705
1782810994680238000,4.822238037109375,-0.03502236306667328,0.05351990461349487,0.00515983859077096
1782810994690308900,4.832308837890625,-0.03446869179606438,0.05198938399553299,-0.0014985967427492142
1782810994700380000,4.8423798828125,-0.029370227828621864,0.05047668516635895,-0.0075384038500487804
1782810994710452000,4.852451904296875,-0.02717045694589615,0.05474546551704407,-0.015628553926944733
1782810994720523000,4.86252294921875,-0.02070195972919464,0.045065611600875854,-0.027671443298459053
1782810994730593800,4.87259375,-0.021441785618662834,0.03834352642297745,-0.0319487489759922
1782810994740664800,4.882664794921875,-0.017782442271709442,0.04604475200176239,-0.03184977173805237
1782810994750737000,4.89273681640625,-0.013389824889600277,0.044270820915699005,-0.03552759811282158
1782810994760808000,4.902807861328125,-0.00801151618361473,0.03424156829714775,-0.038395870476961136
1782810994770878700,4.912878662109375,-0.00013228761963546276,0.03370947018265724,-0.035685569047927856
1782810994780950800,4.92295068359375,0.00348257995210588,0.034761685878038406,-0.025942662730813026
1782810994791021800,4.933021728515625,0.009738078340888023,0.03435635194182396,-0.014931824058294296
1782810994801092900,4.9430927734375,0.011956012807786465,0.030834514647722244,-0.005581270437687635
1782810994811165000,4.9531650390625,0.013212759047746658,0.029691752046346664,0.00627458980306983
1782810994821236000,4.963236083984375,0.01046336442232132,0.03406551107764244,0.01426731701940298
1782810994831307000,4.97330712890625,0.01145432610064745,0.034400537610054016,0.01639757864177227
1782810994841378800,4.98337890625,0.008253099396824837,0.034711215645074844,0.009076425805687904
1782810994851449900,4.993449951171875,0.005027744919061661,0.030668802559375763,-0.003678250825032592
1782810994861521000,5.00352099609375,0.0042860545217990875,0.018089627847075462,-0.02176857180893421
1782810994871592000,5.013592041015625,0.004927610047161579,0.009743547067046165,-0.03752250224351883
1782810994881664000,5.0236640625,0.00550498440861702,0.004095121752470732,-0.03926725685596466
1782810994891734800,5.03373486328125,0.0028958856128156185,0.007844585925340652,-0.0324021615087986
1782810994901805800,5.043805908203125,0.004146825056523085,0.015742506831884384,-0.017878029495477676
1782810994911878000,5.0538779296875,0.0011691447580233216,0.022132495418190956,-0.0033267848193645477
1782810994921949000,5.063948974609375,0.002177576068788767,0.024935627356171608,0.005793086253106594
1782810994932020000,5.07402001953125,0.0011804884998127818,0.023658642545342445,0.006893770769238472
1782810994942092000,5.084092041015625,0.0012384412111714482,0.01750611886382103,0.009303596802055836
1782810994952163000,5.0941630859375,0.0007436259184032679,0.01649651490151882,0.006384505890309811
1782810994962234000,5.104234130859375,0.0011275995057076216,0.012834334746003151,0.004560965579003096
1782810994972306000,5.114305908203125,0.0020320089533925056,0.013525959104299545,0.005975103937089443
1782810994982377000,5.124376953125,0.0008311896817758679,0.014004794880747795,0.004219548311084509
1782810994992447700,5.13444775390625,0.00017338886391371489,0.017297526821494102,0.0001627549936529249
1782810995002518800,5.144518798828125,-0.0008961355779320002,0.01372372917830944,-0.00957119558006525
1782810995012590800,5.1545908203125,0.0008860518573783338,0.010725275613367558,-0.014842390082776546
1782810995022662000,5.164661865234375,0.005256937816739082,0.0064955949783325195,-0.02194349095225334
1782810995032733000,5.17473291015625,0.005991970654577017,0.009755836799740791,-0.020394597202539444
1782810995042805000,5.184804931640625,0.007162749767303467,0.008611402474343777,-0.018725398927927017
1782810995052876000,5.1948759765625,0.005204260814934969,0.010427678003907204,-0.02446291223168373
1782810995062947000,5.204947021484375,0.0034372536465525627,0.01109760906547308,-0.027254028245806694
1782810995073019100,5.21501904296875,0.0023632007651031017,0.013652113266289234,-0.03287889063358307
1782810995083090000,5.22508984375,-0.0016948175616562366,0.019086536020040512,-0.031893812119960785
1782810995093161000,5.235160888671875,-0.00753512978553772,0.020542219281196594,-0.03236119821667671
1782810995103232000,5.24523193359375,-0.0023176802787929773,0.011293877847492695,-0.03926065191626549
1782810995113303800,5.2553037109375,0.0034203664399683475,-0.00054520508274436,-0.04765147343277931
1782810995123374800,5.265374755859375,0.00374708604067564,-0.0017416602931916714,-0.05622086673974991
1782810995133446000,5.27544580078125,0.005904246587306261,0.002302882494404912,-0.048915017396211624
1782810995143518000,5.28551806640625,0.004724359139800072,0.011326352134346962,-0.038695525377988815
1782810995153589000,5.295589111328125,0.005452733486890793,0.005797896534204483,-0.025679858401417732
1782810995163660000,5.305659912109375,0.002851727418601513,0.0019819475710392,-0.013016726821660995
1782810995173730800,5.315730712890625,0.0046102125197649,0.005816899240016937,0.00041013272129930556
1782810995183801900,5.3258017578125,0.003793158568441868,0.014676075428724289,0.015805000439286232
1782810995193873000,5.335872802734375,0.004351889714598656,0.0176356453448534,0.022623226046562195
1782810995203945000,5.345945068359375,0.004438974894583225,0.013396136462688446,0.019971491768956184
1782810995214016000,5.35601611328125,0.0056523107923567295,0.01371917873620987,0.01553067285567522
1782810995224087000,5.366087158203125,0.00593913346529007,0.005516665056347847,0.009921279735863209
1782810995234159000,5.3761591796875,0.0053849294781684875,0.006973680108785629,0.004652747418731451
1782810995244230100,5.386230224609375,0.007919673807919025,0.013102218508720398,0.0042192586697638035
1782810995254301000,5.396301025390625,0.0059356181882321835,0.006157226860523224,-0.0022817838471382856
1782810995264372000,5.4063720703125,0.0029484033584594727,0.008413800038397312,-0.002936852164566517
1782810995274443800,5.41644384765625,-0.0006684355903416872,0.019352201372385025,0.0014725436922162771
1782810995284514800,5.426514892578125,-0.006298731081187725,0.018793854862451553,0.003455391386523843
1782810995294585900,5.4365859375,-0.010552065446972847,0.012243012897670269,-0.004941022954881191
1782810995304658000,5.446657958984375,-0.01670370250940323,0.018343251198530197,-0.008861728012561798
1782810995314729000,5.45672900390625,-0.01929975114762783,0.01333437580615282,-0.022078465670347214
1782810995324800000,5.466800048828125,-0.018534783273935318,0.0033297971822321415,-0.036092694848775864
1782810995334872000,5.4768720703125,-0.014169064350426197,0.005363653413951397,-0.044824134558439255
1782810995344943000,5.486943115234375,-0.015154699794948101,0.002481437288224697,-0.05128244683146477
1782810995355014000,5.497013916015625,-0.013525644317269325,-0.0023719072341918945,-0.049289602786302567
1782810995365085000,5.5070849609375,-0.01819443143904209,0.0067865801975131035,-0.04325207322835922
1782810995375157000,5.517156982421875,-0.029895296320319176,0.005346076563000679,-0.03173709660768509
1782810995385228000,5.52722802734375,-0.03071475401520729,0.005960716865956783,-0.021824302151799202
1782810995395299000,5.537299072265625,-0.030744314193725586,0.01649484969675541,-0.010608399286866188
1782810995405371000,5.547370849609375,-0.03120003081858158,0.012488359585404396,-0.007121280301362276
1782810995415442000,5.55744189453125,-0.03107726015150547,0.0012077422579750419,-0.016781631857156754
1782810995425513000,5.567512939453125,-0.028360676020383835,-0.003754254197701812,-0.01324095856398344
1782810995435585000,5.5775849609375,-0.02786346524953842,0.01556325051933527,-0.011699254624545574
1782810995445655800,5.58765576171875,-0.03466224670410156,0.020016321912407875,-0.0024085508193820715
1782810995455726800,5.597726806640625,-0.04212788864970207,0.0067384750582277775,-0.0036033650394529104
1782810995465798000,5.6077978515625,-0.04095492511987686,0.01673782244324684,0.006177868694067001
1782810995475870000,5.617869873046875,-0.03650984168052673,0.028908468782901764,-0.0025770070496946573
1782810995485941000,5.62794091796875,-0.029827438294887543,0.01986226812005043,-0.023633267730474472
1782810995496012000,5.638011962890625,-0.030629316344857216,0.00008270377293229103,-0.04487171024084091
1782810995506083800,5.648083740234375,-0.035844266414642334,-0.0007124915719032288,-0.046629369258880615
1782810995516155000,5.65815478515625,-0.04841039329767227,-0.02201644890010357,-0.032972678542137146
1782810995526226000,5.668225830078125,-0.04611218720674515,-0.0014248406514525414,-0.02336954139173031
1782810995536298000,5.678298095703125,-0.0547751858830452,0.022155053913593292,-0.012462564744055271
1782810995546368800,5.68836865234375,-0.060467109084129333,0.016773000359535217,-0.015034719370305538
1782810995556439800,5.698439697265625,-0.07201457768678665,-0.0040393369272351265,-0.02156985178589821
1782810995566510800,5.7085107421875,-0.09101777523756027,-0.0013941177166998386,-0.017578400671482086
1782810995576583000,5.7185830078125,-0.1388244479894638,0.14546909928321838,0.08618421852588654
1782810995586654000,5.728654052734375,-0.15875713527202606,0.1419723629951477,0.11419215053319931
1782810995596725000,5.73872509765625,-0.13777250051498413,0.11404858529567719,0.12378352135419846
1782810995606797000,5.748797119140625,-0.13978441059589386,0.08641932904720306,0.10685564577579498
1782810995616868000,5.7588681640625,-0.14769452810287476,0.09167268872261047,0.07289421558380127
1782810995626939000,5.76893896484375,-0.15968258678913116,0.06377411633729935,0.005272198934108019
1782810995637011000,5.779010986328125,-0.15682847797870636,-0.01786908507347107,-0.0744364783167839
1782810995647081700,5.789081787109375,-0.12168727070093155,-0.07761911302804947,-0.13665658235549927
1782810995657152800,5.79915283203125,-0.10196097195148468,-0.11144658923149109,-0.1521655023097992
1782810995667223800,5.809223876953125,-0.08540548384189606,-0.12822547554969788,-0.14366939663887024
1782810995677295900,5.8192958984375,-0.04468308761715889,-0.11338366568088531,-0.11667691916227341
1782810995687367000,5.829366943359375,-0.03238023817539215,-0.023129867389798164,-0.056982625275850296
1782810995697438000,5.83943798828125,-0.042277876287698746,-0.032340407371520996,-0.029713191092014313
1782810995707510000,5.849510009765625,-0.02813420072197914,-0.06508872658014297,-0.012954135425388813
