time,seconds_elapsed,z,y,x
1782811055132365800,0.07436572265625,-0.20632161401212215,0.10289280371963977,0.25490634283050895
1782811055142436900,0.084436767578125,0.1312421153694391,0.06314831089563668,0.2846288425296545
1782811055152509000,0.094509033203125,0.4391974729508161,-0.008711020124144852,0.1862023705691099
1782811055162580000,0.104580078125,0.5837123268693685,-0.06916132410746068,0.10314473265409468
1782811055172651000,0.114651123046875,0.5657166514515877,-0.06271218450069427,0.07677242016568779
1782811055182723000,0.12472314453125,0.442206007117033,-0.07503134865202009,0.044726445955038066
1782811055192794000,0.134794189453125,0.35044366922080517,-0.1015151586908847,-0.01638853248208761
1782811055202865200,0.144865234375,0.17676701822578905,-0.12558825432620943,-0.11404197424352168
1782811055212937200,0.154937255859375,0.044586160701513285,-0.11509341952521353,-0.22464915173277258
1782811055223008000,0.165008056640625,0.010939911687374114,-0.06625471594575792,-0.2400223696924746
1782811055233079000,0.1750791015625,-0.030700843212008475,-0.023262473372183737,-0.2239269749380648
1782811055243150000,0.185150146484375,-0.08847674035429955,0.004477072348818183,-0.17421119626313447
1782811055253222000,0.195221923828125,-0.07240881812870502,0.0406855730663985,-0.15935235756635666
1782811055263293000,0.20529296875,0.06025310091078281,0.06977138229720294,-0.100877226113528
1782811055273364000,0.215364013671875,0.23455168319642541,0.09776764272563158,-0.07142492165789008
1782811055283436000,0.22543603515625,0.35497020673453805,0.08751136592086405,-0.0637345132857561
1782811055293507000,0.235507080078125,0.43718671765029427,0.05103460618853569,-0.006603343787789344
1782811055303577900,0.245577880859375,0.474449988117814,0.02850252945013344,0.0516888323135674
1782811055313650200,0.255650146484375,0.5032517197102307,0.018160474058054387,0.06949293068200349
1782811055323721000,0.265720947265625,0.3794897309631109,0.0016903642397373914,0.10485445918142795
1782811055333792000,0.2757919921875,0.21456571074426173,0.0032049335211515426,0.1206727905601263
1782811055343864000,0.285864013671875,0.1484405029296875,-0.03880491041895002,0.0969791957616806
1782811055353935000,0.29593505859375,0.027951836764812468,-0.09132226597853005,0.05300722143575549
1782811055364006100,0.306006103515625,-0.19603928945064544,-0.12374671811275184,0.026070406932383775
1782811055374078000,0.316077880859375,-0.23003683612048625,-0.11499204150997101,0.026918402063846585
1782811055384149000,0.32614892578125,-0.11785714861750601,-0.12215424302322789,0.037219139064848424
1782811055394220000,0.336219970703125,-0.04362637575864792,-0.16130511733563616,0.06095730365738272
1782811055404292000,0.3462919921875,0.020799042400717734,-0.20084446124266833,0.04710968782976269
1782811055414363000,0.35636279296875,0.12070610830783843,-0.20907748859152198,0.04341799370497465
1782811055424434000,0.366433837890625,0.13360942902266978,-0.2215225624111481,0.018236352305859325
1782811055434506000,0.376506103515625,0.01581950042247772,-0.22458708281461148,-0.00013429390415549278
1782811055444577000,0.386576904296875,-0.0622404753357172,-0.2110105390133336,-0.03161167444661259
1782811055454648000,0.39664794921875,-0.08980477408766746,-0.21119305597338825,-0.028802169983834027
1782811055464720100,0.40672021484375,-0.13428338276147841,-0.22255791507456452,0.012509206830710173
1782811055474791200,0.416791259765625,-0.17823066103756427,-0.2262158713265322,0.022251433166116476
1782811055484862200,0.4268623046875,-0.23417174396812915,-0.24965013933535662,0.009462824872136115
1782811055494933200,0.436933349609375,-0.323537542116642,-0.26945403321888295,-0.04396306036710739
1782811055505005000,0.447005126953125,-0.32557869255542754,-0.2759014923252165,-0.06553790944591165
1782811055515075800,0.457075927734375,-0.21568331659734247,-0.24022877898477016,-0.08025076380074024
1782811055525147000,0.46714697265625,-0.14692717575728892,-0.22393219910245388,-0.025070728370547295
1782811055535219000,0.477218994140625,-0.03924129254221916,-0.2092762260340154,0.00003901683613657951
1782811055545290000,0.4872900390625,0.0018716390907764435,-0.18205579054998233,0.06119169693514705
1782811055555361000,0.497361083984375,-0.14030045109391212,-0.14893194884159602,0.07997560012117028
1782811055565433000,0.50743310546875,-0.23351240327656267,-0.136097537777666,0.02306596441939473
1782811055575504100,0.517504150390625,-0.21525427753031254,-0.1637256590134464,0.012216507494449615
1782811055585575200,0.5275751953125,-0.18564707477390766,-0.15521973300734535,0.009747487032413482
1782811055595647000,0.53764697265625,-0.15913608446717262,-0.13777222952423615,0.004710515778511762
1782811055605718000,0.547718017578125,-0.062084992513060565,-0.10359299701140262,0.037165947572886944
1782811055615789000,0.5577890625,0.07195756722986697,-0.09385731001463718,0.05964169101417064
1782811055625860900,0.56786083984375,0.2154810720235109,-0.060117939356947314,0.12193565010279417
1782811055635932000,0.577931884765625,0.29615327610671516,-0.08010224044183269,0.13017317096367478
1782811055646003000,0.5880029296875,0.33292671723067757,-0.09532101675849407,0.11239537608027457
1782811055656075000,0.598074951171875,0.30314298886358737,-0.10007065897099673,0.11689546397849916
1782811055666146000,0.60814599609375,0.1706470740407705,-0.09300734212179668,0.1333705057002604
1782811055676217000,0.618217041015625,0.028141806378960608,-0.04937850497800391,0.1063528810456395
1782811055686289200,0.6282890625,-0.1547539238601923,-0.0030547091122134586,0.12795461813136935
1782811055696360200,0.638360107421875,-0.20903262653648852,0.002454462213721126,0.11271540181487798
1782811055706431000,0.648430908203125,-0.23205577472746372,-0.007589338600856717,0.12104133161157368
1782811055716502000,0.658501953125,-0.2686807472914457,-0.039610829107509925,0.10739902909770607
1782811055726573800,0.66857373046875,-0.266449627238512,-0.07983082135561853,0.04805968203097582
1782811055736644900,0.678644775390625,-0.25831951227486133,-0.09039910498531535,-0.014985095424950122
1782811055746716000,0.6887158203125,-0.2070066736668348,-0.09932764945081435,-0.050383594933897255
1782811055756788000,0.6987880859375,-0.20277064353227614,-0.0862706634110771,-0.06724909727796911
1782811055766859000,0.70885888671875,-0.2304436633557081,-0.11948727056998759,-0.11655731806531548
1782811055776930000,0.718929931640625,-0.2402560323178768,-0.1504303524394985,-0.19694719807580113
1782811055787002000,0.729002197265625,-0.21716975576281547,-0.15343321491675452,-0.2287472347013652
1782811055797073200,0.7390732421875,-0.14297522326111792,-0.11644156446484848,-0.1991470462076366
1782811055807144000,0.74914404296875,-0.08690203838348388,-0.04773850551890209,-0.10956292913332581
1782811055817216000,0.759216064453125,0.019842764589190483,0.02264751067846082,-0.04575783482939005
1782811055827287000,0.769287109375,0.12859130859971046,0.03822595975352451,0.0032537410989403725
1782811055837358000,0.779358154296875,0.12804594967663288,0.046656573767401274,0.05534603964686394
1782811055847430000,0.789429931640625,0.1724082384943962,0.0012660926793701946,0.03479629583209753
1782811055857501000,0.7995009765625,0.24144261175394058,-0.043238600283768025,-0.003910159181058407
1782811055867571700,0.80957177734375,0.27137188607156276,-0.06351522624557837,-0.041628918331116434
1782811055877643800,0.819643798828125,0.19653028783798215,-0.08062915952592156,-0.07730082795396447
1782811055887714800,0.82971484375,0.16313889036774634,-0.06449250117936171,-0.08083499342948197
1782811055897785900,0.839785888671875,0.24081015906929967,-0.0807439176125452,-0.09410115610733628
1782811055907858000,0.84985791015625,0.3061398325920105,-0.11539437523316591,-0.09904738033786416
1782811055917929000,0.859928955078125,0.33328502914905545,-0.12172093877303414,-0.045417496959120035
1782811055928000000,0.87,0.2942255229145288,-0.11874627947695553,-0.013810206426680087
1782811055938071000,0.880071044921875,0.27779870424866676,-0.11743209160584955,0.011290917082130909
1782811055948143000,0.89014306640625,0.1965945852458477,-0.10244028331232256,-0.012366291228681802
1782811055958214100,0.900214111328125,0.044752164918184276,-0.11660362315876409,-0.03649564709588885
1782811055968285000,0.910284912109375,-0.06296411343514918,-0.1423894409961067,-0.08666603767052292
1782811055978356700,0.920356689453125,-0.17330314150750636,-0.16186353666968642,-0.10407704506814479
1782811055988427800,0.930427734375,-0.22013737339675427,-0.14045129427406935,-0.11572802763432263
1782811055998498800,0.940498779296875,-0.22444997589886187,-0.13314376600598915,-0.1237701720535755
1782811056008571000,0.95057080078125,-0.23049334771633148,-0.11872227754686027,-0.08642112299874424
1782811056018642000,0.960641845703125,-0.18905133025944232,-0.08426410022848285,-0.03828413794785738
1782811056028713000,0.970712890625,-0.19517536609768865,-0.0311313983826898,0.056782356060296295
1782811056038785000,0.980784912109375,-0.18527122719883918,0.00899236238275189,0.13487696474045513
1782811056048856000,0.99085595703125,-0.17821897059977054,0.04543848494822159,0.1688026152178645
1782811056058926800,1.0009267578125,-0.11749591408967971,0.017096936479769648,0.18371420701518654
1782811056068999000,1.0109990234375,-0.054635845550894735,-0.010327926402026786,0.18527765693962572
1782811056079070000,1.021070068359375,-0.014272270980477331,-0.020157493094168602,0.16311887049302456
1782811056089141000,1.03114111328125,-0.015321487772464752,-0.047798912202939386,0.12033479077741503
1782811056099212800,1.041212890625,0.01377133572101593,-0.05310378627856262,0.07482903101295232
1782811056109283800,1.051283935546875,0.09012216947376728,-0.05304751691352576,0.07487403919845818
1782811056119355000,1.06135498046875,0.14833178185820578,-0.06339646783727221,0.02312806987017393
1782811056129426000,1.071426025390625,0.22848843763470647,-0.049612016906356436,-0.012444763292372226
1782811056139498000,1.081498046875,0.2295762328714132,-0.03919029300734401,-0.03073591452538967
1782811056149569000,1.091569091796875,0.20455811147093772,-0.005451022814353928,-0.0829015705704689
1782811056159639800,1.101639892578125,0.1990127523034811,0.04103684332263656,-0.13167860709056256
1782811056169711900,1.1117119140625,0.16362813518941402,0.08538872947739437,-0.12728504830673337
1782811056179783000,1.121782958984375,0.1063899981856346,0.1351141801629681,-0.11789148927852511
1782811056189854000,1.13185400390625,0.0962906289756298,0.14366541574867442,-0.1228169629819691
1782811056199926000,1.141926025390625,0.0382633874207735,0.13451777603924273,-0.1333718208745122
1782811056209997000,1.1519970703125,-0.04387713564932346,0.09612229580455459,-0.18611498454660177
1782811056220068000,1.162068115234375,-0.1487064603894949,0.039232355750515126,-0.22973390765115617
1782811056230140000,1.172139892578125,-0.21540917583107946,-0.01000785500165075,-0.29684374258890744
1782811056240211000,1.1822109375,-0.23443244073092936,-0.05692362312793266,-0.3468763321280479
1782811056250281700,1.19228173828125,-0.22914368667304513,-0.05431807570545934,-0.3742445237860083
1782811056260354000,1.20235400390625,-0.2535527362644672,-0.048101658009178934,-0.345071766924113
1782811056270424800,1.2124248046875,-0.3176023068487644,-0.03007953297588974,-0.29815351001322266
1782811056280495900,1.222495849609375,-0.2904302222847938,-0.014554106429428792,-0.2804879433326423
1782811056290568000,1.23256787109375,-0.18759294814467428,-0.020055096732196395,-0.26026816212460396
1782811056300639000,1.242638916015625,-0.03226853092014789,-0.022930994661804288,-0.252932996930927
1782811056310710000,1.2527099609375,0.06432955656945705,-0.03252817737017758,-0.19784750791639089
1782811056320781000,1.262781005859375,-0.005499181938171387,-0.018337547658011315,-0.17706322469338773
1782811056330852900,1.272852783203125,-0.04542436509132385,-0.03520622833985835,-0.16467691358998418
1782811056340924000,1.282923828125,0.0391261417299509,-0.07761003090045414,-0.15363412605002522
1782811056350995000,1.292994873046875,0.14180150330662727,-0.12265327858654781,-0.15441490116417408
1782811056361066800,1.303066650390625,0.1646305902302265,-0.12969409134299495,-0.17815511158332228
1782811056371137800,1.3131376953125,0.14277473225295542,-0.1419516523670405,-0.15759250828698276
1782811056381208800,1.323208740234375,0.15173136116862296,-0.10019167326847091,-0.12558292056396603
1782811056391281000,1.333281005859375,0.10223989276885986,-0.1027613593596965,-0.06476224889829754
1782811056401352000,1.34335205078125,0.04689969834089279,-0.13344793658433482,-0.03919511531293392
1782811056411423000,1.353423095703125,0.09072481154203414,-0.16570424734372644,-0.04276113723143935
1782811056421495000,1.3634951171875,0.1678892997652292,-0.17072340894630178,-0.024380115757882594
1782811056431566000,1.373566162109375,0.19786884296536444,-0.16972214121557772,-0.003300941241532564
1782811056441637000,1.38363720703125,0.04961714060604572,-0.15203412524117155,0.026089696154743432
1782811056451709000,1.393708984375,-0.09651859251260757,-0.09482550659282132,0.07105769578069449
1782811056461779700,1.40377978515625,-0.08708674730062484,-0.09679251408316195,0.09756766317412256
1782811056471850800,1.413850830078125,-0.04800678279995918,-0.10286639063674956,0.08470598964393139
1782811056481921800,1.423921875,-0.07022212173938751,-0.11228261815449223,0.04417977185770869
1782811056491993900,1.433993896484375,-0.08529343414306641,-0.15683005428081379,-0.0012897475495934486
1782811056502065000,1.44406494140625,-0.09551906008124351,-0.18622713968418536,-0.04359568835943937
1782811056512136000,1.454135986328125,-0.09433131160140037,-0.1972528664914891,-0.06558934737220407
1782811056522208000,1.4642080078125,-0.059715340772271155,-0.16369911806639284,-0.025592121896147728
1782811056532279000,1.474279052734375,0.025939327898621557,-0.12195435480326414,0.05261661468297243
1782811056542349800,1.484349853515625,0.09552958147525786,-0.06796820533275603,0.15935776439383625
1782811056552422100,1.494422119140625,0.05535422295331954,0.001441887637693435,0.19574220620021224
1782811056562493000,1.504492919921875,-0.06568330926597118,0.03508760692887008,0.19067454754710197
1782811056572564000,1.51456396484375,-0.047131753531098365,0.003290328515972942,0.16491729821711779
1782811056582635800,1.5246357421875,0.04535071533322334,-0.0018523316021077333,0.14172975324466824
1782811056592706800,1.534706787109375,0.04466565567851066,0.017935031271725892,0.14459741763547063
1782811056602777900,1.54477783203125,0.006505144110321998,-0.01462026243424043,0.09754720490798353
1782811056612850000,1.554849853515625,-0.03860182559490204,-0.02626609390126541,0.005227379259467125
1782811056622921000,1.5649208984375,-0.01996668322980404,-0.045792175490409134,-0.04238017508983612
1782811056632992000,1.574991943359375,0.037784079471230504,-0.03331480683637783,-0.07702814849242567
1782811056643064000,1.58506396484375,0.10924480309486388,-0.022190953416842966,-0.0462989559687674
1782811056653134800,1.595134765625,0.1473591374337673,-0.017111348597612232,-0.046762774088233705
1782811056663206000,1.605205810546875,0.13954875594377517,-0.03868583235023543,-0.06029547874778509
1782811056673277000,1.61527685546875,0.029986557462811467,-0.02881203379072249,-0.08758037603646517
1782811056683349000,1.625348876953125,-0.01696457880437374,-0.012266082257218659,-0.11363222439885139
1782811056693420000,1.635419921875,0.018688918378949163,-0.01952301284922287,-0.1121126136161387
1782811056703491000,1.645490966796875,0.07863806790709495,-0.032017277839127924,-0.09467588725537061
1782811056713563000,1.65556298828125,0.13022680084705351,-0.03882558788079768,-0.10336524353697896
1782811056723634000,1.665634033203125,0.15941314784288405,-0.06797090874649583,-0.11306202329546212
1782811056733705000,1.675705078125,0.1733271069049835,-0.10116597992703318,-0.15333660440817473
1782811056743777000,1.685777099609375,0.13442132992744446,-0.12584169936431572,-0.15053952103555202
1782811056753847800,1.695847900390625,0.06950199077129364,-0.15477103939177467,-0.16049378268644213
1782811056763918800,1.7059189453125,-0.025792612904310223,-0.13514173489017411,-0.1462403625369072
1782811056773991000,1.715990966796875,-0.08236497947573661,-0.08578339135078712,-0.11518880619108676
1782811056784062000,1.72606201171875,-0.09350772025883197,-0.07899612409714608,-0.05850201945975422
1782811056794133000,1.736133056640625,-0.1169037934154272,-0.06789788004290312,-0.031020284424722194
1782811056804205000,1.746205078125,-0.16714987957477567,-0.06361992872906848,-0.04242489101439714
1782811056814276000,1.756276123046875,-0.17129589333832262,-0.0759650493055582,-0.033334698846936225
1782811056824347100,1.76634716796875,-0.1184375788539648,-0.10857852120585738,-0.027163316735625265
1782811056834418000,1.77641796875,-0.040376434051990505,-0.11886385970832779,-0.01183963700607419
1782811056844489700,1.78648974609375,-0.01042728599011898,-0.09444262648876756,0.03498056635782122
1782811056854561000,1.79656103515625,0.02279693821966648,-0.07700816515032202,0.08572393451482058
1782811056864632000,1.806632080078125,0.07170739186108112,-0.04147047636639327,0.09680091658532619
1782811056874704100,1.8167041015625,0.11418927375972271,-0.029245566369779406,0.11628463860377669
1782811056884775200,1.826775146484375,0.06871522430777549,-0.012866751564107834,0.12344839275330305
1782811056894846200,1.83684619140625,0.011705050840973853,-0.018733524705655872,0.08163885715827346
1782811056904918300,1.846918212890625,-0.023403087419271468,-0.06319700887557118,0.014070903189480304
1782811056914989300,1.8569892578125,-0.002070961055159569,-0.09161463652122766,-0.03462751513645053
1782811056925060000,1.86706005859375,-0.0024690204620361326,-0.0982429686198011,-0.02413812369555235
1782811056935132000,1.8771318359375,-0.04249824851155281,-0.10067962118219584,-0.019279285487532615
1782811056945203000,1.887202880859375,-0.04823942251205444,-0.08236322591006755,-0.04071633353084326
1782811056955274000,1.89727392578125,-0.054063598620891565,-0.06772263307385146,-0.05811331240311265
1782811056965346000,1.907345947265625,-0.03286649681329727,-0.09094473790302872,-0.0649428661622107
1782811056975417000,1.9174169921875,0.032382512688636775,-0.08288776124082506,-0.048923166992515324
1782811056985488100,1.927488037109375,0.0712771837502718,-0.06104308224469423,-0.03791954241916537
1782811056995559200,1.93755908203125,0.09157470636963844,-0.043631965249218044,-0.004793225625902414
1782811057005631200,1.94763134765625,0.11523030724525452,-0.021587050973251462,0.008574205469340086
1782811057015702300,1.957702392578125,0.07153729599118232,-0.03724704998508096,0.019366671510040758
1782811057025773000,1.96777294921875,0.041379473614692686,-0.07880483930874616,-0.005844488244503736
1782811057035845000,1.97784521484375,0.03441898695230484,-0.11029573691990226,-0.05686974208280444
1782811057045916200,1.987916259765625,-0.024457564908266068,-0.13953933052830397,-0.10057210568711161
1782811057055987200,1.9979873046875,0.0036310499787330624,-0.1502045169275254,-0.10685381630510091
1782811057066059000,2.00805908203125,0.09191489810943602,-0.1388799167715013,-0.07828881607800722
1782811057076130000,2.018130126953125,0.17724632617533206,-0.12141860395874828,-0.037646716827154154
1782811057086201000,2.028201171875,0.19326222595274448,-0.12350436072424054,-0.010295768564939498
1782811057096273200,2.038273193359375,0.26569033330380915,-0.11413670332226901,0.012654314389824867
1782811057106344200,2.04834423828125,0.27219489289224147,-0.1083747787946835,0.04364259624108672
1782811057116415000,2.0584150390625,0.19081833993196487,-0.1269423358162865,0.08837649485021828
1782811057126486000,2.068486083984375,0.05702361747026443,-0.10289243839345871,0.11797639108300208
1782811057136558000,2.07855810546875,-0.029901801788806914,-0.09030432110764086,0.1445547475375235
1782811057146629000,2.088629150390625,-0.12561200052797794,-0.08067706292141229,0.16082681403309107
1782811057156700200,2.0987001953125,-0.2566647308051586,-0.0653263490544632,0.13639204547852277
1782811057166772200,2.108772216796875,-0.3436146999835968,-0.07764697451051324,0.1038455743998289
1782811057176843300,2.11884326171875,-0.35250469340384005,-0.08218337583113461,0.06660948420017958
1782811057186914300,2.128914306640625,-0.3416045292049646,-0.0736123486995697,0.03358063643202185
1782811057196986000,2.138986083984375,-0.2782809348076582,-0.049014717733487485,0.04080255050957202
1782811057207057200,2.14905712890625,-0.18009353229999542,-0.05902918513901531,0.05241144749969244
1782811057217128000,2.1591279296875,-0.04190145166218281,-0.08534965784233063,0.03876636850684881
1782811057227200000,2.169199951171875,0.020981997752189636,-0.05476462302971631,0.042143882115930315
1782811057237271000,2.17927099609375,0.09894143574535846,-0.06760919929463416,0.028991262815147637
1782811057247342000,2.189342041015625,0.16689268994331358,-0.0712988475928083,-0.0004452595494687557
1782811057257414100,2.1994140625,0.1720727229297161,-0.05310469046086073,-0.055187780345231294
1782811057267485200,2.209485107421875,0.15129647688269615,-0.0201885458195582,-0.060712242855131625
1782811057277556200,2.21955615234375,0.06225567290484905,-0.032073044880665834,-0.06419336296916008
1782811057287627300,2.229627197265625,0.11929799507558345,-0.009962810283526777,-0.07056962000280619
1782811057297699300,2.23969921875,0.08719605289399623,-0.014724398662149906,-0.10553995722755789
1782811057307770400,2.249770263671875,-0.07215162849724292,-0.012794818839058279,-0.16411095027029513
1782811057317841200,2.259841064453125,-0.13195640111863613,-0.017584172007441518,-0.2257598894536495
1782811057327913000,2.269912841796875,-0.10225918199121951,-0.05159205740820616,-0.2510809393234551
1782811057337984000,2.27998388671875,-0.06507189936935902,-0.08571860075257719,-0.24543825726136564
1782811057348055000,2.290054931640625,-0.011958733341097831,-0.08056925516538321,-0.22653291965276
1782811057358127000,2.300127197265625,0.08682137436270713,-0.084093118442595,-0.1941683810122311
1782811057368198100,2.3101982421875,0.17250526912808417,-0.08280220184922218,-0.1753866697832942
1782811057378269200,2.320269287109375,0.19113690436184405,-0.056827583441510794,-0.14493512515723705
1782811057388341200,2.33034130859375,0.11301555380523204,-0.03225176244843751,-0.12926906173080205
1782811057398412300,2.340412353515625,0.0385118092238903,-0.01709689994715154,-0.12316694546341896
1782811057408483000,2.350483154296875,-0.006205284380912781,-0.006474748972058296,-0.1020208431906998
1782811057418555100,2.36055517578125,-0.09658522800803183,-0.015648746965453028,-0.1009109822526574
1782811057428626200,2.370626220703125,-0.10051613771617413,-0.053023989907465874,-0.11058423500508069
1782811057438697200,2.380697265625,-0.04108955075740814,-0.08592902863286435,-0.1048763787522912
1782811057448768300,2.390768310546875,0.03009586305618286,-0.11449037559814751,-0.10556816040873528
1782811057458840000,2.400840087890625,0.034760347735881804,-0.0924703035024926,-0.076370122975111
1782811057468911000,2.4109111328125,-0.014434183543920516,-0.10283248836714774,-0.08458777009174227
1782811057478982100,2.420982177734375,-0.015432546931505203,-0.10049830979853867,-0.07501373993009329
1782811057489054200,2.43105419921875,-0.010621931779384612,-0.08170516386013478,-0.021936229737102984
1782811057499125200,2.441125244140625,-0.006599252134561538,-0.0606716185837984,0.011885229713469742
1782811057509196000,2.451196044921875,0.005482815325260162,-0.07440174551159143,0.02956321748420596
1782811057519268000,2.46126806640625,0.023696517407894132,-0.04083992337789386,0.06936433586627244
1782811057529339100,2.471339111328125,0.06472878502011299,-0.0256621549250558,0.09289455679655075
1782811057539410200,2.48141015625,0.06737666918039321,-0.009249803175963462,0.11062018310129641
1782811057549482000,2.49148193359375,0.05488835900723934,-0.002464271221682429,0.1166587326131761
1782811057559553000,2.501552978515625,0.0025812486648559567,-0.0025801892189309,0.09813976397365332
1782811057569624000,2.5116240234375,-0.017703414472937582,-0.0380864964839071,0.04386354551538825
1782811057579696000,2.521696044921875,-0.0487555553406477,-0.05072429813034832,0.002212415352463722
1782811057589767200,2.53176708984375,-0.06075169808268547,-0.07330573043581098,-0.046432373090088366
1782811057599838200,2.541838134765625,-0.06724807436466217,-0.08720609936397522,-0.09285422478616237
1782811057609909000,2.551908935546875,-0.008034253373742103,-0.10180117255803198,-0.13006006597802042
1782811057619981000,2.56198095703125,0.03666764266192913,-0.09192154704593121,-0.10204831571951507
1782811057630052000,2.572052001953125,0.07760814033746719,-0.06331939314622431,-0.09894567352905868
1782811057640123100,2.582123046875,0.09372633144557475,-0.06343830681815743,-0.10757014788091182
1782811057650195200,2.5921953125,0.07435352245569228,-0.05329038575869053,-0.12101400521323084
1782811057660266200,2.602266357421875,0.02329144373834133,-0.05684376739133149,-0.1426639653548598
1782811057670337300,2.612337158203125,0.06191548116505146,-0.08188483127597719,-0.16894202368855477
1782811057680409000,2.6224091796875,0.0961211176276207,-0.0851098212044686,-0.13755992021411656
1782811057690480000,2.632480224609375,0.15404840593934058,-0.08628796160575002,-0.1019445630840957
1782811057700551000,2.642551025390625,0.14911679475605488,-0.09381002767365425,-0.08654752585738897
1782811057710622000,2.6526220703125,0.1640115815490484,-0.08824914214350282,-0.06263488148078322
1782811057720694000,2.662694091796875,0.15395780504643916,-0.08629278391133993,-0.01725581683591008
1782811057730765000,2.67276513671875,0.08213350880742072,-0.11559556036107241,-0.01992065213099122
1782811057740836000,2.682836181640625,0.010092354947328568,-0.10901906804759055,-0.02508124976456165
1782811057750908200,2.692908203125,-0.045292847666144366,-0.08976327303349971,0.003564414483308792
1782811057760979200,2.702979248046875,-0.055637131547927855,-0.10701799389086664,0.030534108342975375
1782811057771050200,2.71305029296875,-0.03855038766860962,-0.10774674655683338,0.056818158026039595
1782811057781122300,2.723122314453125,-0.022310031485557553,-0.1398350986044854,0.05110942499041557
1782811057791193300,2.733193359375,-0.06092062490880489,-0.17745036084745078,0.020638152750581503
1782811057801264000,2.74326416015625,-0.13464637085497377,-0.19511870400700718,-0.033054420600831504
1782811057811336000,2.7533359375,-0.20932488748133182,-0.17834164713136852,-0.016551467958837746
1782811057821407000,2.763406982421875,-0.19368834241032598,-0.15313757470473646,0.030408143875747917
1782811057831478000,2.77347802734375,-0.12069266430437564,-0.09560180646125227,0.09876520239561795
1782811057841550000,2.783550048828125,-0.08767828345298767,-0.07017090300880371,0.1380846747405827
1782811057851621000,2.79362109375,-0.16684125201702116,-0.054898515075072644,0.12390578113198279
1782811057861691600,2.803691650390625,-0.19727087707221508,-0.06774210495930165,0.09568155716657638
1782811057871762700,2.8137626953125,-0.19566461091935633,-0.07836348874941468,0.07501008666828274
1782811057881834800,2.823834716796875,-0.14193652786314487,-0.05451718760728836,0.08636033272221684
1782811057891905800,2.83390576171875,-0.059148354539275166,0.0019445947291329502,0.06852496243268251
1782811057901976800,2.843976806640625,0.004804769933223724,0.02201539592053741,0.05399667086452246
1782811057912049000,2.854048828125,0.026576456758379934,-0.004080108920484781,-0.012371113534271717
1782811057922120000,2.864119873046875,0.07126666235625743,0.010301832979544996,-0.0517529835909605
1782811057932191000,2.87419091796875,0.1528010362267494,-0.006864442409388721,-0.0717747580088675
1782811057942262800,2.8842626953125,0.1887742668837309,-0.05452106006480753,-0.10645736433342098
1782811057952333600,2.89433349609375,0.18937515538632868,-0.04765943066701293,-0.13607055843919516
1782811057962404600,2.904404541015625,0.21681553549766538,-0.0705062724430114,-0.15604104106128214
1782811057972476700,2.9144765625,0.23377952978014946,-0.07075235615856945,-0.1515500132523477
1782811057982547700,2.924547607421875,0.17281389668583869,-0.05933686284869909,-0.12017623921483754
1782811057992618800,2.93461865234375,0.1441921978354454,-0.06495335102360696,-0.09603753099739551
1782811058002689800,2.944689697265625,0.1484831730276346,-0.06945636153127997,-0.08871960919946431
1782811058012761900,2.954761962890625,0.06092179395258426,-0.0748235145876184,-0.06407499728649854
1782811058022833000,2.9648330078125,-0.03518003445267677,-0.09102255237959325,-0.07824570758864283
1782811058032904000,2.974904052734375,-0.1466325767248869,-0.11611994956135749,-0.08797215183302759
1782811058042976000,2.98497607421875,-0.22925299226641654,-0.1094116475617513,-0.13469663973748683
1782811058053046800,2.995046875,-0.2520569447487593,-0.15153905346691607,-0.18152955645248292
1782811058063117800,3.005117919921875,-0.22284604783356188,-0.1611631698479876,-0.16818579849377274
1782811058073189600,3.015189697265625,-0.19646248329877852,-0.14312179212495685,-0.21846914792358874
1782811058083260700,3.0252607421875,-0.14711013110876084,-0.09912526787966489,-0.1366932203821838
1782811058093331700,3.035331787109375,-0.131943541637063,-0.09956168653555214,-0.07628390599638223
1782811058103403800,3.04540380859375,-0.15357552773058414,-0.08911854538917541,-0.14654080678820608
1782811058113474800,3.055474853515625,-0.208498373529315,-0.08227057919055222,-0.19882570529878138
1782811058123545900,3.0655458984375,-0.245113993743062,-0.11460428430140018,-0.19024390104487537
1782811058133618000,3.075617919921875,-0.1802811638265848,-0.13771240736208856,-0.12694208008795976
1782811058143689000,3.08568896484375,-0.02830956416130066,-0.15999423566646873,-0.07046908223778009
1782811058153759700,3.095759765625,0.20962708529829976,-0.11144713544473052,0.07822700288817286
1782811058163830800,3.105830810546875,0.43653380669951436,-0.06977949253842235,0.21547113515138624
1782811058173902800,3.11590283203125,0.4583937563300132,-0.013126461946219204,0.34430969651043414
1782811058183974000,3.125973876953125,0.12342881126999854,0.04002089861258864,0.47175227346643805
1782811058194045000,3.136044921875,-0.3987941508919,0.030712460584565997,0.3147685447275638
1782811058204116700,3.14611669921875,-0.4616518813431263,-0.026424627197533846,0.11402546150013804
1782811058214187800,3.156187744140625,-0.24628829821944234,-0.12155300746075809,-0.006201631119102239
1782811058224258800,3.1662587890625,-0.12361468923091888,-0.17434059479646383,-0.12832710470557213
1782811058234331000,3.176330810546875,0.05484159725606441,-0.16969883340522646,-0.20701573375612495
1782811058244401700,3.186401611328125,0.21125088710784912,-0.13282653501667083,-0.19362842891663312
1782811058254472700,3.19647265625,0.28308804282844063,-0.04220752193666994,-0.11240648199617861
1782811058264544800,3.206544677734375,0.4067909948647022,0.05910663428939879,0.03376227660924196
1782811058274615800,3.21661572265625,0.4434177209943533,0.13835764646306634,0.11998480829596518
1782811058284686800,3.226686767578125,0.4385965844482183,0.18065796124972403,0.19930325968265533
1782811058294758000,3.2367578125,0.41486324216127396,0.19594686192683874,0.2348437980107963
1782811058304830000,3.246829833984375,0.3212362794369459,0.20903284573219716,0.2557451317422092
1782811058314901000,3.25690087890625,0.1485614989608526,0.1419097859866917,0.21441724218428135
1782811058324972000,3.266971923828125,0.048636897397041315,0.09370616544038057,0.10642477723807096
1782811058335043800,3.2770439453125,0.027945407024025915,0.08012479933351278,-0.014417963061481713
1782811058345114600,3.287114501953125,-0.08189560839831829,0.06628507455140352,-0.053869098962098357
1782811058355185700,3.297185546875,-0.20689678355157373,0.05200418187305331,-0.06630830929651856
1782811058365257700,3.3072578125,-0.3752455175220966,0.040103097003325816,-0.06379296547472477
1782811058375328800,3.317328857421875,-0.45102176625728607,0.0017426789488643407,-0.08457637191489338
1782811058385399800,3.32739990234375,-0.41686289154589173,0.006842778566852212,-0.13175810206755995
1782811058395472000,3.337471923828125,-0.3313233736872673,-0.023553821001574396,-0.15614040978252886
1782811058405543000,3.34754296875,-0.22454349940121174,-0.0314125716779381,-0.13970935333296655
1782811058415614000,3.357614013671875,-0.13866378980278968,-0.014413944473490118,-0.12749869105741382
1782811058425684700,3.367684814453125,0.0794458771586418,-0.016626067565008996,-0.11232757154107093
1782811058435756800,3.3777568359375,0.27507132511138915,-0.005545578363165259,-0.07322904847040772
1782811058445827800,3.387827880859375,0.39836335825920105,-0.015383739353716373,-0.009067395813763141
1782811058455899000,3.39789892578125,0.40807986563146115,-0.040576121342554686,-0.016200462564080954
1782811058465970700,3.407970703125,0.3792857328236103,-0.06000299860723316,-0.03989727223291993
1782811058476041700,3.418041748046875,0.3571159865915775,-0.05530746120214462,-0.04167626460418105
1782811058486112800,3.42811279296875,0.41388533703982827,-0.06367620722725988,-0.0036504853315651414
1782811058496184800,3.438184814453125,0.4128162465035915,-0.07701353544518351,0.04965104287564754
1782811058506256000,3.448255859375,0.41987668640911574,-0.0979128233499825,0.03266571354418993
1782811058516327000,3.458326904296875,0.3701800508260727,-0.14445238314159214,0.0018415362134575842
1782811058526399000,3.46839892578125,0.27847090442180633,-0.14812281528264284,-0.04072042518407106
1782811058536469800,3.4784697265625,0.1753320169866085,-0.12322612830474972,-0.021069822166115044
1782811058546540800,3.488540771484375,0.08148644307553768,-0.11452230510637164,0.05226984707191586
1782811058556611800,3.49861181640625,-0.008525251761078835,-0.08776289299651979,0.07867065500244498
1782811058566683600,3.50868359375,-0.15239888516664504,-0.07400821614935994,0.05318330865502357
1782811058576754700,3.518754638671875,-0.355664034217596,-0.04160341856367886,0.04135229334682226
1782811058586825700,3.52882568359375,-0.5426508331626654,-0.03755187815055251,0.03288987768888473
1782811058596897800,3.538897705078125,-0.579645808082819,-0.0608167261429131,-0.03581730944290757
1782811058606968800,3.54896875,-0.46635494446754455,-0.09097725193314253,-0.0846324860163033
1782811058617040000,3.559039794921875,-0.3125403472840786,-0.10829809682928025,-0.10472995601892471
1782811058627112000,3.56911181640625,-0.13759703735411166,-0.1290230510804802,-0.09817425076514481
1782811058637182700,3.5791826171875,0.03944704424738884,-0.0816357153531164,-0.07422785024940967
1782811058647253800,3.589253662109375,0.13046236316859722,-0.05195179409869015,0.005073796132951974
1782811058657324800,3.59932470703125,0.09615209728777407,-0.03963474883921444,0.02628682616204023
1782811058667396900,3.60939697265625,0.10173895750939846,-0.029744784596189854,0.00929360578507185
1782811058677468000,3.619468017578125,0.029488544812798497,-0.05948803482241928,-0.04111366228535771
1782811058687539000,3.6295390625,-0.005913607957959175,-0.08630787188261747,-0.06935644482076167
1782811058697610800,3.63961083984375,0.007948328655958176,-0.08025741273723543,-0.06285100844949483
1782811058707681800,3.649681884765625,0.06140051738023757,-0.09280256766416133,-0.05492226127684116
1782811058717752600,3.659752685546875,0.10671382331252098,-0.08090900851376354,-0.04467866129055619
1782811058727824600,3.66982470703125,0.06313128669559956,-0.09173391551934182,-0.03988835827410221
1782811058737895700,3.679895751953125,-0.011352584141492842,-0.08928133473545312,-0.046351416808366776
1782811058747966700,3.689966796875,-0.01862462097108364,-0.11309022647663951,-0.07884615769982338
1782811058758038800,3.700038818359375,-0.031900282129645345,-0.10323847535215318,-0.06952069547176361
1782811058768109800,3.71010986328125,-0.03847323077917099,-0.10074358979649842,-0.060508975367993115
1782811058778180900,3.720180908203125,-0.031157939329743384,-0.0737616209771484,-0.026802958990633487
1782811058788252000,3.730251953125,-0.0024368717581033706,-0.03985978976674378,0.00619549363926053
1782811058798324000,3.740323974609375,0.04358487470448017,-0.05354571222662925,0.044090632269531485
1782811058808395000,3.75039501953125,0.012294833427667616,-0.04290405283346772,0.05503522013202309
1782811058818465800,3.7604658203125,-0.04636836794316768,-0.022272768215090034,0.04906096802800893
1782811058828537600,3.77053759765625,-0.044812955194711686,0.002012435800954699,0.09195566851124166
1782811058838608600,3.780608642578125,0.029980712243914603,0.0035753012035042047,0.11718334100916981
1782811058848679700,3.7906796875,0.12904840471744536,-0.015054726595059036,0.13700082502663136
1782811058858751700,3.800751708984375,0.2296989824682474,-0.013685995525121689,0.13235285309031605
1782811058868822800,3.81082275390625,0.2810907315313816,0.043163799748197194,0.1569154858082533
1782811058878893800,3.820893798828125,0.16141630435883997,0.06934424292631447,0.1820167554475367
1782811058888966000,3.8309658203125,0.0050672202616930005,0.07017579837962985,0.11136778659820556
1782811058899036700,3.84103662109375,-0.06391688411533832,0.05763086264841258,-0.007253332129120826
1782811058909107700,3.851107666015625,-0.010474632263183592,0.018310513520613313,-0.036001141577214
1782811058919178800,3.8611787109375,0.0609200403869152,0.01286686116196215,-0.024881927800178526
1782811058929250800,3.871250732421875,0.2042792945295572,0.03399433179944753,0.017986030806601046
1782811058939321900,3.88132177734375,0.2313981876015663,0.03820025905668735,0.09810542331263422
1782811058949393000,3.891392822265625,0.08448971654474735,0.03627981238812208,0.08754764281064271
1782811058959464700,3.901464599609375,0.0633645109295845,-0.0057878626864403485,-0.049052784721553326
1782811058969535700,3.91153564453125,0.05124912572205066,-0.009771671625599264,-0.15794629016071557
1782811058979606800,3.921606689453125,-0.13045593342781067,-0.018354864118993282,-0.15438421376496553
1782811058989678800,3.931678955078125,-0.26277999881505965,-0.026293255902826784,-0.12422288425713778
1782811058999749600,3.94174951171875,-0.27816344590783115,-0.0023211364239454266,-0.14460764676854013
1782811059009820700,3.951820556640625,-0.25985329771339893,-0.009206512023508548,-0.15068243663758038
1782811059019891700,3.9618916015625,-0.20493863522112368,-0.01945581109821796,-0.14664660525023937
1782811059029963800,3.9719638671875,-0.13179507307708263,-0.04039660005718469,-0.1654737630560994
1782811059040034800,3.982034912109375,-0.05610416453778743,-0.05201747974604368,-0.12376681105270981
1782811059050105900,3.99210595703125,-0.09878653744459151,-0.053775794655457135,-0.1183059152983129
1782811059060178000,4.002177978515625,-0.10472235723435878,-0.01893098350651562,-0.10733517008125781
1782811059070249000,4.0122490234375,-0.08025719354152679,-0.03741568455025553,-0.09219400731176138
1782811059080320000,4.022320068359375,-0.055423196536302566,-0.03487359885200858,-0.027724311619251964
1782811059090391800,4.032391845703125,-0.04041559701859951,-0.00567439237460494,-0.018547025690227745
1782811059100462600,4.042462646484375,-0.024313772523403165,0.011124036082625388,-0.008444733870774507
1782811059110533600,4.05253369140625,0.008200257590413092,-0.008189736196398735,-0.004798340192437172
1782811059120605700,4.062605712890625,0.04527297392189503,-0.014308584402874112,-0.02273132563754916
1782811059130676700,4.0726767578125,0.06811492032706737,-0.029906331833451986,-0.041172406735271214
1782811059140747800,4.082747802734375,0.0683271017730236,-0.014536328744143246,-0.04141176844909787
1782811059150818800,4.09281884765625,0.06208031633794307,0.0013743570931255816,-0.04272928078845143
1782811059160891000,4.102890869140625,0.014471008422970772,-0.0029204905565828085,-0.06800181534141302
1782811059170962000,4.1129619140625,0.03611936112940311,-0.02385872223228216,-0.06617606121897697
1782811059181032700,4.12303271484375,0.11930500933825969,-0.03395319607146084,-0.05994535013586282
1782811059191104800,4.133104736328125,0.16779519174098967,-0.0016398030962795017,-0.03513327270150184
1782811059201175800,4.14317578125,0.1672229448109865,0.012006006548926234,-0.01437763105109334
1782811059211246800,4.153246826171875,0.1564969681352377,0.012768369223549961,-0.015218904180824756
1782811059221318700,4.163318603515625,0.10926876849234103,0.02297901678830385,-0.02831599390208721
1782811059231389700,4.1733896484375,0.024856793358922002,0.02532426474019885,-0.04802636428326368
1782811059241460700,4.183460693359375,-0.07541676777303219,0.020375556291639802,-0.05963043896779418
1782811059251531800,4.19353173828125,-0.09268120630681514,0.005015197813510895,-0.05250891652479767
1782811059261603800,4.203603759765625,-0.08062018163502216,-0.01600778953619301,-0.06289090206846594
1782811059271675000,4.2136748046875,-0.09504209021925926,0.0002530979782342911,-0.08449643854647874
1782811059281745700,4.22374560546875,-0.14365502221882342,-0.004419496942684054,-0.12980346086844802
1782811059291817700,4.233817626953125,-0.12429448818862437,-0.009337006535381078,-0.13730521480068564
1782811059301888800,4.243888671875,-0.053854924306273456,-0.03833616039603949,-0.16907047237381337
1782811059311959800,4.253959716796875,-0.0008428805649280548,-0.05599887753240764,-0.1709581858165562
1782811059322031600,4.264031494140625,0.048337622189521784,-0.05020487736612558,-0.14907675500661133
1782811059332102700,4.2741025390625,0.06302724179923534,-0.00985467373393476,-0.10878522275909781
1782811059342173700,4.284173583984375,0.05063070156276226,-0.0019666238978505134,-0.04215747224986553
1782811059352244700,4.29424462890625,0.03893617211580276,-0.00444930755905807,-0.029656010334193704
1782811059362316800,4.30431689453125,0.03636602936685085,-0.004570888112112879,-0.011914748068898915
1782811059372387600,4.3143876953125,0.034226679250597955,-0.004051175086945295,-0.012437018377333879
1782811059382458600,4.324458740234375,0.11176818409264087,-0.04468582168370485,-0.007527326764911413
1782811059392530700,4.33453076171875,0.12629530661702154,-0.0030996465157717467,0.014827274514734744
1782811059402601700,4.344601806640625,0.09214578425586223,-0.04721256368234753,-0.020551643510907887
1782811059412672800,4.3546728515625,0.028483167162537574,-0.0639181262243539,-0.04046747333630919
1782811059422744800,4.364744873046875,-0.034089316606521605,-0.050377092127874494,-0.04231529316008091
1782811059432815900,4.37481591796875,-0.07858662998080253,-0.043725452218949794,-0.029314357289671897
1782811059442887000,4.384886962890625,-0.030396891829371452,-0.03248378110602498,0.010435030905157327
1782811059452958700,4.394958740234375,0.03216214793622493,0.009935995341837405,0.030514819120615717
1782811059463029800,4.40502978515625,0.057385436519980425,-0.022696984976530075,0.01937222446799278
1782811059473100500,4.4151005859375,0.06801613612771033,-0.053000864760205144,0.016454583455622195
1782811059483171600,4.425171630859375,0.060069561037421226,-0.06278751475922763,-0.012352408833801745
1782811059493243600,4.43524365234375,0.033993455016613,-0.05101597455330193,-0.005306143584102392
1782811059503314700,4.445314697265625,-0.025050270104408263,-0.031232904262095688,-0.017892068912833927
1782811059513385700,4.4553857421875,-0.02922784804999828,-0.05416406332068145,-0.05185688235685229
1782811059523457800,4.465457763671875,0.004835165071487427,-0.07705942041352391,-0.03958002297729254
1782811059533528800,4.47552880859375,0.04959785138368606,-0.09051832918450235,-0.05157689637169242
1782811059543599900,4.485599853515625,0.07733224600553512,-0.08848075894229114,-0.04227028497457504
1782811059553672000,4.495671875,0.13507540992200373,-0.0794957076497376,-0.03481061661839485
1782811059563743000,4.505742919921875,0.08087503317892551,-0.07360935302488505,-0.03908478680625558
1782811059573813800,4.515813720703125,0.03660626786351204,-0.08186484793387352,-0.03831920926123857
1782811059583884800,4.525884765625,0.0023918635725975034,-0.06306991189718246,-0.013664514345675706
1782811059593956600,4.53595654296875,0.002895136919617653,-0.06291654796637594,-0.00437032403871417
1782811059604027600,4.546027587890625,-0.013212532794475554,-0.06013597733713686,-0.0072290744706988335
1782811059614098700,4.5560986328125,-0.03958557593524456,-0.04119586067609489,0.0018619944795966147
1782811059624170800,4.566170654296875,-0.06542436606884003,-0.06123633979447186,-0.015561726269125938
1782811059634241800,4.57624169921875,-0.1035194111853838,-0.09114756699874997,-0.04539616191014647
1782811059644312800,4.586312744140625,-0.11258242308497428,-0.06775631614774465,-0.05487696083039045
1782811059654385000,4.596385009765625,-0.09442425058186053,-0.04284304336123168,-0.038696664271503686
1782811059664455700,4.60645556640625,-0.0746446143567562,-0.04157945316620171,-0.015653203944861888
1782811059674526700,4.616526611328125,-0.020004677152633665,-0.06090352764353156,-0.0026151509344577786
1782811059684597800,4.62659765625,0.027557284489274022,-0.07119323179386555,0.003956044149398804
1782811059694669800,4.636669921875,0.02055997294783592,-0.057258668335154646,-0.012335311568528413
1782811059704740900,4.646740966796875,0.015185878694057464,-0.052344519743323326,0.004277823449671268
1782811059714812000,4.65681201171875,0.057719783040881156,-0.05930712529756128,0.013871142833679913
1782811059724883700,4.6668837890625,0.09122925393283367,-0.08501702835448086,0.020356267069280145
1782811059734954800,4.676954833984375,0.08826981960535049,-0.08259513496980071,0.0034125849224627015
1782811059745025800,4.68702587890625,0.04633212758600712,-0.07612447765097022,-0.037395810806006194
1782811059755097900,4.697097900390625,-0.009871405673027038,-0.0596886719610542,-0.05041515911594033
1782811059765168600,4.707168701171875,-0.07382277657985686,-0.031494550872966647,-0.08412439036369324
1782811059775239700,4.71723974609375,-0.13154548223018644,-0.03762940036617219,-0.06418634870648383
1782811059785311700,4.727311767578125,-0.29305881722271443,-0.002174859821051359,-0.0020813363187015053
1782811059795382800,4.7373828125,-0.440240260002017,0.020491949212923646,0.06584434504657984
1782811059805453800,4.747453857421875,-0.4330179075330496,0.01033405474871397,0.029600626885145902
1782811059815524900,4.75752490234375,-0.28418285232782364,-0.04302029962427914,-0.017895137652754783
1782811059825597000,4.767596923828125,-0.0997416462123394,-0.06906177272312343,-0.03566036531552672
1782811059835668000,4.77766796875,0.10091068999171257,-0.07251549337357283,-0.03925312911048531
1782811059845738800,4.78773876953125,0.2492500706344843,-0.09457439964227378,-0.04576514135301113
1782811059855810600,4.797810546875,0.3775771753400564,-0.12629369918182493,-0.06726780197843908
1782811059865881600,4.807881591796875,0.44120998181700705,-0.1233521658372134,-0.07332359488606452
1782811059875952600,4.81795263671875,0.38337504796385763,-0.08743358797691762,-0.10443579537793993
1782811059886024700,4.828024658203125,0.25041443823873993,-0.04999839500859379,-0.08629618144482373
1782811059896095700,4.838095703125,0.1846130555510521,-0.027342764955759047,-0.06539952388852835
1782811059906166800,4.848166748046875,0.14295242690742016,-0.012377543275058269,-0.04751490762978792
1782811059916237600,4.858237548828125,0.08184124786257743,-0.019802067252621052,-0.043117987845093006
1782811059926309600,4.8683095703125,0.05391746814846992,-0.04549297334812581,-0.06546206773072481
1782811059936380700,4.878380615234375,0.02178571535050869,-0.05814845678173005,-0.037293373344838614
1782811059946451700,4.88845166015625,-0.1137929679185152,-0.007209346856921911,-0.040046033053845166
1782811059956523800,4.898523681640625,-0.194755094859004,-0.02968048718832433,-0.05509893301799893
1782811059966594800,4.9085947265625,-0.1525876857370138,-0.041404315795004365,-0.03944616746455431
1782811059976665900,4.918665771484375,-0.04163257159292698,-0.048433337648957964,-0.020808687011897562
1782811059986737700,4.928737548828125,0.04935585932135582,-0.07693433272913097,0.018693448423594234
1782811059996808700,4.93880859375,0.09601298107802868,-0.059994011583179234,-0.020674246977269647
1782811060006879500,4.94887939453125,0.15837971314191818,-0.07900726654566824,0.0009292436741292476
1782811060016950500,4.958950439453125,0.1337006144374609,-0.10536401613876223,0.0032622166663408276
1782811060027022600,4.969022705078125,0.07138707386553288,-0.0790360542487353,0.025137363865971565
1782811060037093600,4.97909375,-0.025855741268396376,-0.0553795765902847,0.06814867646619677
1782811060047164700,4.98916455078125,-0.10545943933725356,-0.07506547011733054,0.08071063639745116
1782811060057236700,4.99923681640625,-0.10133213027417659,-0.0585437397096306,0.05666136002913117
1782811060067307800,5.009307861328125,-0.1355471190869808,-0.055735258160158986,0.036054771460592744
1782811060077378800,5.01937890625,-0.1884112787902355,-0.060131081966310736,0.03176131205037236
1782811060087450600,5.02945068359375,-0.19274901573359965,-0.031378231016919014,0.036908611810952424
1782811060097521700,5.039521728515625,-0.10968494807779788,-0.007621361723914742,0.04885623923614621
1782811060107592700,5.0495927734375,-0.04111702328622341,-0.026602467982470988,0.04229205841496587
1782811060117663700,5.059663818359375,0.03699205231070518,-0.06318206703476607,0.005487345369905233
1782811060127735600,5.069735595703125,0.11793547455072402,-0.07178206453248857,-0.03922697175592184
1782811060137806600,5.079806640625,0.15958382823467254,-0.0772382110465318,-0.023820728309452532
1782811060147877600,5.089877685546875,0.19541969624757766,-0.07331943016760051,-0.03527238891124725
1782811060157949700,5.09994970703125,0.2466775897979736,-0.06675977939106524,-0.02666559634655714
1782811060168020700,5.110020751953125,0.27879706763625145,-0.06310045316591859,-0.020767185957729816
1782811060178091800,5.120091796875,0.2624818926513195,-0.08575191850028932,0.001390723706036806
1782811060188163800,5.130163818359375,0.12923311363458634,-0.051055722041800616,-0.024087562552094457
1782811060198235000,5.14023486328125,0.025693244183063506,-0.03535429504103958,-0.06440875928550958
1782811060208305700,5.1503056640625,0.015222119051218033,0.011500175918638705,-0.04142360501736402
1782811060218376700,5.160376708984375,0.008554477855563163,0.0031563451390713452,-0.02158683177754283
1782811060228448500,5.170448486328125,-0.07348316936194896,-0.04196370324343442,-0.03961670172587037
1782811060238519600,5.18051953125,-0.1547013168901205,-0.06178082193471491,-0.0792263891890645
1782811060248590600,5.190590576171875,-0.17643500979244708,-0.07132672198042272,-0.1001926048502326
1782811060258662700,5.20066259765625,-0.09799334124028682,-0.05231098279990255,-0.10323445676416158
1782811060268733700,5.210733642578125,0.008798223483562469,-0.06542736174352466,-0.08791706064492463
1782811060278804700,5.2208046875,0.08089549144506454,-0.0805462396159768,-0.0880775119036436
1782811060288876800,5.230876708984375,0.08387363047301769,-0.09862477101162076,-0.09447320429012179
1782811060298947600,5.240947509765625,0.0971972224265337,-0.06301927768848836,-0.09371274131163954
1782811060309018600,5.2510185546875,0.11885200487375258,-0.05075885798707604,-0.05695800488814711
1782811060319089700,5.261089599609375,0.08339432252347469,-0.036483737462386485,-0.01093421259894967
1782811060329161700,5.27116162109375,0.06991407870352268,-0.013909136756509542,-0.016409429139643907
1782811060339232800,5.281232666015625,0.01802373246848583,-0.042287455305084584,-0.00414484471976757
1782811060349303800,5.2913037109375,0.01040858128964901,-0.072027929052338,-0.036308892352133984
1782811060359375600,5.301375732421875,0.05374503419101238,-0.07944017807021736,-0.03952639309391379
1782811060369446700,5.31144677734375,-0.020865677896142003,-0.06960464742816984,-0.032560061212629075
1782811060379517700,5.321517578125,-0.09265314925611019,-0.06634491497986018,-0.019493074368685484
1782811060389589800,5.33158984375,-0.14670973361432552,-0.06368037194572389,-0.04634747128561139
1782811060399660500,5.34166064453125,-0.12694354139268396,-0.09900690219700335,-0.06550181521922349
1782811060409731600,5.351731689453125,-0.09345686685442924,-0.11072188991010189,-0.10194280951842664
1782811060419802600,5.361802734375,-0.05823065517246723,-0.0850915548954159,-0.05491407797038555
1782811060429874700,5.371874755859375,-0.06792787332236766,-0.052122985947132106,-0.029643589244037864
1782811060439945700,5.38194580078125,-0.046294133663177486,-0.032187209312245245,0.0000773030199110508
1782811060450016800,5.392016845703125,-0.036276597517728805,-0.01729381075873971,-0.004839841246604919
1782811060460088800,5.4020888671875,-0.029551088654994964,0.006525017854571342,-0.000007014262676239014
1782811060470160000,5.412159912109375,-0.029164135164022446,-0.009887187764048577,-0.03777984168753028
1782811060480230700,5.422230712890625,-0.06333236222565174,-0.013573182800412177,-0.04322480922043323
1782811060490302500,5.432302490234375,0.016660627421736716,-0.031066023262590167,-0.05092807707414031
1782811060500373500,5.44237353515625,0.15795359668433664,-0.049615094779431816,-0.056537441388517615
1782811060510444500,5.452444580078125,0.21074410662949083,-0.05459434449672699,0.0020734452731907367
1782811060520515600,5.462515625,0.16948738261163235,-0.017447393885254858,-0.010828268006443978
1782811060530587600,5.472587646484375,0.056579965355992315,-0.01018668216727674,-0.025012422312051058
1782811060540658700,5.48265869140625,-0.028999884513020515,-0.025776611617580054,-0.05555953626707196
1782811060550729700,5.492729736328125,0.00656301177740097,-0.05449862903729081,-0.06254910289347171
1782811060560801800,5.5028017578125,0.08377484627366065,-0.05622326087281108,-0.029818653549998998
1782811060570872800,5.512872802734375,0.1922591863900423,-0.0595367693349719,0.01917246411219239
1782811060580943600,5.522943603515625,0.3033253596931696,-0.05960925004929304,0.0540381719186902
1782811060591014700,5.5330146484375,0.30991058330237864,-0.029928908991441128,0.042956952064484355
1782811060601086700,5.543086669921875,0.188768421664834,0.0012329758610576391,0.04514131036624312
1782811060611157800,5.55315771484375,-0.0070376435518264766,0.01703391771353781,0.043495004463940855
1782811060621228800,5.563228759765625,-0.13528876041173934,-0.00990976492203772,-0.01186111818552017
1782811060631300600,5.573300537109375,-0.19801731152534482,-0.03516695577539503,-0.07235080433115362
1782811060641371600,5.58337158203125,-0.23113632179498672,-0.06643376230709254,-0.08200316042602061
1782811060651442700,5.593442626953125,-0.2834288190901279,-0.07064787287078797,-0.10423924989253282
1782811060661514800,5.6035146484375,-0.1964420250326395,-0.0807879394173622,-0.08219400682300329
1782811060671585800,5.613585693359375,-0.076849430924654,-0.09692030518129467,-0.09580781389474868
1782811060681656600,5.623656494140625,0.01887421181797981,-0.11912526885718107,-0.07546893635168671
1782811060691727600,5.6337275390625,0.13753390899002552,-0.11821019983887672,-0.052033115706592796
1782811060701799700,5.643799560546875,0.21259996362924574,-0.09199936152249574,0.011635054344683884
1782811060711870700,5.65387060546875,0.21188801596760748,-0.06900580475218594,0.03302811711579561
1782811060721941800,5.663941650390625,0.18582886108160018,-0.04627659800648689,0.01746624471619725
1782811060732013800,5.674013916015625,0.12927169207930564,-0.03346570481546223,-0.003859598037600517
1782811060742084900,5.6840849609375,-0.005171849679946899,-0.011302461389452218,0.004539104734361171
1782811060752156000,5.694156005859375,-0.09669219551384449,-0.0050993689656257625,-0.020546090552955865
1782811060762227700,5.704227783203125,-0.07442132699489593,-0.07108845624513924,-0.06500102609023452
1782811060772298500,5.714298583984375,-0.05135784679353237,-0.12568550415560603,-0.05095291925445199
1782811060782369500,5.72436962890625,-0.0662701692432165,-0.11093911285735666,-0.053850540392100806
1782811060792440600,5.734440673828125,-0.07475158186256885,-0.1261221420072019,-0.05081979439407587
1782811060802512600,5.7445126953125,-0.0017056348741054533,-0.1450076789367944,-0.05104235110357404
1782811060812583700,5.754583740234375,0.040946342894434926,-0.13878602794297037,-0.04456789439246058
1782811060822654700,5.76465478515625,-0.0029606033712625502,-0.1011316392660141,0.003159194683283567
1782811060832726800,5.774726806640625,0.010253098466992377,-0.09309921252317727,0.015371318263560533
1782811060842797800,5.7847978515625,0.06215571966171264,-0.07756400893479586,0.026382833882421252
1782811060852868900,5.794868896484375,0.13392390179932118,-0.07258432082608342,0.06620923283621669
1782811060862940700,5.804940673828125,0.30392741723954675,-0.04854242404662072,0.1280110244937241
1782811060873011700,5.81501171875,0.20040332987904547,-0.052967400882020586,0.04535349181219935
1782811060883082800,5.825082763671875,0.5830407112181186,-0.09990991545133292,0.048030602066963905
1782811060893153800,5.83515380859375,-0.09241817145645619,-0.09907572964951396,-0.02502162853181362
1782811060903225600,5.8452255859375,-0.6237058990836143,-0.18569478637315331,-0.3278283711783588
1782811060913296600,5.855296630859375,-0.8126461701840162,-0.21236710472144185,-0.3954897025190294
1782811060923367700,5.86536767578125,-0.6817313870728016,-0.30910591585598884,-0.4019512997485697
1782811060933439700,5.875439697265625,-0.5638228005290031,-0.28180326371490955,-0.35205431928783654
1782811060943510800,5.8855107421875,-0.4001829749017954,-0.1279636782206595,-0.1654230557821691
1782811060953581800,5.895581787109375,0.028379706788063046,-0.009287687500938772,0.065096157027781
1782811060963654000,5.90565380859375,0.42250528134703635,0.01001541725359857,0.20283099541738628
1782811060973725000,5.915724853515625,0.4506324746787548,-0.030417057834565636,0.20969854309931396
