time,seconds_elapsed,z,y,x
1782663480784069400,0.0700693359375,-0.017193126863241193,-0.03897412493943702,0.0599302484648535
1782663480794139100,0.08013916015625,-0.024376316365599632,-0.047541553608118556,0.047366767863370476
1782663480804208400,0.09020849609375,0.006149754801392555,-0.040750614826357924,0.059256673751957714
1782663480814278100,0.100278076171875,0.004206219518184662,-0.03603117595587391,0.08645474214055575
1782663480824348200,0.11034814453125,0.004655132329463958,-0.052859186700615096,0.06195998702705838
1782663480834417200,0.120417236328125,-0.004922843354940414,-0.04264976297856774,0.04642412585155107
1782663480844487200,0.130487060546875,0.001959317374229431,-0.04217319497538265,0.07090953774796799
1782663480854557200,0.14055712890625,-0.004476268631219864,-0.0437193375719944,0.06858946076994761
1782663480864626200,0.150626220703125,-0.020486907711625098,-0.0298466055694269,0.052309905087668446
1782663480874696200,0.1606962890625,-0.010911854636669159,-0.044361165439756586,0.06958190587339923
1782663480884765200,0.17076513671875,-0.006722586253285407,-0.048050064819259566,0.06572779686166905
1782663480894835200,0.180835205078125,0.0010603227078914642,-0.033278982037748206,0.05024797672233544
1782663480904905200,0.1909052734375,0.008988777619600296,-0.037550955701945346,0.03922217228321824
1782663480914974200,0.20097412109375,-0.011363690057396889,-0.033421596245677206,0.029665068140195216
1782663480925044200,0.211044189453125,0.0049468087524175645,-0.04026862629596144,0.03814280923142796
1782663480935114200,0.2211142578125,0.008986439532041549,-0.040368113748217,0.054089719442836935
1782663480945183200,0.231183349609375,-0.002835515686869621,-0.03593353796740994,0.0516327410450438
1782663480955253200,0.241253173828125,-0.0040332010388374325,-0.04152042558849789,0.0415396965445485
1782663480965322200,0.251322265625,-0.004932195705175399,-0.03571599079316947,0.05265234358347952
1782663480975392000,0.26139208984375,0.010778583645820617,-0.03446018204579595,0.057629099949588994
1782663480985462300,0.271462158203125,-0.006879822641611099,-0.03378141056797467,0.03365361946984194
1782663480995531000,0.281531005859375,-0.011669395005702972,-0.02612918334833812,0.05317868727883324
1782663481005601300,0.291601318359375,-0.004039630779623985,-0.018622141319629734,0.04946553024090826
1782663481015671300,0.30167138671875,-0.01077449199259281,-0.01236709494628012,0.031527430229261515
1782663481025740000,0.311739990234375,-0.004191606470942497,-0.032619970139744686,0.04764022364304401
1782663481035810300,0.321810302734375,0.003438742277026176,-0.03270606838746462,0.04587594021714758
1782663481045879000,0.331879150390625,-0.007934300130605696,-0.026747895201994106,0.05648789402521215
1782663481055949300,0.34194921875,-0.002100187149643898,-0.03825666541904211,0.04036620948549825
1782663481066019300,0.352019287109375,-0.003599485796689987,-0.04114092018504161,0.05576480391505174
1782663481076088000,0.362088134765625,-0.008687748846411705,-0.0343039457378909,0.053399654819443816
1782663481086158300,0.372158447265625,-0.014224924707412719,-0.03470358061392326,0.0405574440415483
1782663481096227000,0.38222705078125,-0.020808979272842407,-0.03922768870855216,0.04431203363498207
1782663481106297300,0.39229736328125,-0.01213175182044506,-0.04433896274110302,0.046560707610915415
1782663481116367000,0.4023671875,-0.0013595979154109954,-0.03990271102644037,0.041414216134510934
1782663481126436400,0.412436279296875,-0.007945406046509743,-0.0289354866404552,0.03303486880027922
1782663481136506400,0.42250634765625,-0.007198971593379974,-0.039149330809293316,0.013113699504412943
1782663481146576100,0.432576171875,-0.013335866913199424,-0.026018841141927984,0.03627418636493385
1782663481156645400,0.442645263671875,-0.005256020832061767,-0.026275026126392185,0.04484683463142719
1782663481166715100,0.452715087890625,-0.012590016981959343,-0.02269059633493889,0.050279568303842094
1782663481176784400,0.462784423828125,-0.0015185878694057465,-0.02888420397778973,0.02529058166630566
1782663481186854100,0.472854248046875,-0.008105565044283867,-0.028940121716377325,0.03852404308437835
1782663481196924200,0.482924072265625,0.0026665888607501982,-0.026238854267890563,0.04781501852094661
1782663481206993200,0.4929931640625,-0.01963116766512394,-0.03218915924073663,0.0450026051484514
1782663481217063200,0.503063232421875,0.0023638065218925474,-0.017857910914905368,0.04914369614170864
1782663481227133200,0.51313330078125,-0.008560907596349716,-0.027359606492705642,0.030824232129659502
1782663481237202200,0.5232021484375,-0.01230301673412323,-0.03322057551455218,0.038356299001770094
1782663481247272200,0.533272216796875,-0.013051789274811744,-0.039197983123455196,0.03939096667859703
1782663481257341200,0.543341064453125,-0.015447744500637054,-0.02325378774222918,0.04821278110030107
1782663481267411200,0.5534111328125,-0.000036240357160568236,-0.012520527375745586,0.04864588898767251
1782663481277481200,0.563481201171875,0.00026128128468990325,-0.022704209301760418,0.04736979550409596
1782663481287550200,0.57355029296875,-0.011412205374240874,-0.02707043712066952,0.04477932691974565
1782663481297620200,0.5836201171875,-0.002583586752414703,-0.02871778420258779,0.02939953993865056
1782663481307690200,0.593690185546875,-0.012611059769988059,-0.027660283639444967,0.05357523514863569
1782663481317759200,0.60375927734375,0.0027998598515987395,-0.02781583952733781,0.03733289478776278
1782663481327829200,0.613829345703125,-0.005132686713337898,-0.022899005788075737,0.012450522887945407
1782663481337898200,0.623898193359375,-0.0022901567637920377,-0.022041968833631836,0.04575295772487297
1782663481347968000,0.633968017578125,-0.01695405741035938,-0.025265374159812927,0.04287148857100401
1782663481358038300,0.644038330078125,-0.012765373548865318,-0.016259768702997824,0.055939402430132026
1782663481368107300,0.654107177734375,0.009977788656949996,-0.02811366256328765,0.040497037357511
1782663481378177300,0.66417724609375,0.007432195827364921,-0.0315649583612103,0.042204160935804244
1782663481388247300,0.674247314453125,-0.01965337949693203,-0.021498568972200153,0.0387293152989354
1782663481398316000,0.68431591796875,0.00024608371555805207,-0.023473654737719334,0.04433609493058174
1782663481408386300,0.69438623046875,-0.0025976152777671814,-0.024245671156677417,0.04604093978682067
1782663481418455000,0.704455078125,-0.008285013264417648,-0.0237921598020941,0.04116024137344211
1782663481428525300,0.714525390625,-0.01591711557805538,-0.01220751590381842,0.034283715800615025
1782663481438595300,0.72459521484375,-0.012326397609710693,-0.0167161250352161,0.03401070754551329
1782663481448664000,0.7346640625,-0.0058937342137098305,-0.0395548154707998,0.03463762097193394
1782663481458734300,0.744734375,-0.0000602057546377182,-0.020224201654829084,0.029285991995001676
1782663481468803800,0.754803955078125,-0.0005108721315860748,-0.030007486086408606,0.04281240162779577
1782663481478873000,0.764873046875,-0.007843699237704277,-0.028865316614229232,0.02569452739127446
1782663481488942800,0.77494287109375,-0.0026081366717815397,-0.017264520732173695,0.01774031698380131
1782663481499012000,0.78501220703125,-0.013831541475653648,-0.018357462501456027,0.031676969651610126
1782663481509081900,0.795081787109375,-0.010689736318588257,-0.02412188038022723,0.01202043464978924
1782663481519151900,0.80515185546875,-0.008446925827860831,-0.012263648271537385,0.022737600114708763
1782663481529221000,0.81522119140625,-0.009945639953017234,-0.00924311770685017,0.031818117988237644
1782663481539291000,0.825290771484375,-0.0005208090037107468,-0.030183724002726373,0.02186704837485449
1782663481549361000,0.83536083984375,-0.018629297146201134,-0.015324424081644973,0.0312643702627276
1782663481559430000,0.845429931640625,-0.012496493479609488,-0.024004870971012858,0.03616067495390307
1782663481569500000,0.8555,-0.001723170530796051,-0.023936637173546476,0.008203164216841105
1782663481579569000,0.86556884765625,0.005907762739062309,-0.025811153207998722,0.016930151378386653
1782663481589639000,0.875638916015625,-0.0063636898130178445,-0.02012814826867543,0.017295934217167085
1782663481599709000,0.885708984375,-0.005316226586699485,-0.025629732226487248,0.022523624003888108
1782663481609778000,0.89577783203125,0.0012666589349508285,-0.023887112643127328,0.008609909824494388
1782663481619848000,0.905847900390625,-0.013847908088564872,-0.0057082261455478145,0.023916162924387026
1782663481629918000,0.91591796875,-0.013400164321064948,-0.016086951153050175,0.02192318530915072
1782663481639987000,0.925987060546875,-0.011007716226577757,-0.026673715720931065,0.03806632134555839
1782663481650057000,0.936056884765625,-0.0027788170635700223,-0.02053167843511328,0.02401203364745015
1782663481660126000,0.9461259765625,-0.02088555164039135,-0.024024210425722413,0.023367824309645218
1782663481670196000,0.956196044921875,-0.014601941326260566,-0.023313235445041207,0.03095692316519562
1782663481680266000,0.966265869140625,0.004251812225580215,-0.01838761104454752,0.01995872368563432
1782663481690335000,0.9763349609375,-0.013407763105630873,-0.0255898431740934,0.02781376630126033
1782663481700405000,0.986405029296875,-0.010714286237955093,-0.01767641230158042,0.0391619071630761
1782663481710475000,0.99647509765625,-0.01146422782242298,-0.026852899079583582,0.028810216292971744
1782663481720543700,1.006543701171875,-0.008174538627266883,-0.019544288532692005,0.03733617359023774
1782663481730614000,1.016614013671875,0.004992401459813118,-0.013567625275882891,0.021207639184629076
1782663481740682800,1.026682861328125,-0.031520342901349065,-0.015936875157873145,0.013458429280365817
1782663481750753000,1.0367529296875,-0.021647183662652968,-0.017848937590583227,0.027141849255911073
1782663481760823000,1.046822998046875,-0.006985036581754684,-0.014212444251752457,0.013822796480194665
1782663481770892000,1.05689208984375,-0.011774608945846556,-0.024971345949568784,0.012928393507294822
1782663481780962000,1.066962158203125,0.0012432780593633651,-0.010834620115417056,0.012068586923740804
1782663481791030800,1.07703076171875,-0.0005535422295331955,-0.017305711259087548,0.014193002049054484
1782663481801101000,1.08710107421875,-0.0014531214177608488,-0.01937949445899576,0.02918588577152695
1782663481811171000,1.097171142578125,-0.0111801501840353,-0.02201111247106455,0.024061263633635824
1782663481821240000,1.107239990234375,-0.012975801429152488,-0.00691625479501672,0.013241282823280198
1782663481831310000,1.11731005859375,-0.007739069819450378,-0.015856019340851343,0.022909339952422305
1782663481841379800,1.1273798828125,0.0049801265001296995,-0.010053593839518725,0.012673876465175999
1782663481851449000,1.137448974609375,-0.012978139516711234,-0.023333086356404235,0.021512104307208207
1782663481861518800,1.147518798828125,0.012608721682429313,-0.0045050746005959805,0.029091855379100886
1782663481871588000,1.157588134765625,-0.006696282768249511,-0.012658917499706148,0.015434781129431212
1782663481881657900,1.167657958984375,-0.006696282768249511,-0.01918335996554233,0.01354317696286016
1782663481891728000,1.177727783203125,0.0004845686465501785,-0.019649593804380857,0.015118823073524981
1782663481901797000,1.187797119140625,-0.0020586860954761505,-0.029111688024154862,0.012886464336508651
1782663481911867000,1.197866943359375,0.011108838513493537,-0.011293972122319973,0.018375177396304204
1782663481921937000,1.20793701171875,-0.010289923346042633,-0.018754088003071955,0.03433706027291482
1782663481932006000,1.218005859375,-0.0031079028874635693,-0.015817518527945502,0.0231492176894797
1782663481942076000,1.228075927734375,-0.0020610241830348965,-0.009194090933352708,0.013171137913229176
1782663481952145000,1.238144775390625,0.010956862822175025,-0.014501490326202474,0.024402208858681843
1782663481962215000,1.24821484375,-0.00026771102547645565,-0.010213227680907584,0.0078035418988962185
1782663481972285000,1.258284912109375,0.007212415596842765,-0.013652992871240712,0.017109628139628328
1782663481982354000,1.26835400390625,-0.009248889860510826,-0.014894439733121543,0.020751805725507437
1782663481992424000,1.278423828125,-0.011643091520667075,-0.011562701494526118,0.025598291342030278
1782663482002493000,1.288492919921875,-0.010746434941887855,-0.016394012374803424,0.013182334019034169
1782663482012563000,1.29856298828125,-0.008653262054920195,-0.007360788258700631,0.02671732196721714
1782663482022633000,1.308633056640625,-0.003118424281477928,-0.01958292177633848,0.018592154890031087
1782663482032702000,1.318701904296875,-0.0028209026396274566,-0.020493314619525336,0.026571209761104546
1782663482042772000,1.32877197265625,-0.00790975021123886,-0.00991512608374469,0.01995374839970609
1782663482052842000,1.338842041015625,-0.007611644047498703,-0.02350806846397463,0.019223317516595124
1782663482062911000,1.348910888671875,-0.006115852531790733,-0.009426086758053861,0.01673082598907058
1782663482072981000,1.35898095703125,-0.006117021575570106,-0.016025535255437717,0.013780733737023546
1782663482083050000,1.369050048828125,-0.007015431720018387,-0.008135964749124832,0.027060573313781058
1782663482093119700,1.37911962890625,-0.009859715235233307,-0.0006834704858250916,0.011587063042580848
1782663482103190000,1.38918994140625,0.0027086744368076325,-0.014493781943782232,-0.003907710354001028
1782663482113258800,1.3992587890625,-0.020635960793495178,-0.010496761896600947,0.001837644347985042
1782663482123329000,1.4093291015625,-0.01255611471235752,-0.010105703052668832,0.005107428974495269
1782663482133399000,1.41939892578125,-0.00028700024783611294,-0.015548958119098096,-0.000606232539640041
1782663482143467800,1.4294677734375,-0.00986263784468174,-0.008515365121304058,0.017338170490274203
1782663482153538000,1.4395380859375,0.009888941329717635,-0.01763898920090869,0.020976424244639927
1782663482163606800,1.449606689453125,0.008242343166470528,-0.013143166485847905,0.012828636626980732
1782663482173677000,1.459677001953125,0.0004623568147420883,-0.007098465794394724,0.013346714817488099
1782663482183747000,1.4697470703125,-0.002232289096713066,-0.0028980092967161907,0.03734392535514198
1782663482193816000,1.479816162109375,-0.010462941825389862,0.0008680880714207887,0.018088118924607988
1782663482203886000,1.489885986328125,0.007941898915171624,-0.014332937959418632,0.003074711862270487
1782663482213955800,1.499955810546875,0.0037520460098981853,-0.008887714698188937,0.006093913552974117
1782663482224025000,1.510025146484375,-0.002682370951771736,0.0050342495738528665,0.018170727165654533
1782663482234094800,1.5200947265625,-0.020040917509794233,-0.011598060502274892,0.011555956659908407
1782663482244164000,1.5301640625,-0.018396072912216184,-0.011899883859907276,0.02607129284837283
1782663482254233900,1.54023388671875,-0.00971709189414978,0.00007044402086175978,0.016645445835625286
1782663482264303900,1.550303955078125,-0.005079495221376419,-0.011653265854809433,0.03422782317820238
1782663482274373000,1.560373046875,-0.015554127484560011,-0.018423002018337138,0.007318078203202458
1782663482284443000,1.57044287109375,0.002851297777891159,-0.011188749049021863,0.005815791872981936
1782663482294513000,1.580512939453125,0.0022515783190727233,-0.015398877557343803,0.00776899003367871
1782663482304582000,1.590581787109375,0.0032990415453910825,-0.018095811324007807,0.010058354496315586
1782663482314652000,1.60065185546875,-0.006129296535253524,-0.006303972682147286,0.028648552607989403
1782663482324721000,1.610720947265625,0.005392214432358741,-0.0205094529035734,0.02512529896884225
1782663482334791000,1.620791015625,-0.012863573226332664,-0.014206325038219801,0.023631130871351342
1782663482344861000,1.63086083984375,-0.00867313579916954,-0.011464862576662562,0.011059025147062492
1782663482354930000,1.640929931640625,-0.011068506503105162,-0.007198798063443973,0.020851621971325947
1782663482365000000,1.651,0.0004524199426174164,-0.02501826296437066,0.028563721585460007
1782663482375070000,1.661070068359375,-0.011519757401943206,-0.015119466960919089,0.02292704457247164
1782663482385139000,1.671138916015625,-0.022145780834555626,-0.008381623772997409,0.012562660900864284
1782663482395209000,1.681208984375,-0.0019447043269872665,-0.019188858124567193,0.006550965146580711
1782663482405278000,1.69127783203125,-0.004489712634682655,-0.01785314340824261,0.00665908228821936
1782663482415348000,1.701347900390625,-0.013020809614658355,-0.011299620978394523,0.024798957657883872
1782663482425418000,1.71141796875,-0.016463059023022652,-0.016517419558763503,0.006529309295554412
1782663482435487000,1.721487060546875,-0.007186112111806869,0.0034335089794825763,0.011025354631256777
1782663482445557000,1.731556884765625,-0.01332300743162632,0.0007850037646945565,0.013605858944018836
1782663482455627000,1.741626953125,-0.00015606734454631804,-0.0070395889137405895,0.002678688007208984
1782663482465695700,1.75169580078125,-0.0019517185896635054,-0.017100297480635344,0.01543464070718037
1782663482475766000,1.76176611328125,0.0010410334855318068,-0.00782206736120861,0.011949196044483686
1782663482485834800,1.771834716796875,-0.008685410758852959,-0.009749208632041699,0.01611421361931134
1782663482495905000,1.781905029296875,-0.015718962657451627,-0.007886191239138134,0.010147542033554054
1782663482505975000,1.79197509765625,-0.009585574468970298,-0.0035904394071316344,0.01665931224748492
1782663482516043800,1.802043701171875,-0.01961187844276428,0.003827837492735125,0.0259664442344103
1782663482526114000,1.812114013671875,-0.008539864808320998,0.005251860680175013,0.025191265460697467
1782663482536182800,1.822182861328125,-0.013028992921113968,-0.005670871543535031,0.0023275090825161894
1782663482546253000,1.832253173828125,-0.011831307569146155,-0.0193623880605679,0.007863232771947514
1782663482556323000,1.842322998046875,-0.0031529110729694365,-0.0041450045499717815,0.014827982334210536
1782663482566392000,1.85239208984375,-0.016022914040088654,-0.016155399579647928,0.019294117730483413
1782663482576462000,1.862462158203125,-0.010336685097217559,-0.008237913586525246,-0.0019388362752040848
1782663482586531800,1.87253173828125,-0.005847556984424591,-0.01811473065360915,0.014057760580116882
1782663482596601000,1.88260107421875,-0.004202127864956855,0.00026650544907897707,0.020124058898736256
1782663482606670800,1.8926708984375,-0.004202127864956855,-0.013272551319445483,0.015195605503628029
1782663482616740000,1.902739990234375,-0.007194879940152167,-0.003545928978547454,0.024961708188254852
1782663482626809900,1.912809814453125,-0.01063771387040615,-0.004320000357273966,0.012685526945418678
1782663482636880000,1.9228798828125,-0.008543371939659119,-0.00916843133571092,0.0024420023076585492
1782663482646949000,1.93294921875,0.003426467317342758,-0.003947381352330558,0.005407841259753331
1782663482657019000,1.943018798828125,-0.000015197569131851195,-0.006941708896681666,0.0257844935299363
1782663482667089000,1.9530888671875,-0.01617722781896591,-0.0033334689713781698,0.010165376801055389
1782663482677158000,1.963157958984375,0.002975216418504715,-0.01512001495019067,0.0038453046507667746
1782663482687228000,1.973227783203125,-0.0015144962161779403,-0.019102988205710426,0.008832461396593135
1782663482697297000,1.983296875,-0.014534136787056923,-0.018974324891320428,0.008002960903046186
1782663482707367000,1.993366943359375,-0.00959726490676403,-0.0003012388357426971,-0.0014396933973184786
1782663482717437000,2.00343701171875,-0.009448211824893952,-0.00009199826554395257,0.0060318389265914445
1782663482727506000,2.013505859375,-0.012739654585719108,-0.011705959589849225,0.013990150120446923
1782663482737576000,2.023575927734375,-0.010195815321803092,-0.010078029594453983,0.011750650398235302
1782663482747646000,2.03364599609375,-0.01229249534010887,-0.010344178850506432,0.013764362557535059
1782663482757715000,2.04371484375,-0.0033154081583023068,-0.010514425417454914,0.008763971870800014
1782663482767785000,2.053784912109375,-0.001371288353204727,-0.01901708175423555,0.017071847704285756
1782663482777854000,2.06385400390625,0.008355155891180037,0.00017426058836281298,0.0017414162902510725
1782663482787924000,2.073924072265625,-0.011397007805109024,-0.017818674883060156,0.02521648895021062
1782663482797994000,2.083993896484375,-0.007505845585465431,-0.01681996443560347,0.028937648914789314
1782663482808063000,2.09406298828125,-0.000024549919366836548,-0.008366051744529977,0.03059585988401668
1782663482818133000,2.104133056640625,-0.005412672698497772,-0.013601860905624926,0.006897721341194119
1782663482828202000,2.114201904296875,-0.0004752162963151931,-0.0060875032201409334,0.008321694296284113
1782663482838271700,2.124271728515625,0.0001233341187238693,-0.018185343637829646,0.004875652345502749
1782663482848342000,2.134342041015625,-0.014093407282233237,-0.00761928849783726,-0.00003560560292098671
1782663482858410800,2.14441064453125,-0.0001771101325750351,-0.006719828040618449,0.004675138504453934
1782663482868481000,2.15448095703125,-0.0006277765095233917,-0.006359223700454458,0.006903440979216247
1782663482878551000,2.164551025390625,-0.009607201778888701,-0.0034535288542043414,0.005534705342701636
1782663482888619800,2.174619873046875,-0.006616203269362449,0.007793439488345756,0.015926910886284895
1782663482898690000,2.18468994140625,-0.011106500425934791,-0.0006387636944185942,0.020569626692170277
1782663482908758800,2.1947587890625,-0.022179683104157445,0.0045898485409095885,0.008519468190975021
1782663482918829000,2.2048291015625,-0.0004822305589914322,-0.004766136689577251,-0.0008611126246512867
1782663482928899000,2.214899169921875,-0.010657587614655495,-0.010153665813663974,-0.005057468335947488
1782663482938968000,2.224968017578125,-0.0070662851244211195,-0.008866402482101693,-0.0065394162726821374
1782663482949038000,2.2350380859375,-0.014846855998039244,-0.020835383222578094,-0.006103655203920789
1782663482959106800,2.24510693359375,-0.002127075156569481,-0.009080574955744668,0.0019365575531497597
1782663482969177000,2.255177001953125,-0.0060170683324337,0.003695301720825955,0.009069405107758938
1782663482979246800,2.265246826171875,-0.012003741526603698,-0.0037185821317136285,0.011924956652370746
1782663482989316000,2.275316162109375,-0.010058452677726745,-0.008923402499500662,0.007833581985777709
1782663482999385900,2.2853857421875,-0.002876432219147682,-0.002836282871849835,0.0012204817056655883
1782663483009455900,2.295455810546875,-0.007515197935700416,-0.007001028735330328,0.02304253102816874
1782663483019525000,2.305525146484375,-0.01350070208609104,-0.02210639867223799,0.01580674597218167
1782663483029595000,2.315594970703125,-0.001530278307199478,-0.0072129818524233995,0.016781043497589417
1782663483039664000,2.3256640625,-0.014400281274318694,0.0037467396471183743,0.003811107836931478
1782663483049734000,2.33573388671875,-0.013951952984929085,-0.015219388238014652,0.0032383814163156784
1782663483059804000,2.345803955078125,-0.006769932526350021,0.00709680812684819,0.009372927232133224
1782663483069873000,2.355872802734375,0.00011105915904045104,0.00004848791738040745,-0.003484750542952679
1782663483079943000,2.36594287109375,-0.014254150801897049,-0.012651346114603801,0.014361709679465274
1782663483090012000,2.376011962890625,-0.010962123519182205,-0.007733270266326144,0.0037946818585158325
1782663483100082000,2.38608203125,-0.0036316345006227493,-0.0026053601928055286,0.0022474181671859697
1782663483110152000,2.39615185546875,-0.010367080235481262,-0.006773695386014879,0.016253729404567274
1782663483120221000,2.406220947265625,-0.008721651116013526,-0.012700528151728212,0.011751191537640988
1782663483130291000,2.416291015625,0.012825579303503035,-0.008725386576214805,0.0028492428181227294
1782663483140361000,2.42636083984375,-0.005728899040818214,0.0004781937046907842,-0.006412757685710676
1782663483150430000,2.436429931640625,0.008636310920119286,-0.00278052496346645,0.004813754673989023
1782663483160500000,2.4465,0.008635141876339911,-0.005730250747688115,0.011394877496815751
1782663483170569000,2.45656884765625,-0.0046820203363895415,-0.003975497768539935,0.006228692655963822
1782663483180639000,2.466638916015625,-0.015455927807092667,0.0007874149174895137,0.016942472003842704
1782663483190709000,2.476708984375,-0.015755203014612196,0.001073885442363098,0.009975158308446407
1782663483200778000,2.486778076171875,-0.015156652599573134,0.00006339322556741535,0.005655050636606756
1782663483210847700,2.49684765625,-0.0027367314875125885,0.0017359112813603132,0.02462718128755223
1782663483220918000,2.50691796875,-0.006029927814006805,-0.003492956682294607,0.007815190095850267
1782663483230986800,2.51698681640625,-0.006629062750935554,-0.010912658354267477,0.007752100547670852
1782663483241057000,2.52705712890625,0.008185060021281242,-0.0013033376835286617,0.007366683709947392
1782663483251126000,2.5371259765625,0.010130348870158195,-0.0022977829478215426,-0.00396774143705843
1782663483261195800,2.54719580078125,-0.010220949763059616,-0.009255082139279693,0.011485795766836964
1782663483271266000,2.55726611328125,-0.027279636591672894,-0.004946479958854616,0.0010214885348454117
1782663483281334800,2.567334716796875,-0.011418635115027427,-0.0029352862669155,-0.0002534176386427134
1782663483291405000,2.577405029296875,0.0023468553870916366,0.0035824981292709706,0.013286433714325538
1782663483301473800,2.587473876953125,-0.008875380373001097,0.00879609545855783,0.016184232948487625
1782663483311544000,2.5975439453125,-0.008875380373001097,0.0011419000441208482,-0.0020752764706732704
1782663483321614000,2.607614013671875,0.003245265531539917,0.00029299159720540046,0.009512497816316317
1782663483331682800,2.617682861328125,-0.0046855274677276605,-0.010197879414726049,0.011453695011965465
1782663483341753000,2.627753173828125,0.004292728757858276,0.004286929204734042,0.00470642869186122
1782663483351822800,2.63782275390625,0.007584756040573119,-0.02214031007499434,0.008490100532595534
1782663483361892000,2.64789208984375,-0.02369008766710758,-0.015945519688632337,0.020041967822564764
1782663483371962000,2.657962158203125,-0.003338204512000084,-0.0036957218459341672,0.0039115451372577804
1782663483382030800,2.66803076171875,0.0002530979782342911,0.007242125748516991,0.025190699205116834
1782663483392101000,2.67810107421875,0.011774608945846556,0.0014968235621694475,0.02139957927686628
1782663483402171000,2.6881708984375,-0.013216039925813675,-0.005886016698135063,0.014328857722633983
1782663483412240100,2.698240234375,-0.004086977052688599,0.004654346878174692,0.004136113424040377
1782663483422310000,2.708309814453125,0.012372574838995933,-0.008069817877467722,0.009163622729852794
1782663483432379000,2.71837890625,-0.005734159737825394,0.0014596059574745594,0.019364815196383278
1782663483442449000,2.728448974609375,-0.008129530441761016,-0.0010976225109770893,0.014895058504340704
1782663483452519000,2.738518798828125,-0.01142155772447586,-0.0027367040880490094,0.013153939041611738
1782663483462588000,2.748587890625,0.01147299565076828,-0.018328816362284124,0.018170773973071482
1782663483472658400,2.758658447265625,-0.023393150547146795,-0.008554770116508006,0.006608424104994628
1782663483482728200,2.768728271484375,-0.010226210460066795,-0.01485853730267845,0.006818568857491482
1782663483492797400,2.77879736328125,-0.003940846580266952,-0.002234946844680235,0.014441033409815281
1782663483502867200,2.7888671875,-0.01052490114569664,-0.01570776541000232,0.014197011503891552
1782663483512936400,2.7989365234375,-0.0004997662156820296,0.009879369783774017,0.005067932647746056
1782663483523006500,2.80900634765625,-0.0004997662156820296,-0.002693449468212202,0.010382268671458587
1782663483533076200,2.819076171875,-0.014267010283470154,0.000798265105066821,0.0116699681111495
1782663483543145500,2.8291455078125,-0.0061883332461118695,-0.0053484940216410905,0.008504576582519803
1782663483553215200,2.83921533203125,0.00024549919366836546,-0.0096173213141039,0.01082216249264311
1782663483563284500,2.849284423828125,0.001142155772447586,-0.0142462323569227,0.007192555552325211
1782663483573354200,2.859354248046875,0.00009469254612922667,-0.0004993734900373965,0.00895849207919091
1782663483583424300,2.86942431640625,0.002638531810045242,0.0018990750869736074,0.007792827566992491
1782663483593493200,2.8794931640625,0.0029378070175647736,0.00320238537103869,0.00039270509503548965
1782663483603563300,2.889563232421875,-0.00005436053574085235,-0.011223167341854422,0.020122643259784672
1782663483613633300,2.89963330078125,0.004285129973292351,0.005834724902315065,0.011112742937053553
1782663483623702300,2.909702392578125,-0.012325813087821005,-0.0031339689104817807,0.01141618057974847
1782663483633772300,2.919772216796875,-0.0030488661766052243,0.005153318509412929,0.002672751456766855
1782663483643841300,2.92984130859375,0.006678162589669227,0.011214673508144915,0.01295362156338524
1782663483653911300,2.939911376953125,0.004133154281973838,-0.010947766200266778,0.016548225688980893
1782663483663981300,2.949981201171875,-0.016068506747484206,-0.015526965482998638,0.017847334721963853
1782663483674050300,2.96005029296875,-0.013524082961678504,-0.0014472853320185095,0.01700228503283579
1782663483684120300,2.970120361328125,-0.027291327029466628,-0.011702941082278265,0.01955257230384741
1782663483694189300,2.980189208984375,-0.015170096603035926,-0.01176098227929324,0.010174183445307426
1782663483704259300,2.99025927734375,0.00024140754044055937,-0.004020515087200328,0.0115496821827488
1782663483714329300,3.000329345703125,0.0026350246787071228,0.003015977687155828,0.0012615306686842814
1782663483724398300,3.0103984375,0.007124152791500091,-0.012004024654394015,0.017725468757830095
1782663483734468000,3.020468017578125,-0.012478373301029204,-0.0010516462110914289,0.020325919880077706
1782663483744538400,3.030538330078125,-0.01906301238834858,0.004243674584897235,0.01169190366503317
1782663483754607400,3.040607421875,-0.011282441514730453,-0.012220005492633208,0.00781682036393322
1782663483764677400,3.050677490234375,-0.011432663640379905,-0.004851321621844545,0.005219072655425407
1782663483774746400,3.060746337890625,0.0006868132203817367,-0.009487676185602322,0.018483728362782857
1782663483784816400,3.07081640625,-0.016222820526361464,-0.003437938559427857,0.026659134639729742
1782663483794886400,3.080886474609375,-0.004851531684398651,0.0028185462857596576,0.011418103108776266
1782663483804955100,3.090955078125,-0.03208557556867599,-0.0072098765798844396,-0.007440536680736113
1782663483815025400,3.101025390625,-0.013829203388094902,-0.011190708110667764,0.01616168547325069
1782663483825094100,3.11109423828125,-0.007842530193924904,-0.008965515475021675,0.01202700595447095
1782663483835164400,3.121164306640625,-0.013379706054925918,-0.002588299460150301,-0.0056281900291447525
1782663483845234400,3.131234375,-0.02205927159488201,0.0005065886821132153,0.00624316642259946
1782663483855303200,3.14130322265625,-0.010836451312899589,0.0030487657119054345,0.0008539659312344156
1782663483865373400,3.15137353515625,0.003828618377447128,-0.0015567735884804278,0.010392931629368104
1782663483875443200,3.161443115234375,-0.010985504394769668,-0.008366828062664717,0.008824794113368261
1782663483885512400,3.171512451171875,-0.004551087433099747,-0.0071482643194496626,0.006397608065640088
1782663483895582500,3.18158251953125,-0.008891162464022636,0.003856976822251454,0.008316351400886195
1782663483905651500,3.1916513671875,-0.01398001003563404,0.0012948529829736799,-0.003125233048177324
1782663483915721500,3.201721435546875,-0.018618775752186775,0.005907324347645044,0.005342765250464435
1782663483925791200,3.211791259765625,-0.0008107318609952926,-0.011908482724893837,0.0012525596276507713
1782663483935860500,3.221860595703125,-0.0038040684580802914,-0.00020446393038146197,0.002862974515953101
1782663483945930200,3.23193017578125,-0.008891746985912323,-0.011758406729716807,-0.012131667338765691
1782663483955999500,3.24199951171875,0.0006844751328229904,0.0031203239776194094,0.0092826368664857
1782663483966069200,3.2520693359375,-0.011436170771718025,-0.000696448698407039,-0.000882536721881479
1782663483976139300,3.26213916015625,-0.008144143489003181,0.006804136190051212,0.0004249702466884628
1782663483986208500,3.27220849609375,-0.002756605231761932,-0.011288807323435322,0.013372239701100625
1782663483996278300,3.2822783203125,-0.009489128357172012,-0.014981012904876842,-0.0010701956479344517
1782663484006348300,3.292348388671875,-0.011584639331698418,0.0012841854584868997,0.021816085372597445
1782663484016417300,3.302417236328125,0.0056242696225643155,-0.008068694499460979,0.0032148703932762144
1782663484026487300,3.3124873046875,0.0006862286984920501,-0.0037257242585532367,0.017673619839583987
1782663484036556300,3.322556396484375,-0.011733692413568496,-0.0022152466303668916,-0.006830332360521424
1782663484046626300,3.332626220703125,-0.008591887256503105,-0.013180667218333109,-0.002022502820531372
1782663484056696300,3.3426962890625,0.0012830255478620527,0.00011304105357266962,-0.017520765082142314
1782663484066765300,3.352765380859375,-0.002308276942372322,-0.006893860300118103,0.001087377394887153
1782663484076835300,3.36283544921875,-0.010687982752919196,-0.0013895637954119593,0.014884089585754554
1782663484086904300,3.372904296875,-0.013232406538724898,-0.005219990537455305,0.014298857593303545
1782663484096974300,3.382974365234375,-0.013382628664374351,-0.010214118163473904,0.015135415732010733
1782663484107044000,3.393044189453125,-0.008595394387841224,-0.0020337708499282596,0.00784529982303502
1782663484117113300,3.40311328125,-0.007995674929022789,0.00038939204323105514,0.00016408853750908746
1782663484127183400,3.413183349609375,0.014300912553071974,-0.0017816957850009202,-0.0004817373686470091
1782663484137252400,3.42325244140625,-0.0026087211936712262,-0.011116565162222833,0.014782129331910981
1782663484147322400,3.433322265625,-0.020714871248602867,-0.01093518984648399,0.0000677474569878541
1782663484157392400,3.443392333984375,-0.014278700721263885,-0.011290880549512803,-0.0008726911813020706
1782663484167461400,3.45346142578125,-0.010088263294100761,-0.012590656302776186,0.012610283451853319
1782663484177531100,3.46353125,-0.02624853997826576,-0.007418066837312653,0.01252297734444728
1782663484187601400,3.473601318359375,-0.0015589198797941208,-0.004133126882510259,0.0037767945753759704
1782663484197670100,3.483670166015625,0.016847089904546735,-0.0005744297539349645,0.007555776541261002
1782663484207740400,3.493740478515625,0.007570142993330955,0.01463977085230872,0.0009670184012502431
1782663484217809400,3.503809326171875,0.004427753314375877,-0.007692865190701559,0.014519012283161282
1782663484227879200,3.513879150390625,-0.0021568857729434964,-0.0018168036310002207,0.01812393459008308
1782663484237949400,3.523949462890625,-0.00814238992333412,-0.007779986351728439,0.004365367019094992
1782663484248018200,3.53401806640625,-0.010088263294100761,-0.01014142738659866,-0.005312488843209576
1782663484258088400,3.54408837890625,-0.01427753167748451,0.0005642006208654493,0.014629655883670784
1782663484268157200,3.5541572265625,0.0030798458367586132,-0.006749510792829096,0.014162746191397308
1782663484278227500,3.5642275390625,-0.008892331507802009,-0.005997377251274884,0.004900668055750429
1782663484288297500,3.57429736328125,-0.00679740505516529,-0.012753116855490952,0.008273268027696758
1782663484298366200,3.5843662109375,-0.009341244319081305,-0.008328505346272141,0.017021864232851656
1782663484308436500,3.5944365234375,-0.02894435493350029,0.003124452163465321,0.010635069822170771
1782663484318506200,3.60450634765625,-0.011735445979237556,-0.0036802776816301044,0.002473753719369415
1782663484328575500,3.614575439453125,-0.008891746985912323,-0.005825290353689342,0.008860285551857668
1782663484338645200,3.624645263671875,-0.012332827350497245,-0.005464676880370826,-0.0003620656448882073
1782663484348714200,3.63471435546875,-0.027447394374012946,-0.0034889928932301697,0.0063060162254725575
1782663484358784500,3.644784423828125,-0.005600888746976852,0.00470145568922162,0.025742937676841392
1782663484368854300,3.654854248046875,-0.009940963777899742,0.002877747393399477,0.003702544312365353
1782663484378923500,3.664923583984375,-0.0050029228538274765,-0.015138916013482957,-0.008733837027440313
1782663484388993300,3.6749931640625,-0.014578560450673102,-0.006871794598782435,0.02425915854262421
1782663484399062300,3.685062255859375,-0.022809213179349898,-0.001781741450773552,0.025289556469710078
1782663484409132300,3.69513232421875,0.007118892094492912,-0.015697536276932805,0.02352613612691639
1782663484419202300,3.705202392578125,-0.012484803041815757,-0.007372117936890572,-0.0010739128418266772
1782663484429271300,3.715271240234375,-0.01876841335594654,-0.004358861929783598,-0.008992424031544943
1782663484439341300,3.72534130859375,-0.012332827350497245,-0.0014273019899148493,0.00301037449685391
1782663484449411300,3.735411376953125,-0.007094926697015762,-0.006697333081020042,0.016322828568425027
1782663484459480300,3.745480224609375,-0.006945289093255996,-0.005388670768402517,0.004324372855003457
1782663484469550300,3.75555029296875,-0.001558335357904434,-0.00391162961893715,-0.010863932974869385
1782663484479618800,3.765618896484375,-0.007992752319574355,-0.014373101006448268,-0.011451573836826719
1782663484489688800,3.775688720703125,0.011608604729175567,-0.00766887239376083,0.001064510259241797
1782663484499758800,3.7857587890625,-0.01846855362653732,-0.002433099765283987,-0.004653591109637636
1782663484509827800,3.795827880859375,0.0011333879441022873,0.005219259885093197,0.005171872512833215
1782663484519897900,3.80589794921875,0.0006856441766023635,-0.011204161247285082,0.009942173920874483
1782663484529966800,3.815966796875,-0.0026069676280021667,-0.006857044554222375,0.0019291117489221505
1782663484540036900,3.826036865234375,-0.004103343665599822,0.007073226321861147,-0.0050762392517877735
1782663484550107000,3.83610693359375,-0.013230652973055838,0.0013412311416584998,0.004788599683134816
1782663484560175900,3.84617578125,-0.017570143482089042,-0.015493702534213661,0.0009741194288944825
1782663484570245600,3.85624560546875,-0.009489712879061698,-0.002152264396753162,-0.011567249805480241
1782663484580315000,3.86631494140625,-0.008892916029691696,0.003246790768345818,0.007667552652931771
1782663484590384600,3.876384521484375,-0.015626608198881148,-0.007109137885458767,0.007821023898303974
1782663484600455000,3.886454833984375,-0.006648351973295211,0.005895031121652573,0.0019010432817740364
1782663484610524000,3.89652392578125,-0.013381459620594978,-0.006735043876059353,0.01686952321535209
1782663484620593700,3.90659375,-0.00006312836408615112,-0.011034668165585026,0.005384097341273445
1782663484630664000,3.916663818359375,-0.005898410388827323,-0.010496387437265366,-0.005697802932944614
1782663484640732700,3.926732666015625,-0.007844283759593963,0.0000527622336987406,0.0015819422790664247
1782663484650803000,3.936802978515625,0.0015834697991609571,0.007176942424662411,0.01857561246389523
1782663484660871700,3.94687158203125,0.0018827450066804885,-0.006615509149618446,0.013360606345522682
1782663484670942000,3.95694189453125,-0.0026069676280021667,0.0012523564149625598,-0.0013656349305529146
1782663484681012000,3.967011962890625,-0.0021586393386125564,0.003366499024722725,0.006007309556822292
1782663484691080700,3.977080810546875,-0.004851531684398651,-0.016325468050083145,-0.002238177698093932
1782663484701151000,3.98715087890625,-0.0005126256972551345,-0.014382069764193147,-0.0031576854294980876
1782663484711219700,3.9972197265625,-0.011586392897367476,-0.007445292770955711,-0.005330994897568598
1782663484721290000,4.0072900390625,0.0008335282146930694,0.005217204925324768,0.0021655188872595314
1782663484731359700,4.01735986328125,-0.026699206355214118,0.005743365957587957,0.005381336845317855
1782663484741428700,4.0274287109375,-0.013829787909984587,-0.00987961637894623,-0.0007496287739253602
1782663484751499000,4.0374990234375,-0.0020095862567424774,-0.013051213886076584,0.0227453153469949
1782663484761568800,4.04756884765625,0.0089145433396101,-0.003801730370521545,0.014115963890624698
1782663484771638000,4.057637939453125,-0.011136895564198493,0.0005566201026085763,0.006309852150373626
1782663484781707800,4.067707763671875,-0.012782909205555915,-0.008404018267896026,0.014310664478817488
1782663484791776800,4.07777685546875,-0.013681319350004195,-0.022264676240179686,0.009330421530967577
1782663484801846800,4.0878466796875,-0.006350245809555053,-0.015525869504455477,0.0052429444380686615
1782663484811916800,4.097916748046875,-0.003956044149398804,-0.0010203560236841439,-0.0004570436020963825
1782663484821985800,4.10798583984375,-0.010241408029198646,0.005029509466653689,0.004666005349927582
1782663484832055800,4.118055908203125,-0.004555763608217239,-0.0012175864956807344,0.010703547931520733
1782663484842125000,4.128125,-0.0018617022186517714,-0.0012862221519462764,0.006098657085106242
1782663484852194800,4.13819482421875,-0.010839958444237708,-0.006586995441187173,-0.0011076689809560775
1782663484862264800,4.148264892578125,-0.00829495013654232,-0.00718841366674751,-0.004180514254770241
1782663484872333800,4.158333740234375,-0.004254150313138962,-0.005110310484748333,-0.003081953312165569
1782663484882403800,4.16840380859375,-0.0102390699416399,-0.008493276587082073,0.002570935050107073
1782663484892473900,4.178473876953125,-0.013532266268134117,-0.006437905826698989,0.022040738141059408
1782663484902542800,4.18854296875,-0.0027589433193206787,0.008101190263265744,0.018015227218333166
1782663484912612900,4.19861279296875,-0.0030582185268402096,-0.013855442941049113,0.017812523703486658
1782663484922681900,4.208681884765625,-0.013534019833803175,0.0019711813419591635,0.0075946723631001075
1782663484932752000,4.218751953125,-0.022213000851869582,-0.00012670425274409353,0.015197881942393724
1782663484942821600,4.228821533203125,-0.012337503525614737,-0.0018345767497085035,0.0097091711658868
1782663484952891000,4.238890869140625,-0.01503098039329052,-0.005573142223525792,-0.0026217131059849633
1782663484962960600,4.248960693359375,-0.017425766575336454,-0.0010613182217348366,0.007335820497514214
1782663484973030000,4.25902978515625,-0.004556932651996613,-0.004547379372362047,0.004080184269009623
1782663484983100000,4.269099853515625,-0.009942717343568802,-0.001695013015391305,0.012168455685197841
1782663484993169700,4.279169677734375,-0.0032090251743793485,-0.007507991876779124,0.0010094076546956785
1782663485003239000,4.289239013671875,0.00606850625872612,0.005894775393325835,0.005234078428312205
1782663485013308700,4.29930859375,-0.0009644611179828644,-0.00772048384998925,-0.002805097715719603
1782663485023378000,4.3093779296875,-0.00784837541282177,-0.005982325812615454,0.013010153506614733
1782663485033447700,4.31944775390625,-0.009345335972309111,-0.020241134523320943,0.011319889731577132
1782663485043518000,4.32951806640625,-0.0012649053692817688,-0.007510457828501239,0.0016517218629363924
1782663485053586700,4.339586669921875,-0.011289455777406691,-0.00793283882588148,0.00674175446134759
1782663485063656700,4.34965673828125,-0.00784837541282177,-0.0040394755159970375,-0.0007853759407415055
1782663485073727000,4.35972705078125,0.0020277064353227616,-0.014378288638219236,0.014716334086703135
1782663485083795700,4.369795654296875,-0.006501636978983879,0.0009314630306791514,0.005005450454342644
1782663485093866000,4.379865966796875,-0.018922142612934113,-0.021468429562263188,-0.008761542451696004
1782663485103934700,4.389934814453125,-0.0015653496205806732,-0.008291552603058517,0.009316020829568152
1782663485114004700,4.400004638671875,-0.003361585387587547,-0.0188462734982837,0.0007481263700057752
1782663485124075000,4.410074951171875,-0.016380056914687156,0.001643456358090043,-0.003662015939154662
1782663485134143700,4.420143798828125,-0.013985855254530905,0.010231425491301342,-0.004850447122298647
1782663485144214000,4.430214111328125,-0.0020148469537496568,-0.0033794224383775144,-0.00398967927423073
1782663485154282800,4.44028271484375,-0.008749123644828796,0.0019937311004847285,0.008302115096268244
1782663485164352800,4.450352783203125,0.004867898297309875,-0.0077483308381401,0.0008080170308123342
1782663485174422800,4.4604228515625,0.005016951379179954,0.0010489427973516285,-0.0033542925636982543
1782663485184491800,4.47049169921875,-0.010695581537485122,-0.007998332676989958,0.0072682579869055184
1782663485194561800,4.480561767578125,-0.009648702833056449,-0.00517580433585681,-0.002023728946526535
1782663485204630800,4.490630859375,-0.0003705868780612945,-0.009294208573270589,-0.0009139410737203433
1782663485214701000,4.500701171875,-0.008450432959198952,-0.0036581389150582254,0.004158128893026151
1782663485224770800,4.510770751953125,0.004117372190952301,0.0010071129496209323,0.007562644673464819
1782663485234839800,4.52083984375,0.00022679449319839477,-0.010786821751203388,0.015190897362469695
1782663485244909800,4.530909912109375,-0.023866028755903244,-0.009188044785056262,0.009046990063262638
1782663485254979800,4.540979736328125,0.007855974197387695,-0.0005529485744889825,-0.005773025876912288
1782663485265048800,4.551048828125,-0.009053659549355506,-0.012665694300364702,0.002317531111196149
1782663485275118800,4.561118896484375,-0.006959317618608474,0.018113821904733776,0.011793436943902634
1782663485285187800,4.571187744140625,-0.013392565536499023,0.005112630305998027,0.014636124440364074
1782663485295257900,4.5812578125,-0.020725392642617226,-0.01699916606056504,0.012621030891442205
1782663485305327900,4.591327880859375,-0.007706921115517616,-0.003988740842603147,0.005030968488089274
1782663485315396900,4.60139697265625,-0.009053659549355506,0.002964119635755196,-0.0038410691503551787
1782663485325467000,4.611466796875,-0.0021709142982959746,-0.01280305694444105,-0.0036286502423812633
1782663485335535900,4.621535888671875,-0.0038180969834327697,-0.004907810182590037,0.007162482357758563
1782663485345606000,4.63160595703125,0.0030658173114061354,-0.0011941964869387448,0.0019114573612227103
1782663485355676000,4.641676025390625,0.004413140267133712,-0.004773534544743597,0.0039444975587888615
1782663485365745000,4.651744873046875,0.002168576210737228,-0.007304066802514717,-0.001923846485337708
1782663485375815000,4.66181494140625,-0.009953823259472847,0.002746038171974942,-0.004888530093384906
1782663485385884000,4.6718837890625,-0.01773497865498066,-0.011341259029880165,-0.013944208069890737
1782663485395954000,4.681953857421875,0.005009937116503715,-0.010903744395449756,-0.004933718658692669
1782663485406023700,4.692023681640625,-0.0035199908196926113,0.003569565582461655,-0.004904506263940129
1782663485416093000,4.702093017578125,-0.024469255346059798,-0.0010211506081279366,0.014233895748446228
1782663485426162700,4.71216259765625,-0.020279986962676046,0.013656285373447463,-0.0035023409985704347
1782663485436232700,4.722232666015625,-0.01833528263568878,-0.008908625055477022,-0.0036298010198515837
1782663485446302000,4.732302001953125,0.0015647650986909865,-0.0056969056005124,0.02234355016266927
1782663485456371700,4.742371826171875,-0.009808277308940887,0.002494830756727606,0.0039456985686090774
1782663485466441000,4.75244091796875,-0.0009808277308940886,-0.003043861207924783,0.020847598816757087
1782663485476511000,4.762510986328125,-0.007266776132583618,-0.008974621230084448,0.010746836800687014
1782663485486581000,4.7725810546875,-0.004872574472427368,-0.013441199584351853,-0.01020763134047156
1782663485496650000,4.78264990234375,-0.003376782956719398,-0.015156479069637133,0.016406305600795895
1782663485506720000,4.792719970703125,0.002010170778632164,0.00934616708937101,-0.006394237931619863
1782663485516789000,4.8027890625,-0.009064180943369865,-0.010143792873620987,-0.015882190395146607
1782663485526859000,4.81285888671875,-0.006070844346284866,-0.0003524027673993259,0.009186510415095835
1782663485536929000,4.822928955078125,-0.0030780922710895537,-0.010103798789950087,0.004987168162269517
1782663485546998000,4.832998046875,-0.020285832181572913,-0.0016334829533472656,0.008554852314898744
1782663485557068000,4.843068115234375,-0.01220540157854557,-0.003739195661479607,0.0027371447627549056
1782663485567138300,4.85313818359375,-0.0030769232273101803,-0.003483193340105936,0.013530190758768003
1782663485577207000,4.86320703125,-0.007267945176362991,-0.013642731772130354,0.007082959981297608
1782663485587277000,4.873277099609375,-0.0021796821266412735,0.0027302652141079306,-0.012343787135928869
1782663485597346000,4.883345947265625,0.004255903878808021,-0.0010974033152684568,0.006609832894080318
1782663485607416000,4.893416015625,-0.00786532654762268,-0.000860461887391284,0.013673565301811321
1782663485617486000,4.903486083984375,0.0026087211936712262,-0.005130640886723995,-0.003365877970214933
1782663485627555000,4.91355517578125,-0.010111059647798537,0.0007436945067718625,0.0037016652462421914
1782663485637625000,4.923625,-0.007716857987642288,0.001046915237046778,-0.0006860848513082601
1782663485647694000,4.933694091796875,-0.005173018723726272,-0.0016529639719519763,0.009252890182193368
1782663485657763800,4.943763916015625,-0.006819032365083694,-0.015242878711456432,0.024597838745347687
1782663485667834000,4.953834228515625,-0.012654898911714552,-0.007479021510621533,0.0018965589029015972
1782663485677903000,4.963903076171875,0.010388707545399665,0.00633422625651583,0.01623904100880027
1782663485687973000,4.97397314453125,-0.001132218900322914,-0.003964684113580733,0.016309610610536766
1782663485698042000,4.9840419921875,-0.015198738175630569,-0.0007564261241815984,0.0025033930890960617
1782663485708112100,4.994112060546875,-0.011606851163506507,-0.00038641463485546406,0.01150692531983368
1782663485718182100,5.00418212890625,-0.0018786533534526824,-0.006915487610036507,0.0053107969263335685
1782663485728251000,5.0142509765625,-0.005020458510518073,-0.01693230223627761,0.00436165439178003
1782663485738321200,5.024321044921875,-0.0021779285609722135,-0.014034909427491948,0.008937401342100929
1782663485748391200,5.03439111328125,0.0051543140232563015,0.004399677997361869,-0.002433236762601882
1782663485758460200,5.044460205078125,-0.02103285115659237,-0.004418848488712683,0.0060616404098109335
1782663485768530200,5.0545302734375,-0.0018792378753423689,0.0031611948441248386,-0.006200206346996128
1782663485778599000,5.064598876953125,0.0008142389923334122,-0.0042630460056476294,-0.013956976219918578
1782663485788669200,5.074669189453125,-0.0020300445228815076,-0.0002388228577096015,0.013209831664024386
1782663485798739200,5.0847392578125,-0.003376782956719398,-0.011935535128600894,-0.00314272303909529
1782663485808808200,5.09480810546875,0.004255319356918335,0.0063742934054229405,-0.004309271183994132
1782663485818878200,5.104878173828125,-0.005023965641856193,0.004006057303585112,-0.00581939261915395
1782663485828947000,5.114947021484375,-0.011457798081636428,0.0019070757303386926,0.00020147738885134458
1782663485839017200,5.125017333984375,-0.012656067955493927,-0.002595934777334332,0.009963687066361308
1782663485849087000,5.1350869140625,-0.013106149810552596,0.0030392398317344487,0.012660511235170997
1782663485859156200,5.14515625,-0.014302666118741035,-0.016270897451788186,0.003944999882287812
1782663485869226000,5.15522607421875,-0.0006862286984920501,-0.00874202718376182,-0.003185390853753779
1782663485879295200,5.165295166015625,-0.00263210206925869,-0.013762978884624317,-0.0037910674126120283
1782663485889365000,5.175364990234375,-0.0029313772767782208,-0.0020840945313684643,0.006063638287363574
1782663485899435000,5.18543505859375,-0.009814122527837752,-0.0027239816037937996,-0.00195846799085848
1782663485909504300,5.195504150390625,-0.009813538005948067,0.0033662798290140924,0.009299900811829138
1782663485919574000,5.205573974609375,-0.0035281741261482236,-0.0014795071011874824,0.0009547936739167199
1782663485929644000,5.21564404296875,-0.003677811729907989,-0.012372620504768565,0.004898377917252946
1782663485939713000,5.225713134765625,0.0008107318609952926,-0.004629057173291221,0.011077119067823514
1782663485949783000,5.235782958984375,-0.0005360065728425979,0.00451236285790801,0.008384900292183738
1782663485959852000,5.24585205078125,0.00978898808658123,-0.009136378529900685,0.024899705485464073
1782663485969922000,5.255922119140625,0.006347907721996307,0.006522579302312806,0.0017478665806353092
1782663485979992000,5.265991943359375,-0.013853168785572051,0.00823520103963092,0.009602511904039419
1782663485990061000,5.27606103515625,-0.019390929168462752,-0.0008874046932440251,0.0067916374680818984
1782663486000131000,5.286131103515625,-0.01415302851498127,0.00884852889869362,0.007632677702372893
1782663486010200000,5.296199951171875,-0.012059271106123924,-0.008690379194915294,0.011414274033741094
1782663486020270000,5.30627001953125,-0.00397884050309658,0.01150875195073895,0.000027541027474217115
1782663486030339000,5.316339111328125,-0.01071311719417572,-0.001270942384423688,0.02205855235896306
1782663486040409000,5.3264091796875,0.004101005578041076,0.00038906324966810643,-0.002799065267154947
1782663486050478000,5.33647802734375,-0.004579144483804702,-0.00876809320678003,0.01134447161698481
1782663486060548000,5.346548095703125,-0.00038870705664157865,-0.00214067442365922,0.005565573121712077
1782663486070617000,5.3566171875,-0.002184358301758766,-0.004077359840972349,0.012275144629797431
1782663486080687000,5.36668701171875,-0.00787058724462986,-0.008620976353669539,0.0031954418903100304
1782663486090757000,5.376757080078125,-0.011911387068033217,-0.008136544704437256,-0.0022925565001438372
1782663486100826000,5.386826171875,-0.0072737903952598566,0.002491570220561698,-0.0062158126247930335
1782663486110896000,5.396896240234375,-0.00009118541479110717,0.004313543217023834,-0.012559112670330795
1782663486120965000,5.406965087890625,-0.002485387074947357,0.004337928739609196,-0.003591699782456271
1782663486131035100,5.41703515625,-0.004580313527584075,-0.000022111367108300328,0.007596709056559484
1782663486141105200,5.427105224609375,-0.003082768446207046,-0.014339673660881817,0.00495194843512727
1782663486151174100,5.437174072265625,-0.006526771420240402,0.019013994748005643,0.013510148051159921
1782663486161244200,5.447244140625,-0.008172785061597824,-0.0035710542866494504,0.004424762206268497
1782663486171313200,5.457313232421875,-0.01011924295425415,-0.007817094358569011,0.010676468128350098
1782663486181383200,5.467383056640625,-0.0027870003700256347,-0.010358065811963751,-0.005813960675499402
1782663486191453000,5.477452880859375,-0.0006909048736095428,0.0004937839994672685,0.003044870421499945
1782663486201522200,5.487522216796875,-0.015654665249586103,0.013090897442493588,0.00469248464818811
1782663486211592000,5.497592041015625,-0.0035340193450450895,0.003908725275797769,0.018502784689702092
1782663486221662000,5.507661865234375,-0.005929974570870399,-0.0006926036403514445,-0.0018422120668925345
1782663486231731200,5.517731201171875,-0.010719546934962272,0.003600965367723256,-0.011321547399123664
1782663486241801000,5.527801025390625,-0.003385550785064697,-0.0018471622366458176,0.008867731356085278
1782663486251870200,5.5378701171875,-0.018798223972320557,0.006891805340349674,-0.013051791558100375
1782663486261940000,5.54793994140625,-0.017002572727203367,-0.0017587441676761954,0.008767892277380451
1782663486272010000,5.558010009765625,-0.00039396775364875793,-0.006270823897793889,0.013213679005368613
1782663486282079000,5.568078857421875,-0.0066793316334486,0.009005884018028154,0.005657274559733924
1782663486292149000,5.57814892578125,-0.011467150431871414,-0.0033333091411739584,0.018983136102149727
1782663486302218000,5.588218017578125,0.000803133076429367,-0.0012645674425642937,0.019363849365292115
1782663486312288000,5.5982880859375,-0.014759177714586257,-0.004201351546822115,0.0005627141999662854
1782663486322358000,5.60835791015625,0.0012520458877086638,0.005951994606433436,-0.003670263177691959
1782663486332427000,5.618427001953125,-0.0072772975265979764,-0.00885774425161071,0.005698332655907142
1782663486342497000,5.6284970703125,-0.02913432454764843,-0.017291043412918223,0.009108170782146043
1782663486352566000,5.63856591796875,-0.04006254579722881,-0.022218745606066657,0.0007891456502722576
1782663486362636000,5.648635986328125,0.017093758141994476,-0.0021373225559480485,0.02914581177275395
1782663486372706000,5.6587060546875,-0.02869768669605255,0.005998199235182255,0.023369532209541646
1782663486382775000,5.668775146484375,0.0289133752733469,0.010995824859384447,-0.02053258490070002
1782663486392845000,5.678844970703125,0.0025789105772972107,0.007437675720080733,-0.01588899002869148
1782663486402915000,5.6889150390625,-0.00594692570567131,-0.006742039872426539,0.020189424885681363
1782663486412984000,5.698984130859375,0.002286649632453918,-0.004394636496063322,0.022151212778210173
1782663486423056100,5.70905615234375,-0.021502806755900383,0.02221901046754792,-0.0038053722158889283
1782663486433126000,5.7191259765625,-0.01147299565076828,-0.005264624263625592,0.009167910745902917
1782663486443195100,5.729195068359375,-0.009227262550592422,-0.02301472742250189,0.010846395034890155
1782663486453265200,5.73926513671875,-0.006982113972306251,-0.02201880258717574,0.0023720743100275284
1782663486463334100,5.749334228515625,-0.0008469722181558609,0.009197305803745984,-0.00860028975866735
