time,seconds_elapsed,z,y,x
1782811687685918200,0.068918212890625,-0.7310995213538408,-0.27460619181767104,-0.30367899543642995
1782811687695989200,0.0789892578125,-0.6071873104810714,-0.10068506454229355,0.0299165609665215
1782811687706061300,0.089061279296875,-0.41236207299530503,0.005267272878438234,0.29434914929419753
1782811687716133400,0.09913330078125,0.0212841955691576,0.08855974246263504,0.37750411010384555
1782811687726204400,0.109204345703125,0.3614864567607641,0.14862053567171096,0.4330294518403709
1782811687736276500,0.1192763671875,0.4576245255231857,0.14491174428164957,0.49486397672370075
1782811687746348300,0.129348388671875,0.4511602979451418,0.0725625473856926,0.4844393210820853
1782811687756419300,0.13941943359375,0.43535014987289905,-0.06362491543143987,0.42517742316573853
1782811687766491400,0.149491455078125,0.41990357441604137,-0.19555515919551253,0.31057898408323525
1782811687776562400,0.1595625,0.4428793763339519,-0.22569456913247704,0.24323884752094743
1782811687786634500,0.169634521484375,0.36356209399104117,-0.27141630973517894,0.15861162220165131
1782811687796706600,0.17970654296875,0.12625322104096412,-0.3544404837720096,0.0022195757456123827
1782811687806777600,0.189777587890625,-0.19176468087136744,-0.4348980221912265,-0.14879457706436514
1782811687816849400,0.199849365234375,-0.39732232477366924,-0.4615891913704574,-0.2201801896251738
1782811687826921500,0.20992138671875,-0.42785950185656546,-0.45261721875518557,-0.19531638200357554
1782811687836992500,0.219992431640625,-0.3018494419217109,-0.32133141037449237,-0.16509820774197578
1782811687847064600,0.230064697265625,-0.0535696776241064,-0.16575813295543193,-0.09507336214035748
1782811687857135600,0.240135498046875,0.14346271451711654,-0.06605389614403248,-0.02203618298023939
1782811687867207400,0.25020751953125,0.18275486046373843,-0.07406666833832859,-0.021890052507817743
1782811687877279500,0.260279541015625,0.18040625151097772,-0.047211540769040584,-0.13217588908821343
1782811687887350300,0.270350341796875,0.2069470524340868,-0.09456029805168509,-0.08359466740116477
1782811687897422300,0.28042236328125,0.3186655521661043,-0.21164719294905662,0.024839111571758984
1782811687907494400,0.290494384765625,0.36249358797669406,-0.2281367015875876,-0.02592968328744173
1782811687917565400,0.3005654296875,0.20753332788944243,-0.14656550283804534,-0.11756517993360757
1782811687927637200,0.31063720703125,0.04955167415440082,-0.07598053913563489,-0.12200082429349422
1782811687937708300,0.320708251953125,-0.07483399944901466,-0.1888702746041119,-0.14249620757251977
1782811687947780400,0.3307802734375,-0.005578092393279075,-0.0929030323639512,-0.1220931787520647
1782811687957852400,0.340852294921875,0.17910218317508697,0.08389365034773945,-0.05525412357971072
1782811687967923500,0.35092333984375,0.252255097669363,0.09508709840476512,-0.11881254964619874
1782811687977995500,0.36099560546875,0.38239831188619133,0.1381184308797121,-0.21132658269256352
1782811687988067300,0.3710673828125,0.608426496887207,0.3191109578460455,-0.290632320728153
1782811687998138400,0.381138427734375,0.869946851029992,0.43338644858449693,-0.23417700466513633
1782811688008210400,0.39121044921875,1.0725468141704797,0.5246431750461459,-0.17010858324989675
1782811688018281500,0.401281494140625,1.3328817579209804,0.6876552241638303,-0.16505831412300467
1782811688028353500,0.411353515625,1.6516022551447151,0.9361150212034582,-0.32747985000163315
1782811688038425300,0.42142529296875,1.733463376751542,1.143101236604154,-0.2576519882768392
1782811688048496400,0.431496337890625,1.7117758610785005,0.997387382159382,-0.17626272196546197
1782811688058568400,0.441568359375,1.8644658381462096,0.8019837602637707,-0.16801789458096025
1782811688068639500,0.451639404296875,2.1376409742474554,0.4006584834590554,-0.18011457508802414
1782811688078711600,0.461711669921875,2.3013170402318237,0.0602948942258954,-0.32932628158591687
1782811688088783600,0.47178369140625,2.246028283730149,-0.20301906533539293,-0.3037287528622895
1782811688098854700,0.481854736328125,1.9495394920587539,-0.43840705322548745,-0.5312123243033886
1782811688108926500,0.491926513671875,1.6029554208755492,-0.5689490575015544,-0.8068643719121813
1782811688118998500,0.50199853515625,1.2965285880357027,-0.5415726825371384,-1.145038196016103
1782811688129069300,0.5120693359375,0.9565718260377645,-0.40994609789475794,-1.4166979591183364
1782811688139141400,0.522141357421875,0.4896101478487253,-0.20879911004155874,-1.3773024989277123
1782811688149212400,0.53221240234375,-0.07331307349205017,-0.03242445213422179,-1.16144660224244
1782811688159284500,0.542284423828125,-0.8789180929929018,0.12521920181810856,-0.9078121059786528
1782811688169356300,0.552356201171875,-1.9749907441794872,0.2841283456616103,-0.9626745998922734
1782811688179427300,0.56242724609375,-3.2093940076917407,0.519288370014727,-1.3675932980790733
1782811688189499400,0.57249951171875,-4.398752845340967,0.9794903448104858,-2.0012965673029424
1782811688199571500,0.582571533203125,-5.684740750139952,1.514903335674107,-2.332684384528547
1782811688209642500,0.592642578125,-6.871181654515862,1.6445187266245482,-2.145652723528445
1782811688219714300,0.60271435546875,-7.537521995711326,1.3617995171085,-1.7749599008746444
1782811688229785300,0.612785400390625,-7.1333841457039115,0.6961769687935709,-1.3211400283314287
1782811688239857400,0.622857421875,-4.305407037645578,-0.8060809664495289,-0.995494042693451
1782811688249929500,0.632929443359375,-2.5312644445031878,-2.0694756389074027,-0.12155815855991095
1782811688260000500,0.64300048828125,-3.3705268189340827,-0.049307490134984255,2.3255738218709827
1782811688270072600,0.653072509765625,-5.377535918664932,1.7116783920533953,1.3137911268733442
1782811688280144400,0.663144287109375,-6.332847515508532,1.3015255195401607,-0.23095354910660534
1782811688290215400,0.67321533203125,-5.890164538529515,-0.568708380613476,-1.2368617625802754
1782811688300287500,0.68328759765625,-5.2854088391095395,-2.190487744424492,-2.2434866364233192
1782811688310358500,0.693358642578125,-5.254454897919297,-2.8816274497032164,-2.989177431578934
1782811688320430600,0.7034306640625,-5.7017322169512505,-2.934495701059699,-3.058261781460047
1782811688330502400,0.71350244140625,-5.694494666913151,-2.497586046785116,-2.462902563677728
1782811688340573200,0.7235732421875,-4.598139107131958,-1.670596001689136,-1.6550282840706407
1782811688350645500,0.7336455078125,-2.9598814867287873,-0.7673678624998778,-0.7389972888663411
1782811688360717600,0.743717529296875,-1.579708400800824,0.14204334923848508,0.40957134629823266
1782811688370788400,0.753788330078125,-0.7796984248280525,1.0476666399359702,1.526228301156312
1782811688380860400,0.7638603515625,-0.38851182633042336,1.6236840283885596,2.55878841124475
1782811688390931500,0.773931396484375,0.3157756759434938,1.6722857083417475,3.189623139294982
1782811688401003300,0.784003173828125,1.2417442739248274,1.237186318359524,3.457323643377423
1782811688411075300,0.794075439453125,2.0605881297051907,0.03748484079632908,3.289756707434356
1782811688421146400,0.804146484375,2.475810268306732,-1.2993638114616275,2.616194306030869
1782811688431218400,0.814218505859375,2.609512636309862,-2.1701434600539504,1.9314885793223977
1782811688441290800,0.824290771484375,2.6567782453536988,-2.7541870647042987,1.5395967551648615
1782811688451361800,0.83436181640625,2.8689024081647396,-3.270084915497899,1.474003754530847
1782811688461433900,0.844433837890625,3.5552351515531537,-3.3892467169731852,1.687058914581686
1782811688471505000,0.8545048828125,4.368155462503433,-3.1275024909466502,2.1012929189287126
1782811688481577000,0.864576904296875,5.143178881257772,-2.7737179868653414,2.3278733309850095
1782811688491649000,0.87464892578125,6.169004276263713,-2.4475451278090476,2.248039039030671
1782811688501720000,0.884719970703125,7.224843701261282,-2.085675663080066,2.3424698654837903
1782811688511791900,0.8947919921875,8.179793479055165,-1.7754501686096191,2.60121710165143
1782811688521864000,0.904864013671875,8.78863557100594,-1.5549343172892927,2.7587887132808566
1782811688531935000,0.91493505859375,8.940168194732069,-1.2359205362074077,2.9118223892197013
1782811688542007000,0.925007080078125,8.754475527250767,-0.8572781427886337,2.937822215133905
1782811688552078000,0.935078125,8.20623140412569,-0.5920893292661756,2.903588521620631
1782811688562150000,0.94514990234375,7.585588984265923,-0.2617974175184965,2.942977113679051
1782811688572222000,0.955221923828125,7.175474982458352,0.06946969593688845,2.798331034596264
1782811688582293000,0.96529296875,7.050052367022633,0.21964798244461417,2.469371759691834
1782811688592365000,0.975364990234375,7.1717895719438784,0.3715898445587605,2.2102350858151913
1782811688602437000,0.98543701171875,7.011086968812346,0.3992873412363231,2.0314985210821033
1782811688612508000,0.9955078125,6.382518432128429,0.4439458365216851,1.7895166878849267
1782811688622579700,1.005579833984375,5.568424985745549,0.7163172550246119,1.4930461625225842
1782811688632650800,1.015650634765625,4.385044053462147,0.9897915202029048,1.2335117215000093
1782811688642722800,1.025722900390625,3.0159120015084744,1.3183427988283336,1.2942945453733206
1782811688652795000,1.035794921875,1.5907494347751139,1.5738488611176609,1.2884063641175627
1782811688662866000,1.045865966796875,0.1330950497597456,1.9985119050204754,0.9987536290112883
1782811688672938000,1.05593798828125,-1.566687006664276,2.2313849874801934,0.48732276756390924
1782811688683009000,1.066009033203125,-3.05083250824213,2.2141985826186836,-0.2733157136157155
1782811688693080800,1.076080810546875,-4.261265698102116,1.9164976386785506,-1.155911545273289
1782811688703153000,1.08615283203125,-5.78838232640028,1.5419079547166823,-1.7014892987333237
1782811688713224000,1.096223876953125,-7.039574227628111,1.7051146496236322,-1.6390841343551874
1782811688723296000,1.1062958984375,-7.771457008314132,1.7397993017747997,-1.2643161712169646
1782811688733367800,1.116367919921875,-7.824812166404723,0.9718363229259848,-1.4837003881588577
1782811688743438800,1.12643896484375,-6.810152308535575,0.10187924276292323,-2.5394477509588
1782811688753511000,1.136510986328125,-5.91742196328938,-0.6353600965201854,-3.7351726165086028
1782811688763582000,1.14658203125,-6.477368214645981,-1.9990408973306417,-4.098072447198629
1782811688773654000,1.156654052734375,-7.734736758682131,-3.7996298911109565,-3.8709757561832663
1782811688783726000,1.16672607421875,-8.781516094389557,-5.037619488677382,-3.9090070884138344
1782811688793797000,1.176797119140625,-9.523065113565325,-5.043528420460224,-4.278967943531274
1782811688803869000,1.186868896484375,-9.949747972857951,-4.2486523002445695,-4.616875371783972
1782811688813939700,1.196939697265625,-9.91554408996105,-3.745513685519993,-4.575165058779716
1782811688824012000,1.207011962890625,-9.057104136851429,-3.5617239290505647,-4.137779603686928
1782811688834084000,1.217083984375,-6.973845910176634,-3.2682465941548346,-3.4052906738013027
1782811688844155000,1.22715478515625,-4.372100400736928,-2.4697911541476842,-2.3238094425469638
1782811688854227000,1.23722705078125,-1.425346106606722,-1.4858984827250241,-1.1917698443137108
1782811688864298800,1.247298828125,1.5294675753384828,-0.5821190663285553,-0.15056801647767423
1782811688874369800,1.257369873046875,4.003184670758247,-0.3051647039495408,0.5936095976360142
1782811688884441900,1.26744189453125,5.689021788460016,-0.4391453774373978,0.730186059770733
1782811688894513000,1.277512939453125,6.369064491793513,-0.2136696752199903,0.5480082685425878
1782811688904585000,1.2875849609375,6.216092775174975,-0.3799688927821815,0.014373977789282798
1782811688914656800,1.29765673828125,4.733687979784608,-1.321962889021635,-0.7131245964631437
1782811688924727800,1.307727783203125,2.0622318052589894,-2.3823649457596243,-0.931288916221261
1782811688934800000,1.3177998046875,-0.15227613556981087,-2.8501293186336754,-0.46364919264018534
1782811688944872000,1.327871826171875,-0.7169955926775932,-2.6362089200556276,0.5662962049052119
1782811688954943000,1.33794287109375,0.2487269235432148,-1.8842954509928822,1.9487284679368138
1782811688965015000,1.34801513671875,1.6289572926163673,-1.053982106693089,3.245309662942588
1782811688975086000,1.358086181640625,2.761126508578658,-0.5395263444665819,4.002282168960571
1782811688985158000,1.368157958984375,3.326877646821737,-0.2798424119707197,4.274526161691546
1782811688995230000,1.37822998046875,3.3396915356874466,-0.4763017534643411,3.8978208007499573
1782811689005301000,1.388301025390625,3.7408705358892678,-0.8551474143702537,3.5271894990250465
1782811689015373000,1.398373046875,4.518500922271609,-0.6658351681523025,3.435400857643783
1782811689025444000,1.408444091796875,4.173146100622415,-0.47824744417201726,3.1592391069471835
1782811689035516000,1.418515869140625,2.6343437107056378,-0.387281736546196,3.194593036662042
1782811689045588000,1.428587890625,1.3417460323780774,-0.23583803321253508,3.2769246983900664
1782811689055658800,1.43865869140625,0.19380057061314582,0.5602987911213189,3.3119434048011898
1782811689065730800,1.448730712890625,0.2168587901175022,1.8122575120031832,3.6103839150622483
1782811689075803100,1.45880322265625,1.1845821247667074,2.9381261665165423,4.251688306939601
1782811689085874000,1.4688740234375,0.9076520200461149,4.160148964144289,4.687434762653708
1782811689095945700,1.47894580078125,0.9425491459041834,5.113533100056648,4.761969486895203
1782811689106016800,1.489016845703125,1.886673578301072,5.432023880177736,4.54641768772304
1782811689116088800,1.4990888671875,2.7125018861413,5.0125546055257315,3.491911849416792
1782811689126161000,1.509160888671875,2.236446216392517,4.279748864775896,2.3298916850700975
1782811689136232000,1.51923193359375,1.5219184751331805,2.954763705323636,1.1317536208987236
1782811689146304000,1.529303955078125,0.8523521576285362,1.4996573973558842,-0.09075988285541534
1782811689156375000,1.539375,0.13854454733729363,0.5719115605689585,-0.9408578318163752
1782811689166446800,1.54944677734375,-0.037164486268162725,0.6588292349129915,-1.6477169381439685
1782811689176519000,1.559518798828125,-0.5445452686071396,1.2232147838912903,-2.3688863093748687
1782811689186590000,1.56958984375,-1.4658569806933401,1.6828548870205877,-2.9293942862674593
1782811689196662000,1.579662109375,-2.199881449583173,2.0598381881207226,-3.3010540542572735
1782811689206733800,1.58973388671875,-2.397560322934389,2.7549703240364787,-3.33899537011683
1782811689216804900,1.599804931640625,-2.418755671176314,3.249396347734332,-2.9939772330760954
1782811689226877000,1.609876953125,-3.262712340903282,2.6243311429962515,-2.4583462155476212
1782811689236948000,1.619947998046875,-4.481551540058851,1.0478025412753225,-2.2184984717696903
1782811689247020000,1.63002001953125,-4.088425497931242,-0.15444471178054808,-2.997445201447606
1782811689257092000,1.640092041015625,-3.0380729799121617,-0.9741793789207934,-3.646101125131547
1782811689267163100,1.6501630859375,-3.731740303972363,-2.602176302072406,-3.002508330056071
1782811689277235000,1.66023486328125,-5.504383598467707,-4.159129557968676,-2.0677096521481872
1782811689287305700,1.6703056640625,-6.7184870012730356,-4.330699299812316,-1.8546099223032593
1782811689297377800,1.680377685546875,-7.825376230028271,-3.527313709926605,-2.336781444583833
1782811689307449900,1.690449951171875,-9.190852097561955,-2.8224294108033177,-2.7136104319050904
1782811689317521000,1.70052099609375,-9.782955820679664,-2.2605203349411487,-2.7056635645538565
1782811689327593000,1.710593017578125,-8.809080393141507,-1.5997709456205367,-2.0039454743765295
1782811689337664800,1.720664794921875,-6.986999990782142,-0.8417743572518229,-1.2776676740907131
1782811689347735800,1.73073583984375,-5.069501650628447,-0.1061550203859806,-0.8789579866118729
1782811689357807900,1.740807861328125,-2.982276858410239,0.16926321846693754,-0.5343365938037633
1782811689367879000,1.75087890625,-0.9700327806353568,-0.10748422316312789,-0.44629546838775275
1782811689377951000,1.760950927734375,0.5436988809108734,-0.7750036911405622,-0.6455030126109719
1782811689388022800,1.771022705078125,1.5297311947107315,-1.9160379122123121,-1.125269081185013
1782811689398093800,1.78109375,2.1292279506891965,-3.3080943281576034,-1.6405827023498714
1782811689408166000,1.791165771484375,2.317527585798502,-4.254953446215391,-1.8326961966589093
1782811689418237000,1.80123681640625,1.9455483765959738,-4.465518104624748,-1.474687499011308
1782811689428309000,1.81130908203125,1.1610346604406834,-3.852535551868379,-1.01027360560894
1782811689438381000,1.821381103515625,1.0203379035055637,-2.8574098310306666,-0.27691972945705057
1782811689448452900,1.831452880859375,1.6431003842592238,-2.124622941111773,0.4988346339203417
1782811689458525000,1.84152490234375,2.9248873302370306,-1.6691024021305143,1.0806915421813725
1782811689468597000,1.851596923828125,4.462752731564641,-1.5043889559224246,1.3658125521421431
1782811689478668000,1.86166796875,5.6255725218564265,-1.3506649596318603,1.4983433921478688
1782811689488739800,1.87173974609375,6.322253640779852,-1.020711266862601,1.597295495417714
1782811689498811000,1.881810791015625,6.592005816695094,-0.5998616437681019,1.7452476303085684
1782811689508883000,1.891883056640625,6.37160540844798,-0.1542693552136421,1.8357786728441714
1782811689518955000,1.901955078125,6.107953302973509,0.14524083010554312,1.8136748314552007
1782811689529026000,1.912026123046875,5.975781797799468,0.2069438375636935,1.6280118284597993
1782811689539098000,1.92209814453125,6.053832421207428,0.10210866760462523,1.4566168586611747
1782811689549169200,1.932169189453125,6.3738260071069,0.10101794975847005,1.4662820742376148
1782811689559241000,1.942240966796875,6.848835382673144,0.1921903589375317,1.4624015795424579
1782811689569313000,1.95231298828125,7.260252868294716,0.2313366666726768,1.3271126730002463
1782811689579384000,1.962384033203125,7.64415515500307,0.22029650948122143,1.1451585344601423
1782811689589456100,1.9724560546875,8.026433639901876,0.11089023221433163,0.978882515110448
1782811689599528200,1.982528076171875,8.173197149530052,-0.009260288037359714,0.7897775549676269
1782811689609599200,1.99259912109375,8.027351339268684,-0.09965966701731085,0.6187772105097771
1782811689619671000,2.002671142578125,7.628288892829418,-0.11208674852252005,0.4613684612918645
1782811689629742000,2.0127421875,7.005233566609024,-0.10304887106418609,0.3533902440667152
1782811689639814100,2.022814208984375,6.25049305742681,-0.06547507334277033,0.3230786193680018
1782811689649886200,2.03288623046875,5.1576130648016925,-0.08008826671540736,0.2031173380780965
1782811689659957000,2.04295703125,3.9026153415501117,-0.4123442450776696,-0.25588673216998575
1782811689670029000,2.053029052734375,2.250480002442002,-0.7834598231881856,-1.0930101218108088
1782811689680099800,2.063099853515625,-0.25659634174406526,-0.7149784076362848,-1.9833418084174392
1782811689690172000,2.073171875,-3.40298298138082,-0.21365970181524752,-2.3588041835606095
1782811689700244000,2.083243896484375,-5.923461243453621,0.1581961732685566,-2.278681722314656
1782811689710315000,2.09331494140625,-6.7445362192869185,-0.5261018494218588,-1.6121096181899308
1782811689720387000,2.103386962890625,-6.362265333172679,-2.514740302942693,-0.17039039586596189
1782811689730459000,2.113458984375,-5.562237821543216,-4.525633550630509,0.45115255303010343
1782811689740530000,2.123530029296875,-5.67209871070981,-4.9457443380564445,-1.142949772369489
1782811689750602000,2.13360205078125,-7.383312261730432,-4.0737563365876674,-2.3195196363985535
1782811689760673000,2.143673095703125,-9.354171605193615,-3.110188660313189,-1.7422449413612484
1782811689770745000,2.1537451171875,-11.1560573607862,-1.9669830865517257,-1.2485754351191223
1782811689780817200,2.163817138671875,-12.36295594677925,-0.2599441908672452,-1.3611714483380317
1782811689790888200,2.17388818359375,-12.587788784515856,1.0634499000012874,-2.1161390442743895
1782811689800960000,2.1839599609375,-12.279759777176379,1.7647902429074047,-2.9527976659476756
1782811689811031000,2.194031005859375,-11.574428903329371,2.2350354728117585,-3.4179362203627823
1782811689821103000,2.20410302734375,-9.91022961694002,2.485788349224627,-3.2216721822455523
1782811689831175200,2.214175048828125,-6.813290022039413,2.394417348733544,-2.52057412366271
1782811689841246200,2.22424609375,-3.538004030767083,1.8900208429023622,-1.9671913224749267
1782811689851318000,2.234318115234375,-1.0964584356337785,1.1745689725354314,-1.6894268127568066
1782811689861390000,2.24439013671875,0.3049199354082346,0.7539018664009869,-1.4426901862479746
1782811689871461000,2.254461181640625,0.5370096124053001,0.48871743679270147,-1.2223394623614847
1782811689881533200,2.264533203125,0.22473931423425672,0.3690332188785076,-0.7201473347067833
1782811689891604000,2.27460400390625,-0.11142214713394641,0.5190206589892506,-0.08992226298749446
1782811689901676000,2.284676025390625,-0.8395797698169947,0.737981828213483,0.3930217049703002
1782811689911747800,2.294747802734375,-1.732775394487381,0.8438682607911526,0.8777946419209242
1782811689921819000,2.30481884765625,-1.8758663530826567,0.8305223108753561,1.2942311247482896
1782811689931891000,2.314890869140625,-0.819929312929511,0.5497248632021248,1.5383531848445533
1782811689941962000,2.3249619140625,0.9102139794886112,-0.03696545656472444,1.5132590755984185
1782811689952034000,2.335033935546875,2.55912392680943,-0.5908358951389789,1.2873714681118726
1782811689962106000,2.345106201171875,4.0258144357174634,-0.7711345946222543,1.2810507406577467
1782811689972177200,2.35517724609375,5.388956307345628,-0.7655763759732246,1.1925377599462865
1782811689982249000,2.3652490234375,6.564510491526127,-0.7081703350566327,1.1219742774233221
1782811689992321000,2.375321044921875,7.428452549183368,-0.6348104998134076,1.236971798826009
1782811690002392000,2.38539208984375,7.945032537022232,-0.493567214911431,1.4842644517824053
1782811690012464000,2.395464111328125,7.946845139402151,-0.26334391630813475,1.7649458718605338
1782811690022535200,2.40553515625,7.551172335401177,0.03068798373043537,2.0171260045975448
1782811690032607000,2.41560693359375,7.010079253074526,0.20847513878419993,2.1254700594604015
1782811690042679000,2.425678955078125,6.5533823637902735,0.1934809832699597,2.121138459996879
1782811690052750000,2.43575,6.286128434431553,0.0881612446643412,2.1261082112334666
1782811690062822100,2.445822265625,6.233153215569257,0.07754939588755369,2.239929236202687
1782811690072893200,2.45589306640625,6.291967223587632,0.06651990622058511,2.305684295530617
1782811690082965200,2.46596533203125,6.323043329852819,-0.03357245312556624,2.2635570722885427
1782811690093037000,2.476037109375,6.410044736957549,-0.142096686860919,2.177583108535409
1782811690103107800,2.48610791015625,6.545684210503101,-0.24827523425295947,2.0597299054406584
1782811690113180200,2.49618017578125,6.662143767282366,-0.2568089615814388,1.9654687364660202
1782811690123251000,2.5062509765625,6.617830578303336,-0.14426146367937326,1.9346711548812687
1782811690133323000,2.516322998046875,6.006502514755725,-0.029748364792764184,1.873942253152281
1782811690143395000,2.52639501953125,4.670117717149854,0.032589871829003095,1.53071289922446
1782811690153466000,2.536466064453125,2.777967168742418,0.1320716980613768,0.8735698638327419
1782811690163538000,2.546537841796875,0.5311339983701706,-0.00858706495091319,-0.09086071288138628
1782811690173610000,2.55660986328125,-2.0142291141122577,-0.22494185106903314,-1.1945398935489355
1782811690183681000,2.566680908203125,-4.478235547378659,-0.06228957517445087,-1.83741328830868
1782811690193753000,2.576753173828125,-5.729180195847153,0.09415098659843206,-1.657345913363248
1782811690203824000,2.58682421875,-6.088333241224289,0.0011249123767018317,-0.7885987935118377
1782811690213896000,2.59689599609375,-6.198524385258555,-0.3206172707557678,0.585142067411542
1782811690223968000,2.606968017578125,-6.278069046616554,-1.022385191424191,1.7621856133669613
1782811690234039000,2.6170390625,-6.389239264816045,-1.8936054233908652,1.9471642873600123
1782811690244111000,2.627111083984375,-6.866454041472077,-2.270912841878831,1.0407741039432585
1782811690254182100,2.63718212890625,-8.220339424455165,-1.8067796651139854,-0.2647002993531525
1782811690264254200,2.647254150390625,-9.504123097208142,-1.4991782355368137,-0.6178095345214009
1782811690274326000,2.657325927734375,-10.242361968922614,-1.797518792554736,-0.5874994441926479
1782811690284397000,2.66739697265625,-11.17321541633606,-2.1663450906842945,-1.1774025885261594
1782811690294469000,2.67746923828125,-12.149666247320175,-2.3551921305432915,-2.10801141352877
1782811690304540200,2.6875400390625,-12.53595455238223,-2.4385864530667662,-3.1279023039191958
1782811690314612200,2.6976123046875,-12.0494277575016,-2.608716225235164,-4.029297017136216
1782811690324684000,2.70768408203125,-10.704248828065396,-2.801380485294759,-4.376810770384967
1782811690334754800,2.7177548828125,-8.377822481018304,-2.8242738696262237,-4.120408197647333
1782811690344827000,2.727826904296875,-5.506470926135778,-2.945714721949398,-3.79408394742161
1782811690354899000,2.73789892578125,-2.7549405134201046,-2.8783243165045973,-3.304206380808353
1782811690364970000,2.747969970703125,-0.3427297338426113,-2.3853514142245054,-2.53324685049206
1782811690375042000,2.7580419921875,1.0872639063090086,-1.4857166964173316,-1.5959157314971089
1782811690385113000,2.768113037109375,1.4403694882154463,-0.5000488320156932,-0.8866388965032994
1782811690395185000,2.778184814453125,1.2697364427000284,0.04878185882568359,-0.674882251830399
1782811690405257000,2.788257080078125,0.9561989010721444,0.1925894412577152,-0.6618010903306305
1782811690415328000,2.798327880859375,0.7473381239712238,0.19574848981052637,-0.5629819657906889
1782811690425400000,2.808400146484375,1.0013953026264906,0.16468144363462925,-0.33615547001883384
1782811690435471000,2.81847119140625,1.821530951783061,0.18287381066828964,0.021015461630374193
1782811690445542100,2.828542236328125,3.270899154490232,0.22239362789094447,0.505884698562324
1782811690455614200,2.8386142578125,4.73116576783061,0.09053893358111381,0.994202030121535
1782811690465685200,2.848685302734375,5.696503668648004,-0.04760492400079965,1.3613345299452542
1782811690475757000,2.858757080078125,6.313863413575291,-0.07470949628651141,1.5756152862682937
1782811690485829000,2.8688291015625,6.70883596035242,-0.009895078809559345,1.702097639890015
1782811690495900200,2.878900146484375,7.032251337394118,0.09253566035628319,1.6698967673785983
1782811690505972200,2.88897216796875,7.320804659891128,0.2643698983550072,1.6347691937655209
1782811690516043300,2.899043212890625,7.479660758373141,0.562758093906939,1.7227686719968913
1782811690526115000,2.909114990234375,7.373482357111572,0.8687680165089666,1.9617061690621076
1782811690536187100,2.919187255859375,7.238299979683757,1.1638910727851093,2.188730233232677
1782811690546258200,2.929258056640625,7.084942478618025,1.41548829106763,2.3535195211559534
1782811690556330200,2.939330322265625,6.973132793471216,1.5283553763128817,2.4869991863191125
1782811690566401300,2.9494013671875,7.003733098918199,1.505160524816811,2.47261614844054
1782811690576473300,2.959473388671875,7.064006073573231,1.4624498025983572,2.4364389196440577
1782811690586545200,2.969545166015625,7.096164129856229,1.4006621855966745,2.3833317449651656
1782811690596616200,2.9796162109375,7.128180731841922,1.2254206233724951,2.189368969527632
1782811690606688300,2.989688232421875,7.0428224157691,1.0529910498291253,1.9710909602619706
1782811690616759300,2.99975927734375,6.732856302887201,0.9216077724233269,1.6894162913627921
1782811690626831400,3.009831298828125,6.279349734076857,0.7668284218609333,1.3769493015758691
1782811690636903200,3.019903076171875,5.741656231060624,0.67249331086725,1.1661857595935463
1782811690646974200,3.02997412109375,4.952089907690882,0.619323738476634,0.9748682379677891
1782811690657046300,3.04004638671875,3.7794022188574075,0.5499950584456325,0.5807172367066145
1782811690667118300,3.050118408203125,2.051159791624546,0.6716779028311372,0.2585796245157719
1782811690677189000,3.060189208984375,-0.4153104014068842,1.0361369456619023,-0.017150018373876807
1782811690687261200,3.07026123046875,-3.065726125991344,1.6195438598439096,-0.4013321449369192
1782811690697332200,3.080332275390625,-5.1664340846389525,2.0539061677232384,-0.9018154228471219
1782811690707404000,3.090404052734375,-6.530245818352699,1.8202651696309446,-1.4366570435635744
1782811690717476000,3.10047607421875,-7.283990302234888,0.7676490905940532,-1.3676622716620563
1782811690727547100,3.110547119140625,-6.947151964518428,-0.5985132978990674,-0.6470340946357697
1782811690737619200,3.120619140625,-6.335199047070741,-2.2763298984915017,0.4270263389680534
1782811690747690200,3.130690185546875,-6.180545076453686,-3.8672657957494256,1.3886179659292102
1782811690757762300,3.14076220703125,-6.199605166232586,-4.170962034581601,1.099166379418224
1782811690767834000,3.150834228515625,-6.874311769235134,-3.2568466637402773,-0.2480378453005105
1782811690777905200,3.1609052734375,-8.330209665971994,-2.908127918615937,-0.4003248675905168
1782811690787977200,3.170977294921875,-9.954718747007846,-3.213287800259888,-0.19576704838052392
1782811690798048300,3.18104833984375,-11.78390985815525,-3.1770179247438906,-0.653167482824251
1782811690808120300,3.191120361328125,-13.38082249173522,-2.886851321831345,-1.5727952604115008
1782811690818192100,3.201192138671875,-14.103295054519176,-2.626435421799123,-2.579072197599709
1782811690828263200,3.21126318359375,-13.651822037363052,-2.739288770779967,-3.5406007692620154
1782811690838335200,3.221335205078125,-11.714758580517769,-3.1974434576570987,-3.915266733330488
1782811690848407300,3.2314072265625,-8.361988367548584,-3.529389347156882,-3.4459278046160935
1782811690858478300,3.241478271484375,-4.6286412129014725,-3.4654295006826517,-2.6554911281526086
1782811690868550400,3.25155029296875,-1.0711971531271933,-3.1071307340472933,-1.9367584825493394
1782811690878621200,3.26162109375,1.64989603574872,-2.4061899118527768,-1.2250520823210478
1782811690888693200,3.271693359375,2.8046178597807883,-1.418887139725685,-0.6505594922829419
1782811690898765300,3.281765380859375,2.7049334967136383,-0.5085948343038559,-0.334166195897758
1782811690908836000,3.291836181640625,2.1763597042202947,0.18102146079987286,-0.1817636574693024
1782811690918908200,3.301908203125,1.8390268609851597,0.5807528925418853,-0.15169059076681732
1782811690928979200,3.311979248046875,2.0543331609636546,0.6503837703898548,-0.033724428816884755
1782811690939051300,3.32205126953125,2.916304210808873,0.5991767302438616,0.18957564639449118
1782811690949123000,3.332123046875,4.145518088984489,0.5743661141142249,0.5484497286997735
1782811690959194000,3.342194091796875,5.373487520056963,0.5487058954179287,0.8738729384325444
1782811690969266200,3.35226611328125,6.60034986667037,0.45878538599610325,1.1864274603724478
1782811690979337200,3.362337158203125,7.6707760354250665,0.3261138223454356,1.45211677076295
1782811690989409300,3.3724091796875,8.299600592696667,0.09261515533328056,1.5572016776993869
1782811690999481000,3.382481201171875,8.543993870949745,-0.07684913866370915,1.6082069116629658
1782811691009552100,3.39255224609375,8.72445974369347,-0.10436930601298808,1.6895245740428566
1782811691019624200,3.402624267578125,8.872809645730257,0.04748626605719328,1.8623840634360909
1782811691029695200,3.4126953125,8.83794700666368,0.2546510528951883,1.987747642160952
1782811691039767300,3.422767333984375,8.545085173317789,0.44752018787711856,2.058847715778649
1782811691049839400,3.43283935546875,8.141955039048195,0.6295839973367751,2.1343153369560834
1782811691059910400,3.442910400390625,7.810594840481877,0.7801254180684686,2.256326244252175
1782811691069982200,3.452982177734375,7.670735118892789,0.9147235658675432,2.353234566734731
1782811691080054300,3.46305419921875,7.6267282193839545,0.9626653206072747,2.4288256681613625
1782811691090125300,3.473125244140625,7.5447273970454924,1.002850031479448,2.4614415512144565
1782811691100197400,3.483197265625,7.3330433792173855,1.0617997947067022,2.525051853598654
1782811691110268200,3.49326806640625,6.878902019634842,1.1149018548190592,2.5513047774910924
1782811691120340200,3.50334033203125,6.472842261654138,1.1764033483557403,2.451794894208014
1782811691130412000,3.513412109375,6.101791857734322,1.1885156648233532,2.2636365672655403
1782811691140483000,3.523483154296875,5.660468478670716,1.133639434645325,1.974812172742188
1782811691150555100,3.53355517578125,5.210915031400322,1.045994761200994,1.7154352603688836
1782811691160626200,3.543626220703125,4.62741488597691,1.0260331925377248,1.5625219959393142
1782811691170698200,3.5536982421875,3.495125258505344,1.1615534236177802,1.2960294063419102
1782811691180770000,3.56377001953125,1.6425895121276377,1.3647519371733068,1.0526911900997162
1782811691190841000,3.573841064453125,-0.6752946320235729,1.483075241997838,0.7072633032143115
1782811691200913200,3.5839130859375,-3.1348563608407973,1.5979107047066092,0.14249313883259893
1782811691210984200,3.593984130859375,-5.264285971581936,1.5245651902496813,-0.24273608563058077
1782811691221056300,3.60405615234375,-6.504870554077625,0.8346642329856753,-0.613051161013171
1782811691231128300,3.61412841796875,-6.762410898673534,-0.7771653992190957,-0.2707072116177529
1782811691241199400,3.624199462890625,-6.0590095315843815,-2.9632419030725954,0.9286546221949159
1782811691251271200,3.634271240234375,-5.880934353369474,-4.658097609010339,2.1135047502480444
1782811691261342200,3.64434228515625,-7.696539422234892,-5.179586996200681,1.8840201411828397
1782811691271414300,3.654414306640625,-11.099928061807155,-4.251241732215881,0.5927121373396367
1782811691281486300,3.664486328125,-15.02127966800928,-2.974877103547752,0.37900063227191566
1782811691291557400,3.674557373046875,-18.570045331287382,-1.7939561316370962,0.1313843003191054
1782811691301629200,3.684629150390625,-20.79514714684486,-0.7362918292999268,-0.7898904407575726
1782811691311701200,3.694701171875,-20.725112072110175,-0.24384236637204884,-1.5558835808381437
1782811691321772000,3.70477197265625,-18.07744652301669,-0.5152195131406188,-1.9232814535997806
1782811691331844400,3.71484423828125,-14.028454040807485,-1.2128221308231353,-2.1609853172168134
1782811691341915100,3.7249150390625,-9.71046867661774,-1.7724536171421408,-2.428974282851815
1782811691351987200,3.7349873046875,-6.068255498835444,-2.3244100387886166,-2.7058593793869017
1782811691362059000,3.74505908203125,-3.333955622383952,-2.5826635000899434,-2.670330385366082
1782811691372130000,3.755130126953125,-1.1030307997614144,-2.3317136398002503,-2.3544296217381953
1782811691382202000,3.7652021484375,0.33301264194846153,-1.6164637217462061,-1.871660425825417
1782811691392273200,3.775273193359375,0.6320294907927513,-0.5056310160622001,-1.2810935568861663
1782811691402345200,3.78534521484375,0.3611123627513647,0.6417632415607571,-0.609816928332299
1782811691412417300,3.795417236328125,0.380080682593584,1.400032217130065,-0.08739310983605682
1782811691422488300,3.80548828125,0.6674772362709045,1.8536419540539384,0.21732304662838578
1782811691432560000,3.81556005859375,1.1325035624831914,1.7030486570045351,0.13045849071107804
1782811691442631200,3.825631103515625,2.010825443148613,1.0173594722166657,-0.26786957703903314
1782811691452703000,3.835702880859375,3.5283079816609617,0.15568535949140785,-0.5908578147098422
1782811691462775000,3.845775146484375,5.292957354792952,-0.551885109975934,-0.7241558396957815
1782811691472846000,3.85584619140625,6.9867761188983915,-1.0354676680982113,-0.7093946161545812
1782811691482918100,3.865918212890625,8.46634481408,-1.334055477875471,-0.5247098105415702
1782811691492989200,3.8759892578125,9.60487421272397,-1.3565358974918722,-0.21835399711132047
1782811691503061000,3.88606103515625,10.356523770153522,-1.169795474523306,0.16316387867853044
1782811691513133000,3.896133056640625,10.56988478128314,-0.852452987654507,0.6377839626662433
1782811691523204000,3.9062041015625,10.499164646893739,-0.499419740331918,1.1222668306291104
1782811691533276200,3.916276123046875,10.264400782251357,-0.14417173956930637,1.6299648622237144
1782811691543348000,3.926347900390625,9.714543378710745,0.25141893910616636,2.0600974235787985
1782811691553419000,3.9364189453125,8.965366933396458,0.5569274880573153,2.290913719639182
1782811691563491000,3.946490966796875,8.174902784404159,0.7058228951476514,2.3659733445376157
1782811691573562000,3.95656201171875,7.544068640875816,0.7880649788960814,2.3780003208093343
1782811691583634200,3.96663427734375,6.993142146798968,0.7976536221049726,2.3825771272055802
1782811691593706200,3.976706298828125,6.772742907595634,0.7684548540189862,2.4620249040603635
1782811691603777000,3.986777099609375,6.935638052335381,0.6623236529000103,2.5293314306139942
1782811691613849000,3.99684912109375,7.053978016033768,0.45139366830959915,2.4404348574124275
1782811691623919900,4.006919921875,6.896684344562888,0.30096432965025305,2.2319455439724027
1782811691633992000,4.016991943359375,6.527051406225562,0.18000395432040095,2.0692780705086884
1782811691644064000,4.02706396484375,5.9804684943109745,0.01312514677196741,1.8544437719561158
1782811691654135000,4.037135009765625,5.133236163914203,-0.08598799227848648,1.610747243795544
1782811691664207000,4.04720703125,3.929276553982496,-0.05637333686798811,1.397982298862934
1782811691674278100,4.057278076171875,2.262319493317604,0.031044395952671763,1.2030525780893861
1782811691684350000,4.067349853515625,0.5364385345190763,0.2281159510605037,1.1213827412709594
1782811691694422000,4.077422119140625,-1.1907476616591215,0.4633407112129032,0.9874613236896693
1782811691704493000,4.0874931640625,-2.581585933986306,0.7097910681262611,0.7830937663547695
1782811691714565000,4.097565185546875,-3.22849326043725,0.8875213784262538,0.5883869676169008
1782811691724636200,4.10763623046875,-3.518236669501662,0.6726444097757339,0.464084369187057
1782811691734708000,4.1177080078125,-4.345477182227373,0.14683306773304938,0.8615655377842485
1782811691744780000,4.127780029296875,-5.18982781970799,-0.5078767491623759,2.101342895550281
1782811691754851000,4.13785107421875,-5.737946270626783,-1.7088295784935355,3.3544904608905313
1782811691764923100,4.147923095703125,-6.718509213104844,-2.8469734849512576,3.40116424152106
1782811691774994200,4.157994140625,-8.002475256687402,-2.709131532925367,1.7055153393790126
1782811691785066200,4.168066162109375,-9.452135135817528,-1.8864122970163821,-0.04580919969044626
1782811691795138000,4.178137939453125,-11.101591611105203,-1.8862053762674331,-0.31173341481536626
1782811691805209000,4.188208984375,-12.754839295369386,-2.473236910687387,-0.19581665967591105
1782811691815281200,4.19828125,-14.146580069494247,-2.6828622424200175,-0.840065069115907
1782811691825352000,4.20835205078125,-15.54441506884098,-2.559362704001367,-1.9727553863428533
1782811691835424000,4.218424072265625,-16.61068119530678,-2.666356221038103,-3.3286820658951997
1782811691845496000,4.22849609375,-16.450613382947445,-3.0579557842507956,-4.629199431306123
1782811691855567000,4.238567138671875,-14.759399832904338,-3.6086888015821574,-5.40502949026823
1782811691865639000,4.248638916015625,-12.082771224176883,-4.126188826875389,-5.553859869298338
1782811691875710000,4.2587099609375,-8.53583160728216,-4.5580449971526855,-5.152407312852144
1782811691885782000,4.268781982421875,-4.754290038308501,-4.554453110140562,-4.310622726467251
1782811691895854000,4.27885400390625,-1.3632108452111482,-3.913526319403946,-3.23776202404201
1782811691905925000,4.288925048828125,1.2741992673277853,-2.7158693167477845,-1.9182487201295793
1782811691915997000,4.298996826171875,2.2126666968762874,-0.9598774434544145,-0.6071067925907672
1782811691926068000,4.30906787109375,1.40420044272542,0.7480877732947468,0.37988925167471166
1782811691936140000,4.31914013671875,0.13787526977360248,1.6932580614827573,1.1515933167479933
1782811691946212000,4.329212158203125,0.12292729148864745,1.928162649770081,1.5487782788775861
1782811691956283100,4.339283203125,0.2503209147363901,1.3753282762452959,1.5345377182096243
1782811691966355200,4.349355224609375,1.06437753624022,0.5597919375777244,1.033621017318219
1782811691976427000,4.359427001953125,2.8119243834018706,-0.07674816250726581,0.3576695288211107
1782811691986498000,4.369498046875,4.541673708066344,-0.5009799753859638,-0.09526128592789172
1782811691996570000,4.379570068359375,5.330938418141007,-0.7455712604291737,-0.4417736070491373
1782811692006641200,4.38964111328125,5.893815462252498,-0.6338245575159788,-0.4040716529034078
1782811692016713200,4.399713134765625,6.764997408035397,-0.34714652737155555,-0.11285758676454424
1782811692026785000,4.409784912109375,7.5724395798355335,-0.21985124993175267,0.2549322079241276
1782811692036856000,4.41985595703125,8.071954451104999,-0.08158902666717767,0.7978305130418389
1782811692046928100,4.42992822265625,8.02675980311632,0.18965864850282668,0.9765915546290576
1782811692056999000,4.4399990234375,7.910546914574503,0.5874452297873795,0.9460473632834852
1782811692067071000,4.450071044921875,7.698946483376622,0.9024113429136573,0.9160971923083067
1782811692077143000,4.46014306640625,7.475706467789411,1.1612326672308146,0.9002477351389825
1782811692087214000,4.470214111328125,7.304646136772632,1.2743692170672118,0.9641163961984217
1782811692097286000,4.480285888671875,7.246373396024108,1.2403313383869825,1.042048288597539
1782811692107357000,4.49035693359375,7.271991236883402,1.178765109051019,1.1332273467130958
1782811692117429000,4.500428955078125,7.312496265751123,1.3873735188260674,1.1685691475987434
1782811692127501000,4.5105009765625,7.3571899784803385,1.5881798765480517,1.204392009999603
1782811692137572000,4.520572021484375,7.353226920068264,1.507027195471525,1.224576281502843
1782811692147644200,4.53064404296875,7.397405669012666,1.273785718090832,1.116549329765141
1782811692157715200,4.540715087890625,7.275785368469357,1.0541893197029828,0.9250602509647607
1782811692167787000,4.550787109375,6.974456151029467,0.8698506971791387,0.7486126739516854
1782811692177859000,4.560859130859375,6.540273875892162,0.6409133467331528,0.5814358333047479
1782811692187930000,4.57093017578125,6.2146016598343845,0.3792486156836152,0.43519379026740784
1782811692198002200,4.581002197265625,5.88924099394381,0.16814093643873929,0.4247562020789832
1782811692208073200,4.5910732421875,3.6433307836353777,0.2136225846752524,0.294179491815716
1782811692218145000,4.60114501953125,-1.170211069586873,0.36430940522700545,0.0450959368545562
1782811692228217000,4.611217041015625,-3.6851404653608797,0.5335656094312667,-0.8228466616809368
1782811692238288100,4.6212880859375,-5.289933623057603,0.5472191639915108,-1.7089350846946239
1782811692248360200,4.631360107421875,-6.53789078014791,0.20859481964111326,-2.285029630036652
1782811692258431000,4.641430908203125,-7.410382639485597,-0.7925947312802076,-2.070186855916679
1782811692268503000,4.6515029296875,-7.495902283599972,-2.0039386062443256,-1.2841332168430089
1782811692278574800,4.661574951171875,-7.133691604217886,-2.4743995247259734,-0.8913130988594145
1782811692288646000,4.67164599609375,-6.913936508136987,-1.8798282424509525,-1.6402257056057452
1782811692298718000,4.681718017578125,-6.709646107691526,-1.103074638903141,-2.3516277160599826
1782811692308789000,4.6917890625,-6.329703372263908,-1.1682350933387875,-2.195501334802806
1782811692318861000,4.701861083984375,-6.08100041411817,-1.333966046026349,-1.3749524286702275
1782811692328933000,4.71193310546875,-5.811240054896474,-1.1078951909273862,-0.5864880021277815
1782811692339004200,4.722004150390625,-6.018937633436918,-0.9831514976665378,-0.40296763718426226
1782811692349076000,4.732075927734375,-7.5668351839572185,-1.0356643597140907,-1.1435117901664227
1782811692359147000,4.74214697265625,-9.44321533178091,-0.8331704872965813,-2.4380337876200673
1782811692369219000,4.752218994140625,-9.815199217158556,-0.3414715504750609,-3.282753842934966
1782811692379291100,4.762291015625,-8.033061533609033,0.10783405951410531,-3.2302883271604776
1782811692389362200,4.772362060546875,-5.143165437254309,0.40076749679148194,-2.648468682169914
1782811692399434000,4.78243408203125,-2.868158896321058,0.718398445212841,-2.0279794070452453
1782811692409505000,4.792505126953125,-1.4808394457697867,1.003227486489713,-1.4561074478343128
1782811692419577000,4.8025771484375,-0.5094733707040549,0.8777838282659649,-1.1784232368107885
1782811692429649200,4.812649169921875,0.40715515200197694,0.3191951289981603,-1.0918763685405253
1782811692439720200,4.82272021484375,1.1774842754602433,-0.25441081439852714,-1.0312523884907365
1782811692449792000,4.8327919921875,1.7620125948876142,-0.49745033995509147,-0.8848261479929089
1782811692459862800,4.84286279296875,1.9332769240438936,-0.5034146551869809,-0.6304392989918589
1782811692469934600,4.8529345703125,2.048067670828104,-0.40302097480669613,-0.24958617072105407
1782811692480006700,4.863006591796875,2.195263142132759,-0.14463219668790697,0.19545871308371424
1782811692490077700,4.87307763671875,2.253160035306215,0.11036898481920361,0.6354153338387608
1782811692500149800,4.883149658203125,2.32454301751852,0.08221388056725264,0.9710799516007304
1782811692510220800,4.893220703125,2.294509698304534,-0.1695363363198936,1.0933791743189096
1782811692520292900,4.90329296875,2.4607108988523483,-0.37475831852704283,1.1822592347770928
1782811692530364700,4.91336474609375,3.1587428478628397,-0.4237243017479777,1.2606310529634355
1782811692540435700,4.923435791015625,4.238224429732561,-0.2835170818954706,1.4574096164740622
1782811692550507800,4.9335078125,5.208322676819563,-0.027598347152024506,1.8212543267987666
1782811692560578800,4.943578857421875,5.892279338726401,0.3341971755579114,2.2934793323434888
1782811692570651000,4.95365087890625,6.1375160820662975,0.8306193415090442,2.7654405723854896
1782811692580722700,4.96372265625,6.1630000674128524,1.2528567657001315,3.10814429500401
1782811692590793700,4.973793701171875,6.212136731025576,1.4301444467991589,3.2355829264372584
1782811692600865800,4.98386572265625,6.3354369474798435,1.53467624989748,3.2066368179380893
1782811692610936800,4.993936767578125,6.501079345101117,1.5567609481945632,3.184388161250949
1782811692621009000,5.0040087890625,6.588260784947872,1.396059806367755,3.1391619490802287
1782811692631081000,5.0140810546875,6.411008029031753,1.2146098910227416,3.0300726288080213
1782811692641152000,5.024152099609375,6.123332073891162,1.0481675751954316,2.8039611494377255
1782811692651223800,5.034223876953125,5.682312061688304,0.8305246489629149,2.4494043458096684
1782811692661294600,5.044294677734375,5.12268788189292,0.5824994439482688,1.9366836637474596
1782811692671366700,5.05436669921875,4.517391499724984,0.27828122706860303,1.3361561034165321
1782811692681438700,5.064438720703125,4.001625750878453,-0.04006663745045662,0.7946779672950506
1782811692691509800,5.074509765625,3.54849093798995,-0.2131356779411435,0.43534635048061604
1782811692701581800,5.084581787109375,2.9808009406387805,-0.4160869387373328,0.1979037681482732
1782811692711652900,5.09465283203125,1.7718910148233173,-0.6338368324756622,-0.037901422240585084
1782811692721724700,5.104724609375,0.23401509210169313,-0.6665867171719669,-0.25469503816738726
1782811692731796700,5.114796630859375,-0.9827233353823422,-0.3993184670269489,-0.5020132639564574
1782811692741867800,5.12486767578125,-2.4914579192936417,-0.07256810034364461,-0.898965586373955
1782811692751939800,5.13493994140625,-4.553455915796756,-0.21964929761886595,-1.165339664158225
1782811692762011000,5.145010986328125,-6.644113605073094,-1.038278926126659,-1.1020539175532758
1782811692772082700,5.155082763671875,-8.002296977511048,-2.1770015092551707,-0.7959777978472411
1782811692782154800,5.16515478515625,-9.341627180919051,-3.0035876497253775,-0.3448549823682755
1782811692792225800,5.175225830078125,-10.956874512612819,-3.1271327808514235,-0.22742168518602845
1782811692802297900,5.1852978515625,-11.548777744722365,-2.5179116264551875,-1.1071396963849662
1782811692812369000,5.195368896484375,-10.614992335510253,-1.7857435990869999,-2.0204910971164702
1782811692822441000,5.20544091796875,-9.458923773044347,-2.098381853787601,-2.1176927034571764
1782811692832512800,5.2155126953125,-8.579140003132819,-2.8796330610156056,-1.7585966489642857
1782811692842583800,5.225583740234375,-7.969294287097454,-3.0629443863183257,-1.475764042201638
1782811692852655900,5.23565576171875,-7.737919480371475,-2.7347598951786756,-1.5564549509853123
1782811692862726700,5.2457265625,-7.425732768830657,-2.5964918266952037,-1.9319716866642236
1782811692872798700,5.255798828125,-6.746188078147172,-2.919090626657009,-2.2323053171955047
1782811692882871000,5.26587109375,-5.780747885999083,-3.241179139009118,-2.1133597888194022
1782811692892941800,5.27594189453125,-4.724633735713362,-3.2428900345802307,-1.694301871447265
1782811692903013600,5.286013671875,-3.691361531832814,-2.775117916791141,-1.2101505004610866
1782811692913084700,5.296084716796875,-2.5587989326387643,-2.0754417077049614,-0.8437409080844372
1782811692923156700,5.30615673828125,-1.490564720970392,-1.2380848746344446,-0.5757897902417928
1782811692933228800,5.316228759765625,-1.053237718066573,-0.43085693010687826,-0.46624081656858324
1782811692943297800,5.3262978515625,-0.8604974701613187,0.12571195377111435,-0.45883653166145083
1782811692953369900,5.336369873046875,-0.5470692341268062,0.42502544747442006,-0.5246536964401602
1782811692963441000,5.34644091796875,-0.28601942010521886,0.5099482947394252,-0.5028603823050857
1782811692973513000,5.356512939453125,0.01715454841852188,0.6561746287509799,-0.29314152707010505
1782811692983584800,5.366584716796875,0.39036768333017824,0.824595551174879,-0.011039572669565676
1782811692993655800,5.37665576171875,0.6663017627507448,0.84381258508116,0.1834897506095469
1782811693003728000,5.386727783203125,1.1456874537050723,0.8550029643982648,0.3649700610928237
1782811693013798700,5.396798583984375,1.9639894576936958,0.768691877645254,0.556543018784374
1782811693023870700,5.40687060546875,2.751773573821783,0.531110909755528,0.6761458420254289
1782811693033942800,5.41694287109375,3.494523785480857,0.33742315186709165,0.7924380794137715
1782811693044013800,5.427013916015625,4.369873372337222,0.2703980726033449,0.8800655094623565
1782811693054085600,5.437085693359375,5.3239387685120105,0.2842085712909698,1.0286496586464344
1782811693064156700,5.44715673828125,6.245823312050104,0.43533816717416046,1.2247114521898328
1782811693074228700,5.457228759765625,7.1426610926151275,0.6927431949526072,1.5314116951435803
1782811693084300800,5.46730078125,7.760716418591141,1.000540147101879,1.8522542990878224
1782811693094371800,5.477371826171875,7.832852849519252,1.3282815706491469,2.097545549093932
1782811693104444000,5.48744384765625,7.4759151421040295,1.6781301965862512,2.311085862313211
1782811693114515000,5.497514892578125,7.097053187650442,1.9210127780154347,2.467414195883274
1782811693124586800,5.507586669921875,6.9090130802601575,2.0625869023069736,2.51240543025434
1782811693134658800,5.517658935546875,6.860972395190596,2.074532483905554,2.4738959591180083
1782811693144729900,5.527729736328125,6.821303232625127,2.0661942791491748,2.436234629243612
1782811693154802000,5.537802001953125,6.754981040933727,2.074971459844708,2.3224539362847803
1782811693164873000,5.547873046875,6.465391361126303,2.1080936849847434,2.1305397639401256
1782811693174944800,5.55794482421875,5.960327039036154,2.1832330971211196,2.013249017033726
1782811693185016800,5.568016845703125,5.394962269762158,2.171489467835426,1.8379624466240405
1782811693195088000,5.578087890625,4.8818005659341805,2.027388455414772,1.5521454172231257
1782811693205160000,5.588159912109375,4.338578654885292,1.8759002553522586,1.1227975034397095
1782811693215230700,5.598230712890625,3.926848450052738,1.7367603724703191,0.6269078369300812
1782811693225302800,5.608302734375,3.5718607076615094,1.3840128102213143,0.35691637236624957
1782811693235374600,5.61837451171875,2.996950695928931,1.2214905904471873,0.33592845632992685
1782811693245445600,5.628445556640625,1.7745599417716265,1.6520733797878027,0.3679275957241654
1782811693255517700,5.638517578125,-0.07595861956477165,2.2950080032154916,0.15016491556949912
1782811693265588700,5.648588623046875,-0.8818167370438575,2.2872303549513218,-0.07666998270452022
1782811693275660800,5.658660888671875,0.9690648123860358,1.4258952649220824,0.07609327879510819
1782811693285732900,5.66873291015625,0.615235592380166,0.5461421824097633,0.2792318057917058
1782811693295804000,5.678803955078125,-0.23530396286845207,-0.7963783414721488,0.257740981734544
1782811693305875700,5.688875732421875,-0.20379472588300704,-2.8920751939594744,-0.2563037885382771
1782811693315946800,5.69894677734375,-0.6793997292548417,-5.031835060057044,-0.8670672039404511
1782811693326018800,5.709018798828125,-1.6376351045906543,-6.837554110202193,-1.1369074234653265
1782811693336092700,5.7190927734375,-2.4560212797313925,-6.997742334070801,-1.3801752778850496
1782811693346164700,5.729164794921875,-3.178712453702092,-5.434204146826267,-1.6402984785810113
