time,seconds_elapsed,z,y,x
1782812058358228700,0.073228759765625,-0.01053834514915943,-0.002496620855014771,-0.002468262410210445
1782812058368299800,0.0832998046875,0.004425999748706817,0.0007490739347878843,-0.00172697905623354
1782812058378370800,0.093370849609375,-0.015026888740062713,-0.01748668471602723,0.00362259267764166
1782812058388441900,0.10344189453125,-0.0012578911066055297,-0.014906404165551066,0.011812561769480817
1782812058398514000,0.113513916015625,0.003230652484297752,-0.022386567320488392,0.010309249101020395
1782812058408585000,0.1235849609375,0.0035299276918172836,-0.01774053161293268,0.0067622378436615685
1782812058418655700,0.13365576171875,0.010863923841714859,-0.014539881541253998,0.005192527141794562
1782812058428726800,0.143726806640625,-0.003651508244872093,0.00027896307185292245,0.01727414251046721
1782812058438797600,0.153797607421875,-0.009038461980223655,-0.0029939393852837382,0.00127971477934625
1782812058448868600,0.16386865234375,0.004729366609454154,0.013544714757753535,0.009143411058885977
1782812058458939600,0.173939697265625,-0.0005091185659170151,-0.014203324796957894,0.010317172112572007
1782812058469010700,0.1840107421875,-0.014725859966874122,-0.011888892108434811,0.000028052484127692876
1782812058479081700,0.194081787109375,-0.007843699237704277,-0.005662464474793523,-0.0029783947562798856
1782812058489152800,0.20415283203125,0.009063596421480179,-0.01618388588861562,-0.003426216155593283
1782812058499223600,0.2142236328125,0.004872574472427368,-0.011047317584604024,0.013555706509226
1782812058509294600,0.224294677734375,0.0042740240573883054,-0.00534268533536233,-0.00042898883468005803
1782812058519365600,0.23436572265625,-0.005451835665106773,-0.006108865668578073,0.01063296919662971
1782812058529436700,0.244436767578125,0.008164017233252524,-0.006640031669521704,-0.0008561738713411613
1782812058539507700,0.2545078125,0.003524666994810104,-0.0043607524927705525,-0.006048349386686459
1782812058549578800,0.264578857421875,-0.0008136544704437256,-0.005919937234045937,-0.00576529466160573
1782812058559649500,0.2746494140625,-0.0029079964011907576,-0.0035723785940557718,0.00980050499443896
1782812058569720600,0.284720458984375,-0.003956044149398804,-0.00441737805083394,0.0023017467368859797
1782812058579791600,0.29479150390625,-0.006499883413314819,-0.0035021355025935917,0.00532241429889109
1782812058589862700,0.304862548828125,-0.005903086563944816,-0.003519616360357031,0.003519483929616399
1782812058599933700,0.31493359375,-0.0015653496205806732,-0.010161346796620637,0.008227300860965623
1782812058610005500,0.325005615234375,-0.003810498198866844,-0.01911889816089533,0.011572953460481948
1782812058620076500,0.33507666015625,0.0023246435552835465,-0.009355921298405154,0.006538831750792451
1782812058630147600,0.345147705078125,-0.006056231299042702,-0.009600772038102149,-0.0025722844736883414
1782812058640218600,0.355218505859375,-0.010244330638647079,-0.0074467997414525595,-0.00872251876569353
1782812058650289400,0.365289306640625,-0.004259995532035828,0.005802247404819354,0.008763165869913063
1782812058660360400,0.3753603515625,-0.00007014262676239014,-0.011568217919860034,-0.008612980276881716
1782812058670431500,0.385431396484375,0.0006774608701467514,-0.0065868675770238035,-0.0013749872807879
1782812058680502500,0.39550244140625,0.007113046875596046,-0.010364413354359567,-0.009631719732214696
1782812058690573600,0.405573486328125,0.012201309925317764,-0.010823299570381641,0.005660829640133306
1782812058700644600,0.41564453125,0.0062158057749271385,-0.00676520155230537,0.01329737523344811
1782812058710715600,0.425715576171875,0.0101040453851223,-0.005734579862933606,0.01222400581431575
1782812058720786700,0.43578662109375,-0.013690087178349495,-0.011941380347497761,0.010252751407120377
1782812058730857700,0.445857666015625,0.0005254851788282394,0.000018768632551655173,-0.012253172543295658
1782812058740928800,0.4559287109375,0.007108370700478554,-0.006778161498578265,-0.0006667750793509185
1782812058750999800,0.465999755859375,0.0029179332733154295,-0.01525670630740933,0.011736857051611878
1782812058761070600,0.476070556640625,-0.0002262099713087082,0.002943615703843534,0.012944561474095099
1782812058771141600,0.4861416015625,-0.006661211454868316,-0.014358177431952208,0.0038565977963386103
1782812058781212700,0.496212646484375,-0.013994038560986518,-0.01432872300860472,-0.0012633527330122888
1782812058791283700,0.50628369140625,0.001419219148159027,0.003325472894590348,0.012773661886597983
1782812058801354800,0.516354736328125,-0.004120294800400734,-0.015459060479095205,0.0015458686019759625
1782812058811426600,0.526426513671875,-0.006962824749946594,-0.0005627758487593383,0.006149932897905819
1782812058821497600,0.53649755859375,-0.004269932404160499,-0.00879330984642729,-0.0018764613963663578
1782812058831568400,0.546568359375,0.006058569386601448,0.012251350478967651,-0.004922021371033042
1782812058841639400,0.556639404296875,-0.007709843724966049,-0.0023270821075420827,-0.00962995703339111
1782812058851710500,0.56671044921875,0.009647533789277076,0.00039289004141464826,0.0098256622685818
1782812058861781500,0.576781494140625,0.00486029951274395,-0.003543280363734811,0.01575481942212209
1782812058871852500,0.5868525390625,-0.005015782335400581,-0.011648160421429202,-0.0056933117042062805
1782812058881923600,0.596923583984375,-0.008756722429394721,-0.005332319204974919,0.005711262919427826
1782812058891994400,0.606994384765625,-0.01324585054218769,-0.006823480211338028,0.00034558030096814034
1782812058902065400,0.6170654296875,-0.00022737901508808136,0.005699024492362514,0.003904966982710175
1782812058912136400,0.627136474609375,0.006806757405400276,-0.010550035586953162,0.011112496341881342
1782812058922207500,0.63720751953125,-0.01129997717142105,0.003544568138523027,0.004830429530865513
1782812058932278500,0.647278564453125,-0.00007598784565925598,-0.0008565072314813733,-0.007143062987946904
1782812058942349600,0.657349609375,0.004562193349003791,-0.014883096355199812,-0.001928159617562778
1782812058952420400,0.66742041015625,0.0017190788775682448,-0.014116550695803016,0.003454236673680134
1782812058962491400,0.677491455078125,0.005458265405893325,-0.0011302552720997483,0.008885568406875245
1782812058972562400,0.6875625,0.006356091028451919,0.007312158777425065,-0.001972775077424012
1782812058982633500,0.697633544921875,0.01293956107199192,-0.009285751272179186,0.001476593624893576
1782812058992704500,0.70770458984375,-0.002773556366562843,-0.02014472494414076,-0.0008253083756193518
1782812059002775600,0.717775634765625,0.0027618659287691116,-0.008256499555986374,0.004603132714168168
1782812059012847600,0.72784765625,-0.008909867164492607,-0.004182829509442672,0.011271180335199459
1782812059022918400,0.73791845703125,-0.0020271219134330746,-0.00944726197682321,0.010651208106218836
1782812059032989400,0.747989501953125,-0.0030745851397514343,-0.011364292845595628,0.01903654907310847
1782812059043060500,0.758060546875,-0.01908697778582573,0.010573900519730523,-0.0015101442680461332
1782812059053131500,0.768131591796875,0.003209609696269035,0.009309296544548123,0.00537324943698477
1782812059063202600,0.77820263671875,0.005303951627016067,-0.004090173656772822,0.013139700453705154
1782812059073273600,0.788273681640625,0.0072474869102239605,-0.0015908493880182504,0.009123614946450106
1782812059083344400,0.798344482421875,0.0024579145461320877,0.0031434582580346614,0.006274015935300849
1782812059093415400,0.80841552734375,-0.004125555497407913,0.004922423229832202,0.013183987120003439
1782812059103486500,0.818486572265625,-0.0029296237111091613,-0.0020375519759021697,0.005383496836363338
1782812059113557500,0.8285576171875,-0.011311667609214782,0.0006544544538948685,0.0062939033792819826
1782812059123628500,0.838628662109375,-0.001135141509771347,0.00016364786280319093,-0.005562310302257538
1782812059133699600,0.848699462890625,0.006944120049476623,0.006053664882620796,-0.009420670797419733
1782812059143770400,0.858770263671875,0.008440496087074279,-0.006051956982724368,0.0059459484581369905
1782812059153841400,0.86884130859375,-0.004278115710616112,-0.00742688946458511,0.007125303568970412
1782812059163912400,0.878912353515625,-0.01550327408015728,-0.003531005404051393,0.007211625578976236
1782812059173983500,0.8889833984375,0.004848609074950218,-0.01900250523961149,0.028215529202297328
1782812059184054500,0.899054443359375,0.0008083937734365463,-0.01366940971650183,0.012870834084181115
1782812059194125600,0.90912548828125,0.004399111741781234,-0.0022318872379139066,0.005011645016400143
1782812059204196600,0.919196533203125,0.014424246671795845,0.007116554006934166,0.01591859514908865
1782812059214267400,0.929267333984375,0.0035001170754432676,-0.0071029456066899,0.018384925897116773
1782812059224338400,0.93933837890625,-0.008171031495928764,-0.014342349675158038,0.013636895686388015
1782812059234409500,0.949409423828125,0.012031214055418968,-0.003924607831519097,0.005235306837595999
1782812059244481500,0.9594814453125,-0.0033808746099472046,-0.0012892269597854465,0.006002592282509431
1782812059254552600,0.969552490234375,-0.009965513697266578,-0.009603128391969949,0.016686949173081667
1782812059264623600,0.97962353515625,-0.003531681257486343,0.006171765703801065,0.01696979840218555
1782812059274694700,0.989694580078125,-0.015952186891436577,0.0020472970517817885,-0.007627645334228873
1782812059284765400,0.999765380859375,-0.006824293062090874,0.0024647644120268522,0.01578725125384517
1782812059294836500,1.00983642578125,-0.008622282394766806,0.0015493392006959766,-0.005203468660917133
1782812059304907500,1.019907470703125,0.009632336220145225,-0.008544924575928599,0.004668809228367172
1782812059314978600,1.029978515625,0.013822189125418662,-0.010354366884380578,-0.0037185775651363655
1782812059325049600,1.040049560546875,0.00783610045313835,0.0037467396471183743,0.009293916312325744
1782812059335120600,1.05012060546875,0.01591360844671726,0.002602939906856045,0.009834799989685415
1782812059345191400,1.06019140625,0.020254267999529837,-0.006758095958083868,0.012660200707917102
1782812059355262500,1.070262451171875,0.01038110876083374,-0.00009157814043574034,-0.006287966828839853
1782812059365333500,1.08033349609375,-0.002336333993077278,-0.0013612144837621598,0.012877190759731457
1782812059375404500,1.090404541015625,0.0017015432208776474,0.006723143375711515,0.006156723398296162
1782812059385475600,1.1004755859375,-0.0030897827088832855,-0.005513767585949972,-0.009811916871019639
1782812059395546600,1.110546630859375,0.0015466449201107025,0.0033271716613322492,0.029279254010249858
1782812059405617400,1.120617431640625,0.012170330265164375,-0.010546692852396518,0.006623281464120373
1782812059415688400,1.1306884765625,0.0004991816937923431,0.006174816177412867,0.007325146123161539
1782812059425759700,1.140759765625,-0.0030921207964420315,-0.011951664279494434,0.012222119817906059
1782812059435830800,1.150830810546875,0.009924597164988518,-0.0043764341190923005,0.019360698426980523
1782812059445901800,1.16090185546875,0.009176993668079376,-0.0051178179377689955,0.0029080466335406527
1782812059455972900,1.170972900390625,-0.008179799324274062,0.0013917192198801785,0.005801416287757456
1782812059466045000,1.181044921875,0.002592354580760002,-0.007630485745286569,0.011854656478692776
1782812059476116000,1.191115966796875,-0.01341886902153492,-0.010722487810719758,0.01219165618098341
1782812059486186800,1.201186767578125,-0.0017477204501628876,-0.009193725607171655,0.01429204882660415
1782812059496257800,1.2112578125,0.00244037888944149,-0.0016303228818811476,0.01242097599140834
1782812059506328800,1.221328857421875,0.00034486791491508483,-0.008626830705720932,-0.006151942191901617
1782812059516399900,1.23139990234375,-0.015817162334918974,-0.011995613019075244,-0.019695309809362516
1782812059526471000,1.241470947265625,0.001391162097454071,-0.005418527050549164,0.00333200310007669
1782812059536542000,1.2515419921875,-0.009981295788288116,0.0023899273438379165,0.031225177613366392
1782812059546612700,1.26161279296875,-0.015667524731159208,0.00929117636596784,0.006921520058601163
1782812059556683800,1.271683837890625,-0.006838321587443351,0.0037692985387984663,0.0009713292501866816
1782812059566754800,1.2817548828125,-0.007584756040573119,-0.003860821880307048,-0.00482642920918297
1782812059576825900,1.291825927734375,-0.016710896304249764,-0.003197499133367091,0.0034923356277868148
1782812059586897000,1.30189697265625,-0.00279459915459156,0.0026611546338070184,-0.003594622391904704
1782812059596968000,1.311968017578125,-0.004743395134806633,-0.017940931289549916,-0.005569288032315671
1782812059607038700,1.322038818359375,-0.00863221926689148,-0.012512357769021763,-0.005159446856100112
1782812059617109800,1.33210986328125,0.010970306825637816,0.00383389734076336,0.017025428446405567
1782812059627180800,1.342180908203125,-0.00803483789563179,-0.0008838518961332738,0.017088972369022667
1782812059637251800,1.352251953125,-0.018060557347536085,0.004017939537623897,0.004354957506223582
1782812059647323000,1.362322998046875,-0.0010024550408124922,-0.0019722681873477993,0.007198629100085236
1782812059657394000,1.372393798828125,0.0010918868899345397,-0.009392271253420039,-0.0018941888493020087
1782812059667464700,1.382464599609375,0.009922843599319458,-0.016459615823766215,0.006357794361771084
1782812059677535700,1.39253564453125,-0.007882277682423592,-0.00939349509612657,0.0047091138392919675
1782812059687606800,1.402606689453125,-0.0005506196200847625,-0.0008076448547653854,-0.010298695740965194
1782812059697678800,1.412678955078125,0.006931260567903518,0.0026596659296192226,0.0007105320226866752
1782812059707750000,1.42275,0.0012450316250324249,-0.000023280410887673495,0.004882958869123831
1782812059717821000,1.432821044921875,-0.013418284499645232,-0.01205695128487423,0.004201607275148854
1782812059727892000,1.44289208984375,-0.005488076022267341,-0.006627802375610918,-0.0027298816216178236
1782812059737962800,1.452962646484375,0.0024421324551105496,0.004646227503800764,0.002014878919790499
1782812059748033800,1.46303369140625,-0.00040098201632499694,0.005556976540014147,-0.00149567735127639
1782812059758104800,1.473104736328125,-0.0013005612045526504,-0.0010463307151570916,0.006543256764160469
1782812059768175900,1.48317578125,-0.0010018705189228057,0.006038649976579472,0.017599205179791896
1782812059778247000,1.493246826171875,0.006480009669065475,-0.01773294196152128,0.004880333087197505
1782812059788318000,1.50331787109375,0.005734159737825394,-0.00002208396764472127,-0.0010530161842703819
1782812059798388700,1.513388671875,0.0024409634113311766,-0.00010480294818989932,0.008366179608693345
1782812059808459800,1.523459716796875,0.008128361397981643,-0.002609223517170176,-0.01578979940395802
1782812059818530800,1.53353076171875,-0.0068348144561052315,-0.003521945314761251,-0.021407283092709256
1782812059828601900,1.543601806640625,-0.0033919805258512494,-0.011779175523109734,-0.007038474668888375
1782812059838673000,1.5536728515625,0.0036404023289680477,0.0012792718213517219,-0.005781679540826008
1782812059848744000,1.563743896484375,0.007229366731643676,-0.006821160390088335,-0.005357681975094601
1782812059858814700,1.573814697265625,-0.005043839386105537,-0.004313196157151833,-0.0018640311730559913
1782812059868885800,1.5838857421875,-0.022851298755407333,0.006941818494535982,-0.007410778580000624
1782812059878956800,1.593956787109375,-0.012825579303503035,-0.016533850103756412,0.011228003347176127
1782812059889027800,1.60402783203125,0.003633388066291809,0.0025588541699573396,-0.002995492021553218
1782812059899099000,1.614098876953125,-0.00743921009004116,-0.004952891433332115,-0.0076954727063188325
1782812059909170000,1.624169921875,-0.010581599768996239,-0.009127336706919596,0.017570001918193884
1782812059919240700,1.63424072265625,0.006174889242649078,-0.004762446895148605,-0.017436671561840922
1782812059929311700,1.644311767578125,0.015752280405163764,0.0038577714066952463,-0.0037947526404634117
1782812059939382800,1.6543828125,-0.009535305586457252,-0.017000134174944833,0.006261357383127324
1782812059949454800,1.664454833984375,0.007075637474656104,-0.002744951326586306,-0.002044730635359883
1782812059959526000,1.67452587890625,0.002286649632453918,-0.014965148615464567,0.012722424889705142
1782812059969597000,1.684596923828125,-0.008637479963898659,0.008105291049648076,-0.004989086124720051
1782812059979668000,1.69466796875,-0.0008580781340599059,-0.0048244427480734885,-0.007869600863941013
1782812059989739000,1.704739013671875,0.006772270613908767,-0.007154593595536426,0.007753344939975067
1782812059999809800,1.714809814453125,0.002280219891667366,-0.0005363901653327048,0.008182228743378072
1782812060009880800,1.724880859375,-0.008792378264665604,0.0004494882000144571,0.002145167935686186
1782812060019951900,1.734951904296875,-0.0019084639698266981,-0.015016367346048354,0.014425844973837957
1782812060030023000,1.74502294921875,0.005275894576311111,-0.003446916450327262,-0.0030657396795926613
1782812060040094000,1.755093994140625,0.0016840075641870497,0.01287232278836891,0.010100428655929862
1782812060050165000,1.7651650390625,-0.002354454171657562,0.008275980574591085,0.007859499595034868
1782812060060235800,1.77523583984375,-0.020609072786569593,-0.00526690755225718,-0.0008519771868363023
1782812060070306800,1.785306884765625,-0.0066927756369113914,0.0017535656690597532,-0.011886531187989748
1782812060080377900,1.7953779296875,-0.005046177473664284,0.008449053852865472,0.003417388961743563
1782812060090449000,1.805448974609375,-0.0019026187509298324,-0.011216554937977343,0.008054944535321556
1782812060100520000,1.81552001953125,-0.010582768812775612,0.00008593385093845427,0.007034825973655096
1782812060110591000,1.825591064453125,-0.002353285127878189,-0.006864552007243037,0.0029508856948465105
1782812060120661800,1.835661865234375,0.0012380173623561857,-0.0028363285376224665,0.01855504003332462
1782812060130732800,1.84573291015625,0.000339022696018219,-0.0030557434419635683,-0.005862475992343388
1782812060140803800,1.855803955078125,0.008268062129616737,-0.002813979708496481,0.010063165385462343
1782812060150875000,1.865875,0.0021346739411354063,0.0012201072463300078,0.0016310352679342031
1782812060160946000,1.87594580078125,-0.02285363684296608,-0.0003738382810726762,0.0012848704450763762
1782812060171017000,1.886016845703125,-0.0008563245683908462,-0.00953495852658525,-0.00502511185274925
1782812060181087700,1.896087646484375,0.0004904138654470443,-0.010267501451680436,-0.007230339412600733
1782812060191159800,1.906159912109375,-0.006541968989372253,0.011867109534889458,0.0024760895236395296
1782812060201230800,1.91623095703125,-0.005494505763053894,-0.016268239703821016,0.013098267898196354
1782812060211302000,1.926302001953125,-0.005047346517443657,0.0014808222754392772,0.0009442037812434136
1782812060221373000,1.936373046875,-0.00040741175711154934,-0.002491880747815594,-0.009891585377953014
1782812060231444000,1.94644384765625,0.0019873744249343872,0.005160131842689588,0.010091916555911302
1782812060241515000,1.956514892578125,0.004829319852590561,-0.002394822714664042,0.003736711443448439
1782812060251585800,1.966585693359375,0.000339022696018219,-0.0008576945415697991,0.0009719685710035264
1782812060261656800,1.97665673828125,-0.013277999246120453,0.007073902175296098,0.007455074379453435
1782812060271727900,1.986727783203125,-0.009983633875846862,-0.00712620775126852,0.014871716444659977
1782812060281799000,1.996798828125,-0.0063935004293918605,-0.026634132629213852,-0.0026585699510760603
1782812060291870000,2.006869873046875,-0.0014537059396505356,-0.005337406372046098,-0.0023339456731686367
1782812060301941000,2.01694091796875,-0.0029489129334688184,0.00015138203627429903,-0.004073386918753385
1782812060312011800,2.02701171875,-0.008336451190710067,-0.006075904113892466,0.008587169982190243
1782812060322082800,2.037082763671875,-0.012075053197145462,0.007683202313212677,0.002983221628447063
1782812060332153900,2.04715380859375,-0.008932078996300696,-0.005191668625269085,0.0014124971464276313
1782812060342225000,2.057224853515625,-0.01387070444226265,0.0038037944634445008,-0.005293471332197077
1782812060352296000,2.0672958984375,-0.0027981062859296795,0.005469279990252107,0.022316863085143267
1782812060362367000,2.077366943359375,-0.0004068272352218628,-0.003749598324485123,-0.0053524349778192115
1782812060372437800,2.087437744140625,0.009769698864221573,-0.008904871328966692,0.0005841200308874249
1782812060382508800,2.0975087890625,0.009022095367312431,-0.004151210528472438,0.011522844408173114
1782812060392579800,2.107579833984375,-0.003099135059118271,0.0006612951866351068,0.009395426758308895
1782812060402651000,2.11765087890625,0.0160556472659111,0.0010263199735898523,0.00931258448017761
1782812060412722000,2.127721923828125,-0.00938157632946968,-0.01581064126258716,-0.014724745722021907
1782812060422792000,2.1377919921875,0.0061813189834356306,-0.009387403282057493,-0.0016766051424434408
1782812060432863000,2.147863037109375,-0.007285480833053588,-0.004892210754659026,-0.00765692622764036
1782812060442934000,2.15793408203125,-0.009079963034391403,-0.012011559506878256,0.012947347086225636
1782812060453006000,2.168006103515625,-0.0021948796957731247,-0.006896134455595165,0.011865374235529452
1782812060463077000,2.1780771484375,-0.008177461236715316,-0.01738012820216827,-0.0010915991955669597
1782812060473148000,2.18814794921875,0.0037941315859556196,-0.007668927192687988,0.0018320833985228091
1782812060483219000,2.198218994140625,0.00035363574326038356,-0.012627883040625601,-0.012105028210300952
1782812060493290000,2.2082900390625,-0.008925649255514144,-0.009355071915034204,0.01912208563182503
1782812060503361000,2.218361083984375,-0.0023421792119741438,-0.005707070801500231,-0.013545089217089116
1782812060513432000,2.22843212890625,0.0042418753534555435,-0.003121940545970574,-0.02016470828624442
1782812060523503000,2.238503173828125,-0.006531447595357894,-0.007042812917288393,-0.0018671638450585306
1782812060533574000,2.248573974609375,0.0005026888251304626,0.0011318901067599654,0.0024297570307273415
1782812060543645000,2.25864501953125,-0.0020434885263442993,0.0006711315940599889,0.011587068750802426
1782812060553716000,2.268716064453125,-0.017605799317359925,-0.0010911745038814842,-0.004481853555212728
1782812060563787000,2.278787109375,-0.0033908114820718764,0.0017600228093098847,-0.0036298078697174787
1782812060573858000,2.288858154296875,-0.0011474164694547653,0.004680303303338587,0.010590764889563432
1782812060583929000,2.29892919921875,-0.002493570381402969,-0.005843118271324783,0.01309993013232015
1782812060594000000,2.308999755859375,-0.010426116946339607,0.006527785200392827,0.003773641353775747
1782812060604071000,2.31907080078125,0.0025946926683187484,0.005668638487253338,-0.011748113664565607
1782812060614142000,2.329141845703125,-0.007881108638644219,-0.009361784783611073,0.003569076958694495
1782812060624213000,2.339212890625,-0.003240589356422424,-0.022638368390779942,-0.004363953663432039
1782812060634284000,2.349283935546875,0.002144610813260078,-0.020432693306356668,0.011709763548709451
1782812060644355000,2.35935498046875,-0.009227847072482108,-0.003525004921527579,0.002968033192469738
1782812060654425900,2.36942578125,0.007682371196150779,-0.009549169715028255,0.00037139516223687677
1782812060664497000,2.379496826171875,0.004690203642845153,-0.00404132041321136,-0.00849914007228799
1782812060674568000,2.38956787109375,-0.006833060890436172,-0.009957074662484229,0.0035621311946772037
1782812060684639000,2.399638916015625,-0.001146247425675392,0.001550800505420193,0.004126729107764549
1782812060694710000,2.4097099609375,0.0009475099831819534,0.0008532010295428335,-0.002876505284383893
1782812060704781000,2.419781005859375,0.003937339448928833,-0.013461493453709408,-0.012409395151468924
1782812060714851800,2.429851806640625,-0.004147182807326316,-0.005524526441982015,-0.0024755552340997382
1782812060724924000,2.439923828125,0.00827449187040329,-0.00009786175074987113,0.004239222172065638
1782812060734995000,2.449994873046875,0.010068389549851417,-0.003431499685486778,-0.007269735274650156
1782812060745066000,2.46006591796875,-0.017014847686886787,0.005657121579395607,0.007607205334398895
1782812060755137000,2.470136962890625,0.0046831893801689145,-0.00003610335984267294,-0.021541408033506012
1782812060765208000,2.4802080078125,0.0019897125124931333,-0.010822093993984162,0.006985150746186264
1782812060775279000,2.490279052734375,-0.004144260197877884,-0.010903881392767652,0.017204086648672817
1782812060785350000,2.500349853515625,-0.016265490624308584,-0.010892464949609711,0.012193697441020048
1782812060795421000,2.5104208984375,0.0004956745624542236,-0.00785941739664413,0.006145553550310432
1782812060805492000,2.520491943359375,0.001246200668811798,0.0042689551566261795,0.00035812012213282286
1782812060815563000,2.53056298828125,-0.0048895256072282785,0.01553307556337677,-0.0038542186095844953
1782812060825634000,2.540634033203125,0.007082651737332343,0.0009635843351483344,-0.006013246107264421
1782812060835705000,2.550705078125,-0.010272972211241722,-0.0024775325620546938,0.01053039473814424
1782812060845776000,2.56077587890625,-0.018950199663639068,-0.006947453650878742,0.017550461534084752
1782812060855847000,2.570846923828125,0.010677461358904837,-0.0035961521952878684,0.015134157639974727
1782812060865918000,2.58091796875,-0.0005441898792982101,0.0043042091330979014,0.007366870939615182
1782812060875989000,2.590989013671875,-0.012214169406890869,-0.016043573235627263,-0.0056281786127015945
1782812060886060000,2.60106005859375,-0.004133738803863525,-0.005571123796375468,-0.015402087861159815
1782812060896131000,2.611131103515625,0.006492284628748893,-0.013875462815770878,0.007974289647699332
1782812060906201900,2.621201904296875,-0.003382628175616264,-0.02396510521620512,0.007058174883201718
1782812060916273000,2.63127294921875,-0.004579729005694389,-0.0086946443780791,0.004923117349576205
1782812060926344000,2.641343994140625,-0.003084522011876106,-0.0026411804248578845,-0.008394743549474514
1782812060936415000,2.6514150390625,0.005744096609950065,-0.01203433759426698,0.005094975918298587
1782812060946486000,2.661486083984375,-0.012211831319332123,-0.021817708790814502,-0.0014216577004175631
1782812060956557000,2.67155712890625,-0.011614449948072432,-0.0025594752244651317,-0.006061565061286091
1782812060966627800,2.6816279296875,0.008286766830086707,0.023207363917771725,-0.008432299080886878
1782812060976699000,2.691698974609375,0.008736848685145378,0.001741701701330021,-0.00002864157259464264
1782812060986770000,2.70177001953125,-0.014458148941397667,-0.008950664965761825,0.009300524149625561
1782812060996842000,2.711842041015625,-0.018050035953521726,-0.01311222335831262,0.004192716149217449
1782812061006913000,2.7219130859375,-0.009369301369786262,-0.0058737691379152236,0.006903600809420459
1782812061016984000,2.731984130859375,-0.004580898049473763,-0.007262702745664864,0.007090003926726058
1782812061027055000,2.74205517578125,-0.0005406827479600906,-0.007832666387036443,0.0008122296983376144
1782812061037126100,2.752126220703125,-0.004881926822662353,-0.003244754074886441,0.003670651336759329
1782812061047197000,2.762197021484375,-0.006226911690831184,0.004245537748420611,0.007472148811840452
1782812061057268000,2.77226806640625,0.0075397478550672525,0.0021435513673350214,0.004609119496960193
1782812061067339000,2.782339111328125,0.00005669862329959869,0.014225938487565143,0.004422666147304698
1782812061077410000,2.79241015625,-0.003234744137525558,-0.014119829498277977,-0.009789453877462074
1782812061087481000,2.802481201171875,0.007540332376956939,-0.002359404341410845,-0.000138983779004775
1782812061097552100,2.81255224609375,-0.0003916296660900116,-0.008446213441807775,-0.00041859073825180527
1782812061107623000,2.822622802734375,-0.01161503446996212,-0.0004689874849282205,0.004595387799129821
1782812061117694000,2.83269384765625,-0.011315174740552901,0.00523305094842799,0.013928156550810672
1782812061127765000,2.842764892578125,0.012480126866698265,-0.0007951963651459664,-0.006461512747860979
1782812061137836000,2.8528359375,0.00993628760278225,-0.016344784671906382,0.00484437129124999
1782812061147907000,2.862906982421875,-0.003831540986895561,0.015423742570541799,-0.006394459410617128
1782812061157978000,2.87297802734375,0.006642506754398345,-0.00654856312694028,0.0025773077086778356
1782812061168049000,2.883048828125,-0.0011368950754404067,-0.0042567441290244454,0.0047604924000799655
1782812061178120000,2.893119873046875,-0.005176525855064392,-0.0008355466418433934,-0.013959254941972903
1782812061188191000,2.90319091796875,0.0006581716477870941,-0.0206556884072721,-0.0076982103693881065
1782812061198262000,2.913261962890625,-0.008019640326499938,-0.009011921033170073,0.008023866693757008
1782812061208333000,2.9233330078125,0.0020078326910734174,0.0011694547713268547,0.00024817977452185004
1782812061218404000,2.933404052734375,-0.0035299276918172836,0.0049935065715108065,0.004366115937766153
1782812061228475000,2.943474853515625,-0.003229483440518379,-0.017693194473022596,0.004528738603973761
1782812061238546000,2.9535458984375,-0.01729483367204666,-0.0016004300671163946,-0.003308654190530069
1782812061248617000,2.963616943359375,-0.007268529698252677,0.012261753141973166,-0.002302541321329772
1782812061258688000,2.97368798828125,-0.0015805471897125244,0.008545463432045652,0.009505421904847025
1782812061268759000,2.983759033203125,0.0009644611179828644,-0.012084442079998552,-0.0062127050689654425
1782812061278830000,2.993830078125,-0.0011304653346538543,-0.01133856474929489,-0.010945222616731188
1782812061288900900,3.00390087890625,-0.004871989950537681,-0.009927346244500949,0.005146989233326167
1782812061298973000,3.013972900390625,-0.01115618478655815,0.005428975379327312,-0.0004481319265672937
1782812061309044000,3.0240439453125,-0.007115969485044479,-0.0039276309056673194,0.014962351586890871
1782812061319115000,3.034114990234375,-0.014449381113052367,-0.002509343339269981,0.016181269239843823
1782812061329186000,3.04418603515625,0.0014145429730415343,-0.014159777916176244,0.014963292301807086
1782812061339257000,3.054257080078125,-0.0012789338946342468,0.00497516719722189,0.007382990957354195
1782812061349328100,3.064328125,0.007400047123432159,0.0033583339845761656,-0.008336323326546699
1782812061359399000,3.07439892578125,-0.005468202278017998,0.00047501536691561336,0.007478405022691003
1782812061369470000,3.084469970703125,-0.004269932404160499,-0.00931409145067446,-0.006306482016353402
1782812061379541000,3.094541015625,0.014134323814511298,-0.006123825775692239,-0.00855940519243013
1782812061389612000,3.104612060546875,-0.012649638214707375,0.0025192802113946527,-0.006074666571454145
1782812061399683000,3.11468310546875,-0.002026537391543388,0.0030459161676932123,-0.0057933471457334235
1782812061409754000,3.124754150390625,-0.0020259528696537016,0.0033203309285920113,-0.0005640430739498697
1782812061419825400,3.134825439453125,-0.012351532050967215,-0.003078749858215451,0.004530044645071029
1782812061429896400,3.144896484375,0.0011158522874116898,0.008410448008682578,-0.002487789094587788
1782812061439967200,3.15496728515625,-0.009657470661401749,0.008099966420559213,0.003869290597841609
1782812061450038300,3.165038330078125,0.012339841613173485,-0.011539813809283078,-0.00565261208434822
1782812061460109300,3.175109375,-0.002177344039082527,-0.00780565051594749,-0.016232684333249925
1782812061470180400,3.185180419921875,-0.016991466811299323,-0.0007692673394456505,0.0005258071225252934
1782812061480251400,3.19525146484375,-0.016689853516221046,-0.009879104922292754,-0.004941449873999227
1782812061490322400,3.205322509765625,-0.0012765958070755003,-0.01443943510777317,0.004017629010370001
1782812061500393200,3.215393310546875,-0.01354863288104534,-0.0016389811123721301,0.004359718163020443
1782812061510464300,3.22546435546875,-0.008161679145693778,-0.006985840299353003,0.0029051011912059038
1782812061520535300,3.235535400390625,0.004110357928276062,-0.0024349811951164153,0.003801860517973546
1782812061530606300,3.2456064453125,-0.009209726893901824,-0.00606172032491304,-0.0030976280886214225
1782812061540677400,3.255677490234375,0.006201777249574661,-0.0036211679055355487,0.004578674126346595
1782812061550748400,3.26574853515625,-0.003075169661641121,-0.010678027614485473,-0.011793103583762421
1782812061560819200,3.275819091796875,-0.009210311415791511,0.0007109612809494138,-0.006305555001168977
1782812061570890200,3.28589013671875,-0.005170680636167526,0.0024039558691903947,0.007203755083063151
1782812061580961300,3.295961181640625,-0.007264438045024872,-0.019366908972058443,0.01165344851789996
1782812061591032300,3.3060322265625,-0.010703764843940734,0.002476509648747742,-0.0011080639898893422
1782812061601104400,3.3161044921875,-0.005765139397978783,-0.00809809412388131,-0.00847137756581651
1782812061611175400,3.326175537109375,0.015185294172167777,-0.0011415712505578994,-0.00571670171294827
1782812061621246500,3.33624658203125,-0.008607084825634955,-0.0037116957332007585,-0.0034604380856035274
1782812061631317200,3.346317138671875,0.006505728632211685,-0.00428104745321907,-0.007514590580924413
1782812061641388300,3.35638818359375,-0.002469604983925819,0.003161898097023368,0.00006545275191310793
1782812061651459300,3.366459228515625,-0.007256839260458945,0.010892008291883394,0.001086833972192835
1782812061661530400,3.3765302734375,0.0050134442478418344,0.008113876214902848,-0.009734419771574902
1782812061671601400,3.386601318359375,-0.01084989531636238,-0.007499187515815719,0.008678636241483037
1782812061681672400,3.39667236328125,-0.010251929423213004,-0.005643951570568606,0.010158917377516627
1782812061691743200,3.4067431640625,0.002468435940146446,-0.012003430999349802,-0.001666090598294977
1782812061701814300,3.416814208984375,-0.0045639469146728515,-0.006787632579822093,0.01431561236528214
1782812061711885300,3.42688525390625,-0.0036672903358936308,-0.011344656563363968,0.0030759117304463867
1782812061721956400,3.436956298828125,0.0032160394370555874,0.006439887721231207,0.007284916860761586
1782812061732027400,3.44702734375,0.0066582888454198835,0.0006186616213060915,-0.005844727989810053
1782812061742098400,3.457098388671875,-0.007558452555537223,-0.019790440746909006,-0.020886090496508403
1782812061752169200,3.467169189453125,-0.00561316370666027,-0.011418909109663217,-0.012243114656873512
1782812061762240300,3.477240234375,-0.00007598784565925598,-0.007120097670890391,0.00898063312905142
1782812061772311300,3.487311279296875,-0.006211714121699333,-0.004999963711760938,0.009331720722198952
1782812061782382300,3.49738232421875,0.000374094009399414,-0.01364885098566301,0.0024911774949170646
1782812061792453400,3.507453369140625,-0.006956395009160041,-0.002089528758311644,0.021041370106476824
1782812061802524400,3.5175244140625,-0.0044137247890233995,-0.007424377847090363,-0.009458157830173149
1782812061812595200,3.52759521484375,0.00187222361266613,-0.013610025945771485,0.001977725247177295
1782812061822666200,3.537666259765625,0.0023228899896144866,0.0005026614256668835,0.01682414970366517
1782812061832737300,3.5477373046875,0.014143091642856598,-0.0013903401135466993,-0.007159792643750552
1782812061842808300,3.557808349609375,0.0009779051214456557,0.004711164232483134,-0.0034863716778811065
1782812061852879400,3.56787939453125,0.0021785130828619,-0.008820079122344032,-0.002063207006966695
1782812061862950400,3.577950439453125,0.007565466818213462,0.007968887386796996,-0.003189722252287902
1782812061873021200,3.588021240234375,0.005619593447446823,-0.002916992558399215,-0.000523003244085703
1782812061883092200,3.59809228515625,-0.00350830038189888,0.0013026983627118169,-0.012687607021362055
1782812061893163300,3.608163330078125,-0.007250409519672393,-0.005615099935419857,0.008346175716992001
1782812061903234300,3.618234375,0.0005301613539457321,-0.01410837652250193,0.006339071394992061
1782812061913305300,3.628305419921875,0.005766892963647842,-0.0021272212870419023,0.00674155124865938
1782812061923376400,3.63837646484375,-0.005605564922094345,-0.014660758841410278,0.0015838168590329587
1782812061933448200,3.6484482421875,0.010106967994570731,-0.008394812048133462,0.003887378810381051
1782812061943519200,3.658519287109375,0.011006547182798384,-0.0053712447095662355,-0.009290525628707837
1782812061953590300,3.66859033203125,-0.0018628712624311446,-0.010887889239192008,0.003189916331821587
1782812061963661300,3.678661376953125,-0.015181787040829658,0.0038501269563566893,0.00272523284596391
1782812061973732400,3.688732421875,0.0032242227435111998,0.00006749401194974779,0.006776309751498047
1782812061983803400,3.698803466796875,0.008013795107603073,0.00015081578069366515,-0.012317166273773182
1782812061993874400,3.70887451171875,-0.003510638469457626,-0.012235869782045482,0.007675491647503804
1782812062003945500,3.718945556640625,0.009803601133823394,-0.00688114694901742,0.009610704343649558
1782812062014016300,3.729016357421875,0.0027688801914453505,-0.004678942463314161,-0.010305356093903538
1782812062024087300,3.73908740234375,0.0068108490586280815,-0.0013343812757637351,-0.009926060753001365
1782812062034158300,3.749158447265625,-0.0038128362864255903,0.006422507328167557,-0.0007213890601298771
1782812062044229400,3.7592294921875,-0.0014168810606002807,0.000288425019942224,0.007119015392079018
1782812062054300400,3.769300537109375,0.0033715222597122192,-0.003622802740195766,-0.0031195978918345645
1782812062064371500,3.779371337890625,-0.009196282890439033,0.00047959107733331615,-0.01129944516516989
1782812062074442200,3.789442138671875,0.01190612637102604,0.007128774167690426,0.0013960643181460909
1782812062084513300,3.79951318359375,-0.0005137947410345078,-0.00810723641156219,-0.0021201545087271368
1782812062094584300,3.809584228515625,0.008313070315122604,-0.007676160651072859,0.01643903197675245
1782812062104655400,3.8196552734375,-0.0069505497902631755,-0.0034713293723762032,0.014820063889236188
1782812062114726400,3.829726318359375,0.004269932404160499,-0.008254572460381313,-0.006320092699886299
1782812062124797400,3.83979736328125,-0.010095862078666687,-0.016687570227589456,-0.0076048558303969905
1782812062134868200,3.8498681640625,-0.01144201599061489,-0.013404045911738648,-0.003697658074693754
1782812062144939300,3.859939208984375,-0.0006675239980220794,-0.003300840776832774,-0.0034623423483222723
1782812062155010300,3.87001025390625,-0.0071007719159126275,-0.004248789151431992,0.00005448155003832653
1782812062165081300,3.880081298828125,-0.009645780223608017,-0.009100814026175066,0.0070878553521237335
1782812062175152400,3.89015234375,-0.007101356437802314,-0.020773040309781207,0.004463463948573917
1782812062185223400,3.900223388671875,-0.017726795348525046,-0.00380324647417292,-0.009667672395007685
1782812062195294200,3.910294189453125,-0.022516952234506605,-0.010007270479761063,0.008522651095327455
1782812062205365200,3.920365234375,-0.00964694926738739,-0.006646726271789521,-0.007348618330294266
1782812062215436300,3.930436279296875,0.0008253449082374572,-0.003807054999610409,0.008503962377877905
1782812062225507300,3.94050732421875,0.0035182372540235518,-0.0021084800539538265,-0.007566793408908415
1782812062235578400,3.950578369140625,0.00651332741677761,0.002853836794849485,-0.0060110610000439916
1782812062245649400,3.9606494140625,-0.012341595178842544,-0.013557893899735062,0.012317287288070656
1782812062255720200,3.97072021484375,-0.012492401826381682,-0.014977798034483566,0.0005482723993714898
1782812062265791200,3.980791259765625,-0.006807926449179649,0.0023315025543328375,0.003537875819543842
1782812062275862300,3.9908623046875,-0.005911854392290115,-0.004124121592147275,-0.0015743731772527097
1782812062285933300,4.000933349609375,-0.002471358549594879,-0.010484961860952898,0.003679332400136627
1782812062296004400,4.01100439453125,-0.003219546568393707,-0.013150783536722882,0.001484272324561607
1782812062306076400,4.021076416015625,-0.007560206121206283,-0.009898348478879779,-0.0015083381867385468
1782812062316147200,4.031147216796875,-0.013542203140258788,0.005784510818729177,0.005557033622229937
1782812062326218200,4.04121826171875,-0.018330021938681603,-0.006219203308410942,-0.001832848300214391
1782812062336289300,4.051289306640625,-0.016087795969843863,-0.00012364464597776532,-0.007583328985178377
1782812062346360300,4.0613603515625,-0.007408814951777458,-0.008332094676000996,-0.0060424174028215925
1782812062356431400,4.071431396484375,0.000969137293100357,-0.004797901801019907,0.0019579222848755307
1782812062366502400,4.08150244140625,-0.010551789152622223,0.0068006747244857245,-0.008876811994973104
1782812062376573400,4.091573486328125,-0.015638883158564567,-0.010119032891700044,0.0068038096797768954
1782812062386644200,4.101644287109375,0.0033639234751462934,-0.008264089207397773,-0.014209982866607606
1782812062396715300,4.11171533203125,0.00336450799703598,-0.006583031652122736,0.011518901168706361
1782812062406786300,4.121786376953125,0.0030640637457370755,-0.003816398216690868,0.00699262166658882
1782812062416857300,4.131857421875,0.009199790021777152,-0.0014584186473861336,0.00745388706936501
1782812062426928600,4.1419287109375,0.0026139818906784056,-0.0021288561217021195,0.0005195189456338994
1782812062436999700,4.151999755859375,-0.006813187146186828,-0.014707566258357837,0.0005598281231359579
1782812062447070500,4.162070556640625,-0.016238602617383004,-0.00927765016411431,-0.00162224688999122
1782812062457141500,4.1721416015625,0.004561608827114105,-0.006137598572717979,-0.0023875778398360125
1782812062467212500,4.182212646484375,0.006806172883510589,-0.003490216735936701,-0.02361761380265234
1782812062477283600,4.19228369140625,-0.0060620765179395675,-0.0069616831056308,-0.006274671239138115
1782812062487354600,4.202354736328125,-0.002617489022016525,-0.008635909061320125,0.00006862880639964714
1782812062497425700,4.21242578125,0.0036678748577833173,-0.013770522870263084,-0.0032816360361524856
1782812062507496400,4.222496337890625,-0.0011199439406394957,-0.01198650726401247,-0.003008771628234535
1782812062517567500,4.2325673828125,-0.006207622468471527,-0.004769598155142739,0.019943925692012997
1782812062527638500,4.242638427734375,-0.0002209492743015289,-0.0076389887121506034,-0.01088561965029221
1782812062537709600,4.25270947265625,0.000678045392036438,-0.0017344499766360968,0.0007138473577797413
1782812062547780600,4.262780517578125,0.0015747019708156585,-0.008839359211549162,-0.003751523136801552
1782812062557851600,4.2728515625,-0.02311491812765598,-0.016806356035359203,-0.010803277412371243
1782812062567922400,4.28292236328125,0.0036719665110111236,0.0029990448186639693,-0.00296332048473414
1782812062577993500,4.292993408203125,0.006811433580517769,0.0030644199387636034,-0.0021022032935055905
1782812062588064500,4.303064453125,-0.006806757405400276,-0.01148691457826644,-0.018665985027933492
1782812062598135600,4.313135498046875,0.010102291819453239,-0.009535844442574307,-0.005719201913999859
1782812062608206600,4.32320654296875,-0.011295885518193244,-0.011942202331405131,0.00014579482899280263
1782812062618277600,4.333277587890625,-0.0021656536012887953,-0.0002622219996061176,0.006768822848075069
1782812062628348400,4.343348388671875,-0.008151742273569107,-0.007896114411531015,-0.005883475397888105
1782812062638419500,4.35341943359375,-0.003065232789516449,-0.016647329548746346,0.0063990145714371465
1782812062648490500,4.363490478515625,0.0023217209458351136,-0.0027149397808127105,-0.00511063699502265
1782812062658561500,4.3735615234375,-0.006354921984672546,0.01176926605044864,-0.001385456159163732
1782812062668632600,4.383632568359375,-0.01189209784567356,-0.00041386889736168086,0.0022331339135067537
1782812062678704400,4.393704345703125,0.007111877831816673,0.003448706548614427,0.0019812894607312043
1782812062688774400,4.4037744140625,-0.011894435933232307,-0.008021055965451523,-0.007373652306850999
1782812062698846500,4.413846435546875,-0.014288637593388557,-0.019433316138619556,0.004079999322630465
1782812062708917500,4.42391748046875,0.0006757073044776916,-0.009261100888112559,0.01181672192136757
1782812062718988500,4.433988525390625,-0.013988777863979339,-0.008828390292963012,-0.00585704404868884
1782812062729059600,4.4440595703125,-0.003961304846405982,0.004034123487444594,-0.019540680936654096
1782812062739130600,4.454130615234375,0.008159341058135032,0.005698540435172617,-0.01656241176124895
1782812062749201700,4.46420166015625,0.0006774608701467514,-0.010878902215138077,-0.011687499201262835
1782812062759272400,4.4742724609375,-0.0008189151674509048,-0.014347683437401428,-0.006605663609039038
1782812062769343500,4.484343505859375,-0.009648702833056449,-0.006037280003400519,0.0031161592591553923
1782812062779414500,4.49441455078125,0.0014221417576074599,-0.0009303396526724099,0.002915542670118157
1782812062789485600,4.504485595703125,-0.0029179332733154295,-0.018057826534332706,-0.003118606944568455
1782812062799556600,4.514556640625,0.00007423427999019622,-0.02114907054794021,-0.015441899281740187
1782812062809627600,4.524627685546875,-0.0027706337571144104,0.007850585636217147,-0.022759773130610117
1782812062819698400,4.534698486328125,-0.0068108490586280815,-0.0003905610870104283,-0.0070917346595088014
1782812062829769500,4.54476953125,-0.011450199297070503,-0.007995492265932262,-0.009885947938321623
1782812062839840500,4.554840576171875,0.0008218377768993377,0.007140519404411316,-0.012792757029423955
1782812062849911600,4.56491162109375,-0.0027706337571144104,0.002274940928351134,0.000843455953663215
1782812062859982600,4.574982666015625,0.0011205284625291825,-0.00043866541190072894,0.0027588725373730995
1782812062870053600,4.5850537109375,0.005157236632704735,-0.006060122022870928,-0.002232245714229066
1782812062880124400,4.59512451171875,0.0017149872243404387,0.0024753771375864743,0.006937658342649229
1782812062890195500,4.605195556640625,0.00440846409201622,-0.004352587452623993,0.015052657935558817
1782812062900266500,4.6152666015625,-0.0000789104551076889,0.0001919971744529903,0.008291653067758307
1782812062910337500,4.625337646484375,-0.01938274586200714,-0.010226429655775427,0.004991303197981324
1782812062920408600,4.63540869140625,-0.009055997636914252,-0.01842961898879148,0.007008515638753305
1782812062930479600,4.645479736328125,0.011145663392543793,-0.0013866503191180526,-0.004322199164226185
1782812062940550700,4.655550537109375,-0.005461772537231445,0.004976783765573054,0.007103744757710956
1782812062950621400,4.665621337890625,0.00336450799703598,-0.0007352920046076178,0.015978796337149104
1782812062960692500,4.6756923828125,0.002765373060107231,-0.00021159692406654356,-0.011095561190100852
1782812062970763500,4.685763427734375,-0.009804185655713081,-0.005447944941278547,-0.007361569143412634
1782812062980834600,4.69583447265625,-0.0035205753415822982,-0.00504791277302429,-0.0005400868096272461
1782812062990905600,4.705905517578125,-0.002471358549594879,-0.001569304276490584,0.01127503224312095
1782812063000976600,4.7159765625,-0.003369184172153473,-0.000788821423286572,0.005632192634115927
1782812063011047400,4.72604736328125,0.0035129765570163724,-0.011956404386693611,-0.006456318266224116
1782812063021118500,4.736118408203125,-0.00845744722187519,-0.008384244988346471,0.0011215468092588708
1782812063031189500,4.746189453125,0.007855974197387695,-0.02094685337357223,0.008834662486833985
1782812063041260500,4.756260498046875,0.007406476864218712,-0.006408469669660553,0.01027394717548741
1782812063051331600,4.76633154296875,-0.0024707740277051925,0.006690108755789697,-0.0068669882762129415
1782812063061402600,4.776402587890625,-0.003068155398964882,-0.0008497760965954512,-0.0039778609722736285
1782812063071473400,4.786473388671875,-0.002619242587685585,0.018466690463013948,0.001379528741876129
1782812063081544400,4.79654443359375,0.011447861209511757,-0.018420449301647022,-0.002872379381826613
1782812063091615500,4.806615478515625,-0.011895020455121993,-0.015605939870188011,-0.0009918742812937125
1782812063101686500,4.8166865234375,-0.03000175503194332,-0.007472043780563399,-0.00385257235848112
1782812063111757600,4.826757568359375,-0.002617489022016525,-0.006583935834420845,-0.014653333586780353
1782812063121829600,4.83682958984375,-0.0014186346262693404,-0.00836093717799522,0.006678747111558914
1782812063131900700,4.846900634765625,0.01220014088153839,-0.002300632492033765,-0.014971585206117015
1782812063141971500,4.856971435546875,0.009206219762563705,-0.009285504677006975,0.005890062685590237
1782812063152042500,4.86704248046875,0.003970072674751282,-0.00844445074298419,0.010096677212708164
1782812063162113500,4.877113525390625,-0.002762450450658798,-0.014069003493338823,-0.004882388046965934
1782812063172184600,4.8871845703125,-0.0029120880544185636,-0.014351692892238498,0.0014725248045520856
1782812063182255600,4.897255615234375,-0.004258826488256455,-0.02185122746792622,-0.008542355876218061
1782812063192326700,4.90732666015625,-0.01637947239279747,-0.013306512954551725,-0.002052151323412545
1782812063202397400,4.9173974609375,-0.014880758267641066,-0.01211868227631785,-0.007960416385973803
1782812063212468500,4.927468505859375,-0.0026128128468990326,-0.0024194639655761418,0.004884159878944047
1782812063222539500,4.93753955078125,0.007261515435576438,-0.0018682506904471664,0.004185521506739315
1782812063232610600,4.947610595703125,-0.008752046254277229,-0.007278384371986612,-0.021586580615793355
1782812063242681600,4.957681640625,-0.009202128109335898,-0.001976451172120869,-0.0008176502255490049
1782812063252752600,4.967752685546875,-0.018329437416791914,-0.01279529376309365,0.011760260760085656
1782812063262823400,4.977823486328125,0.01309504389464855,0.001087420777371153,-0.0010738078105496241
1782812063272894500,4.98789453125,0.0017220014870166778,0.003221747658634558,-0.008659084440930746
1782812063282965500,4.997965576171875,-0.02012391961812973,-0.008708280177786945,0.003325278815056663
1782812063293036500,5.00803662109375,-0.01174479832947254,-0.0017684253114741294,0.0022019373409333637
1782812063303107600,5.018107666015625,0.014443535894155502,-0.00634539610450156,0.0010593180608935654
1782812063313178600,5.0281787109375,0.012049918755888938,-0.013539773721154778,-0.006030847979325335
1782812063323249400,5.03824951171875,-0.0008183306455612182,-0.00491529023614712,0.006719197852956131
1782812063333320400,5.048320556640625,-0.008148819664120673,0.004261986559722573,0.017867893452802673
1782812063343391500,5.0583916015625,-0.010243161594867706,-0.0007421784031204879,0.00027368639182532206
1782812063353462500,5.068462646484375,-0.008448679393529892,-0.0004945055186748505,-0.0027988278051372614
1782812063363533600,5.078533447265625,-0.00874678555727005,0.003913492782460525,-0.010131545313401148
1782812063373604600,5.0886044921875,0.004273439535498619,-0.0090480426593218,-0.0028202153697493484
1782812063383675400,5.09867529296875,-0.0035071313381195065,-0.003729487118218094,0.004950265651405788
1782812063393746400,5.108746337890625,-0.0054506666213274,0.0006599982786923646,-0.005737002432171721
1782812063403817500,5.1188173828125,-0.014874328526854514,-0.004616809613071381,0.005231464062829036
1782812063413888500,5.128888427734375,-0.007990998753905297,0.003306558131566271,-0.010243773516220972
1782812063423959600,5.13895947265625,-0.004099252012372017,-0.014266654090443625,-0.013246572061395272
1782812063434030600,5.149030517578125,-0.005146715238690376,-0.011740387015836313,-0.0105438798408024
1782812063444101400,5.159101318359375,-0.015171265646815299,-0.0115403069996275,-0.02063633981940802
1782812063454172400,5.16917236328125,0.0030868600994348526,-0.002127056890260428,0.004699501194152981
1782812063464243500,5.179243408203125,-0.0031990883022546767,0.007240344783384352,-0.007693780789442825
1782812063474314500,5.189314453125,-0.003199672824144363,-0.00902795885251835,-0.0038343950976850462
1782812063484385500,5.199385498046875,0.008324176231026648,-0.005566401955485344,-0.004052745989523827
1782812063494456600,5.20945654296875,0.014907646274566649,-0.007338197400979698,0.006179145292658358
1782812063504527400,5.21952734375,-0.012926117068529128,-0.012361934713972731,0.009156245424284134
1782812063514598400,5.229598388671875,0.004282791885733604,-0.01447667097877711,-0.012039337996370159
1782812063524669400,5.23966943359375,-0.0039472763210535045,-0.001921761842817068,0.013152578201587311
1782812063534740500,5.249740478515625,-0.0005056114345788955,-0.01014921796740964,0.00005182836864842101
1782812063544811500,5.2598115234375,0.003088613665103912,-0.018128270555194465,-0.005022639051161241
1782812063554882600,5.269882568359375,0.0047357963502407075,-0.012827268937090412,0.003775847010593861
1782812063564953600,5.27995361328125,0.01102116023004055,-0.0020494707425590605,0.003179568467743229
1782812063575024400,5.2900244140625,-0.008582534906268119,-0.00841477712392807,-0.014730584091052878
1782812063585095400,5.300095458984375,0.0068313073247671125,-0.003111875809682533,-0.0005749092445475981
1782812063595166500,5.31016650390625,-0.006935936743021011,0.005625712660979479,0.0010430085301981306
1782812063605237500,5.320237548828125,0.004585574224591255,-0.010474358268547803,-0.00029714033264899623
1782812063615308500,5.33030859375,0.0015928221493959427,0.0011820859240368009,-0.012996049632737412
1782812063625379600,5.340379638671875,-0.0030459435671567913,-0.0106049806445837,0.008545810491917655
1782812063635450400,5.350450439453125,0.002940729627013206,-0.00005301796202547848,0.009738509141514078
1782812063645521400,5.360521484375,-0.008730418944358826,0.004393229990266263,0.008980920823419001
1782812063655592400,5.370592529296875,-0.007833177843689918,-0.008139321183413267,-0.0004869934990769252
1782812063665663500,5.38066357421875,-0.008432897302508353,-0.005205614952230825,-0.010410124792763962
1782812063675734500,5.390734619140625,-0.0011000701963901518,-0.011236839674180373,0.0039042660131002774
1782812063685805600,5.4008056640625,-0.007084405303001404,-0.0036412425791844723,-0.0004787142944987863
1782812063695876400,5.41087646484375,-0.013072247540950774,0.0072592595464084295,-0.0084548602558556
1782812063705947400,5.420947509765625,-0.010378770673274994,-0.01516836130367592,0.01578694757645717
1782812063716018400,5.431018310546875,-0.0003524666994810104,-0.009090913686668499,0.011016650734993163
1782812063726089500,5.44108935546875,0.004134907847642899,-0.006527392474748194,-0.002668922381731681
1782812063736160500,5.451160400390625,-0.0012526304095983505,-0.019512509721517562,-0.007219000601256266
1782812063746231600,5.4612314453125,-0.008286182308197021,-0.0151015705446247,-0.008803059488884173
1782812063756302300,5.47130224609375,-0.011878069320321082,-0.005921690799714997,-0.00892164665054297
1782812063766373400,5.481373291015625,-0.004546411257982254,0.0011608878723811358,-0.00457426737928763
1782812063776444400,5.4914443359375,0.000991933646798134,-0.003303946049371734,-0.00015713820691453292
1782812063786515500,5.501515380859375,-0.016066753181815146,0.0029867150600533933,-0.002889577111799735
1782812063796586500,5.51158642578125,0.004433598533272743,0.0004346742233727127,0.005219561279192567
1782812063806657500,5.521657470703125,0.005030979904532432,-0.003848884847341105,0.0013732976472005248
1782812063816728300,5.531728271484375,-0.00993102690577507,-0.002013623111043125,0.00030878738795872773
1782812063826799400,5.54179931640625,-0.007988076144456863,-0.0024713311501313,-0.02103244016463868
1782812063836870400,5.551870361328125,0.0018868366599082945,0.0010815298927016556,-0.01073539980793139
1782812063846941400,5.56194140625,0.000689151307940483,-0.01754407745907083,0.0034500468390411695
1782812063857012500,5.572012451171875,0.003234744137525558,-0.01396546092047356,-0.010254808650177437
1782812063867083500,5.58208349609375,-0.0489817653119564,-0.00973997957939282,0.0024538571422337554
1782812063877154300,5.592154296875,-0.08893675908148288,-0.022020994544262065,-0.007779703223938122
1782812063887225300,5.602225341796875,0.12983341761529446,0.02058571931044571,0.036197803510341325
1782812063897296400,5.61229638671875,-0.06828676976263523,-0.03191068479265086,-0.010021938325930386
1782812063907367400,5.622367431640625,-0.0010977321088314056,0.006415657462272793,-0.004007445543073118
1782812063917438500,5.6324384765625,0.005635960060358047,-0.017016747383028268,-0.0037630377613706513
1782812063927509500,5.642509521484375,0.026135142731666564,-0.014738098393939435,-0.002475402253761422
1782812063937580300,5.652580322265625,-0.006488192975521087,-0.014262069246871395,-0.002106390844855923
1782812063947651300,5.6626513671875,-0.008583703950047492,-0.022057435830822213,-0.014603799923206678
1782812063957722400,5.672722412109375,-0.03836217162013054,0.000885203603003174,-0.024536733374989125
1782812063967793400,5.68279345703125,-0.00275017549097538,0.0017521408969536423,0.0001237062947708182
