time,seconds_elapsed,z,y,x
1782811773013605000,0.075605224609375,-0.29304054379463196,0.4104864001274109,-0.19067619740962982
1782811773023677200,0.08567724609375,-0.26386022567749023,0.44779929518699646,-0.2585900127887726
1782811773033748200,0.095748291015625,-0.23297902941703796,0.4316464364528656,-0.32462364435195923
1782811773043820000,0.105820068359375,-0.20852212607860565,0.38755637407302856,-0.37512245774269104
1782811773053891000,0.11589111328125,-0.17850910127162933,0.31438177824020386,-0.4005223512649536
1782811773063963100,0.125963134765625,-0.14439070224761963,0.22671310603618622,-0.39148759841918945
1782811773074034200,0.1360341796875,-0.10915282368659973,0.1520942598581314,-0.35555702447891235
1782811773084106200,0.146106201171875,-0.080664724111557,0.07466843724250793,-0.2915644645690918
1782811773094177300,0.15617724609375,-0.053392089903354645,-0.00394754484295845,-0.2192995697259903
1782811773104249300,0.166249267578125,-0.036139219999313354,-0.049588337540626526,-0.15918509662151337
1782811773114320100,0.176320068359375,-0.04362403601408005,-0.038441143929958344,-0.11835644394159317
1782811773124392000,0.186391845703125,-0.06850994378328323,0.01585804671049118,-0.10418043285608292
1782811773134464000,0.196464111328125,-0.08360740542411804,0.11950241774320602,-0.12101587653160095
1782811773144535000,0.20653515625,-0.0894811600446701,0.2782256603240967,-0.1539250761270523
1782811773154607000,0.216607177734375,-0.08562783151865005,0.4707903265953064,-0.16462859511375427
1782811773164678100,0.22667822265625,-0.07565398514270782,0.6657841801643372,-0.12898460030555725
1782811773174750200,0.236750244140625,-0.06628551334142685,0.8034715056419373,-0.06552278995513916
1782811773184821200,0.2468212890625,-0.04216020554304123,0.8435850739479065,0.00900204200297594
1782811773194893000,0.25689306640625,0.03251935914158821,0.7965235710144043,0.07873158901929855
1782811773204964000,0.266964111328125,0.14979307353496552,0.6783087253570557,0.14064200222492218
1782811773215036200,0.2770361328125,0.29027506709098816,0.5138545036315918,0.22122792899608612
1782811773225107200,0.287107177734375,0.44956421852111816,0.3877449631690979,0.31100714206695557
1782811773235179300,0.29717919921875,0.6443151235580444,0.3435010313987732,0.3994363248348236
1782811773245250300,0.307250244140625,0.862670361995697,0.4037547707557678,0.44010287523269653
1782811773255322000,0.317322021484375,1.064850926399231,0.4052070081233978,0.42532312870025635
1782811773265393200,0.32739306640625,1.2023402452468872,0.3662218451499939,0.40461087226867676
1782811773275465200,0.33746533203125,1.2510896921157837,0.44976386427879333,0.4278450906276703
1782811773285537300,0.347537353515625,1.216230034828186,0.6110948920249939,0.47617581486701965
1782811773295608000,0.357608154296875,1.168192982673645,0.7723211050033569,0.5147680044174194
1782811773305680100,0.36768017578125,1.129974603652954,0.8664464354515076,0.5423644781112671
1782811773315751200,0.377751220703125,1.1028181314468384,0.86670982837677,0.5587878823280334
1782811773325823000,0.387822998046875,1.0457016229629517,0.802729070186615,0.5397964119911194
1782811773335894000,0.39789404296875,0.8993528485298157,0.7110351324081421,0.4265761077404022
1782811773345966000,0.407966064453125,0.6955589056015015,0.6097888946533203,0.21924561262130737
1782811773356037000,0.418037109375,0.5082060694694519,0.5391562581062317,-0.07787713408470154
1782811773366109200,0.428109130859375,0.3350476622581482,0.5399715304374695,-0.4341559112071991
1782811773376180200,0.43818017578125,0.15471117198467255,0.5787429213523865,-0.862542450428009
1782811773386252300,0.448252197265625,-0.06884385645389557,0.5535265207290649,-1.375106692314148
1782811773396323300,0.4583232421875,-0.4162449538707733,0.385377436876297,-1.9566692113876343
1782811773406395100,0.46839501953125,-0.8798019289970398,0.07649203389883041,-2.5296640396118164
1782811773416466200,0.478466064453125,-1.3809844255447388,-0.32407131791114807,-2.990790367126465
1782811773426538200,0.488538330078125,-1.7755249738693237,-0.7170286178588867,-3.197566270828247
1782811773436610300,0.4986103515625,-1.9845412969589233,-0.8572618961334229,-3.077733278274536
1782811773446681300,0.508681396484375,-2.0083508491516113,-0.7359787225723267,-2.672020196914673
1782811773456753200,0.518753173828125,-1.846944808959961,-0.5259970426559448,-2.1098361015319824
1782811773466824000,0.528823974609375,-1.568232774734497,-0.25448378920555115,-1.5694324970245361
1782811773476896000,0.53889599609375,-1.2472217082977295,0.010979863815009594,-1.15043044090271
1782811773486967000,0.548967041015625,-0.9686614274978638,0.24111858010292053,-0.8806649446487427
1782811773497039000,0.5590390625,-0.7760317921638489,0.39061591029167175,-0.6934319734573364
1782811773507110100,0.569110107421875,-0.6516933441162109,0.36958083510398865,-0.5021884441375732
1782811773517182200,0.57918212890625,-0.5155179500579834,0.331487238407135,-0.23275141417980194
1782811773527253200,0.589253173828125,-0.3287566602230072,0.3408229649066925,0.11278036236763
1782811773537325000,0.599324951171875,-0.15235446393489838,0.33906421065330505,0.48977982997894287
1782811773547396000,0.60939599609375,-0.043440986424684525,0.2544349730014801,0.8319054841995239
1782811773557468200,0.61946826171875,-0.0048360684886574745,0.07811770588159561,1.1010175943374634
1782811773567540200,0.629540283203125,-0.0261076707392931,-0.15311886370182037,1.2906304597854614
1782811773577611300,0.639611328125,-0.041431233286857605,-0.34356364607810974,1.3715167045593262
1782811773587683300,0.649683349609375,-0.028132978826761246,-0.4383634328842163,1.341788411140442
1782811773597754400,0.65975439453125,0.014171067625284195,-0.44815000891685486,1.2266274690628052
1782811773607826200,0.669826171875,0.057262521237134933,-0.4081307053565979,1.079227328300476
1782811773617897000,0.67989697265625,0.11829498410224915,-0.32481610774993896,0.952182412147522
1782811773627969000,0.689968994140625,0.2037474662065506,-0.16820041835308075,0.8652453422546387
1782811773638040000,0.7000400390625,0.2887313663959503,0.0577099435031414,0.8075162768363953
1782811773648112000,0.710112060546875,0.3573167324066162,0.3473086357116699,0.7733519077301025
1782811773658183200,0.72018310546875,0.40084367990493774,0.6213958263397217,0.7608409523963928
1782811773668255000,0.7302548828125,0.4476611614227295,0.8260886669158936,0.7637640237808228
1782811773678326000,0.740325927734375,0.5370368361473083,1.0202771425247192,0.7711969017982483
1782811773688398000,0.750398193359375,0.594068706035614,1.166634440422058,0.8200584650039673
1782811773698469000,0.76046923828125,0.5560086965560913,1.1764771938323975,0.9468593001365662
1782811773708541200,0.770541259765625,0.5012025237083435,1.0236661434173584,1.1142174005508423
1782811773718613200,0.78061328125,0.4819622039794922,0.8405365347862244,1.2512863874435425
1782811773728684300,0.790684326171875,0.5262094140052795,0.7841379642486572,1.3071846961975098
1782811773738756000,0.800756103515625,0.6113642454147339,0.8222134709358215,1.31099534034729
1782811773748827100,0.8108271484375,0.6830527186393738,0.8145150542259216,1.331059455871582
1782811773758899200,0.820899169921875,0.7490320205688477,0.8324410319328308,1.373402714729309
1782811773768970200,0.83097021484375,0.8353551626205444,0.8461984992027283,1.3714395761489868
1782811773779042300,0.841042236328125,0.9216572642326355,0.8326858878135681,1.3352980613708496
1782811773789113000,0.851113037109375,0.993691086769104,0.8974526524543762,1.321601390838623
1782811773799185200,0.86118505859375,1.0095914602279663,1.079567551612854,1.3715306520462036
1782811773809256200,0.871256103515625,0.9815322160720825,1.2529832124710083,1.5264040231704712
1782811773819328000,0.881327880859375,0.9200899004936218,1.338327407836914,1.7764453887939453
1782811773829399000,0.89139892578125,0.8103024363517761,1.1422350406646729,1.987290859222412
1782811773839471000,0.90147119140625,0.6139955520629883,0.6154952049255371,1.9962832927703857
1782811773849543200,0.911543212890625,0.3355390727519989,-0.0788673460483551,1.7156786918640137
1782811773859614200,0.9216142578125,0.09132425487041473,-0.5273346304893494,1.2266082763671875
1782811773869686000,0.93168603515625,-0.07351996749639511,-0.6729733347892761,0.6521207690238953
1782811773879757000,0.941757080078125,-0.23998376727104187,-0.6414596438407898,0.10071595758199692
1782811773889829000,0.9518291015625,-0.4521424174308777,-0.578411877155304,-0.39386576414108276
1782811773899900200,0.961900146484375,-0.661321222782135,-0.44371265172958374,-0.7954320907592773
1782811773909972200,0.97197216796875,-0.8486171364784241,-0.25377389788627625,-1.127105712890625
1782811773920043300,0.982043212890625,-1.0333774089813232,-0.2585976719856262,-1.4412766695022583
1782811773930115300,0.992115234375,-1.224570631980896,-0.6128649115562439,-1.6935925483703613
1782811773940186000,1.00218603515625,-1.2968205213546753,-1.0195682048797607,-1.7629519701004028
1782811773950258200,1.012258056640625,-1.1882877349853516,-1.3481301069259644,-1.6368720531463623
1782811773960329000,1.022328857421875,-0.9743725657463074,-1.5318130254745483,-1.367380142211914
1782811773970401000,1.032401123046875,-0.7493166923522949,-1.5819525718688965,-1.0629291534423828
1782811773980472000,1.04247216796875,-0.540023922920227,-1.6120234727859497,-0.8796910643577576
1782811773990544100,1.052544189453125,-0.4072791635990143,-1.611415147781372,-0.8906175494194031
1782811774000616200,1.0626162109375,-0.39077237248420715,-1.5604478120803833,-1.0688648223876953
1782811774010687200,1.072687255859375,-0.502396821975708,-1.4497088193893433,-1.2878596782684326
1782811774020759000,1.082759033203125,-0.7442325949668884,-1.2945493459701538,-1.4441534280776978
1782811774030830000,1.092830078125,-1.013283371925354,-1.2146170139312744,-1.4985032081604004
1782811774040902100,1.102902099609375,-1.1398886442184448,-1.0666784048080444,-1.4455084800720215
1782811774050973200,1.11297314453125,-1.1179172992706299,-0.8853672742843628,-1.4015514850616455
1782811774061045200,1.123045166015625,-1.0636143684387207,-0.6843489408493042,-1.331412434577942
1782811774071116300,1.1331162109375,-1.0495866537094116,-0.4359550178050995,-1.1309313774108887
1782811774081188000,1.14318798828125,-1.0307308435440063,-0.26173821091651917,-0.7601402401924133
1782811774091259100,1.153259033203125,-0.9875271320343018,-0.12337978929281235,-0.27061063051223755
1782811774101331200,1.163331298828125,-0.9314340353012085,-0.023951726034283638,0.19353945553302765
1782811774111402000,1.173402099609375,-0.8486824631690979,0.033256564289331436,0.5240444540977478
1782811774121474000,1.18347412109375,-0.7346448302268982,0.06310100853443146,0.6698572635650635
1782811774131545600,1.193545654296875,-0.5944381356239319,0.13708177208900452,0.6389430165290833
1782811774141617700,1.20361767578125,-0.44054660201072693,0.29205697774887085,0.4960559010505676
1782811774151689500,1.213689453125,-0.2932891547679901,0.4668163061141968,0.3184627592563629
1782811774161760500,1.223760498046875,-0.18574272096157074,0.5505902767181396,0.18542267382144928
1782811774171832600,1.23383251953125,-0.10711073130369186,0.5597550272941589,0.15768101811408997
1782811774181903600,1.243903564453125,-0.03743818402290344,0.5189439058303833,0.23359443247318268
1782811774191975700,1.2539755859375,0.020105473697185516,0.46150723099708557,0.3846648931503296
1782811774202046700,1.264046630859375,0.06429024040699005,0.343608558177948,0.5773078799247742
1782811774212118500,1.274118408203125,0.1423790454864502,0.1785779744386673,0.7644205093383789
1782811774222189600,1.284189453125,0.2374589443206787,0.03707463666796684,0.88859623670578
1782811774232261600,1.29426171875,0.32445964217185974,-0.025107860565185547,0.9242000579833984
1782811774242332400,1.30433251953125,0.4118747115135193,-0.018585514277219772,0.8790802359580994
1782811774252404500,1.314404541015625,0.4927302598953247,-0.016843300312757492,0.8140770196914673
1782811774262475500,1.3244755859375,0.5515999794006348,0.07058135420084,0.8087482452392578
1782811774272547600,1.334547607421875,0.5683243870735168,0.26777198910713196,0.8874021172523499
1782811774282618600,1.34461865234375,0.5413169860839844,0.5040411949157715,0.9844634532928467
1782811774292690400,1.3546904296875,0.4794420301914215,0.7586091160774231,1.0468132495880127
1782811774302761500,1.364761474609375,0.4198034703731537,1.1762020587921143,1.1023505926132202
1782811774312833500,1.37483349609375,0.4629095196723938,1.7382781505584717,1.1088497638702393
1782811774322905600,1.384905517578125,0.6344242691993713,2.1117136478424072,1.0283026695251465
1782811774332976600,1.3949765625,0.7988168001174927,1.9472614526748657,0.9152787327766418
1782811774343048400,1.40504833984375,0.8399311900138855,1.292202115058899,0.838837206363678
1782811774353119500,1.415119384765625,0.7652246356010437,0.47835344076156616,0.7266510128974915
1782811774363191600,1.425191650390625,0.6665939092636108,-0.2834230065345764,0.4700775444507599
1782811774373262600,1.4352626953125,0.5454103350639343,-0.9556999802589417,0.06527328491210938
1782811774383334700,1.445334716796875,0.3129459321498871,-1.3383946418762207,-0.4256461262702942
1782811774393405700,1.45540576171875,0.003742063883692026,-1.54814612865448,-0.9063778519630432
1782811774403477800,1.465477783203125,-0.2936747074127197,-1.4810872077941895,-1.2427476644515991
1782811774413548500,1.475548583984375,-0.5945156812667847,-0.9904018640518188,-1.3816577196121216
1782811774423620400,1.485620361328125,-0.8414210677146912,-0.2670687139034271,-1.3486768007278442
1782811774433691400,1.49569140625,-0.9511198401451111,0.33709830045700073,-1.2545217275619507
1782811774443763500,1.505763427734375,-0.8778043389320374,0.6149302124977112,-1.1704422235488892
1782811774453834500,1.51583447265625,-0.707246720790863,0.5151524543762207,-1.1134306192398071
1782811774463906600,1.525906494140625,-0.5030174255371094,0.06419966369867325,-0.9906495213508606
1782811774473977600,1.5359775390625,-0.2751559913158417,-0.5433674454689026,-0.7682747840881348
1782811774484049700,1.546049560546875,-0.10127979516983032,-1.3127142190933228,-0.4619081914424896
1782811774494121500,1.55612158203125,0.02646605670452118,-1.883246898651123,-0.09674035757780075
1782811774504192500,1.566192626953125,0.057303331792354584,-2.0375959873199463,0.2221023440361023
1782811774514264600,1.5762646484375,-0.008146488107740879,-1.7907214164733887,0.4016302824020386
1782811774524335600,1.586335693359375,-0.09787184745073318,-1.298535943031311,0.4188329577445984
1782811774534407700,1.59640771484375,-0.21849285066127777,-0.7940998673439026,0.3246716260910034
1782811774544478700,1.606478759765625,-0.35593804717063904,-0.41139671206474304,0.20130734145641327
1782811774554550500,1.616550537109375,-0.48167428374290466,-0.22447220981121063,0.10678241401910782
1782811774564621600,1.62662158203125,-0.5693777799606323,-0.28038498759269714,0.04861338436603546
1782811774574693400,1.636693359375,-0.6078656911849976,-0.41196486353874207,0.012345374561846256
1782811774584764400,1.646764404296875,-0.5628715753555298,-0.5590230226516724,-0.03195391222834587
1782811774594836500,1.65683642578125,-0.44223925471305847,-0.6451539397239685,-0.11677424609661102
1782811774604907500,1.666907470703125,-0.3080172538757324,-0.5639400482177734,-0.21643640100955963
1782811774614979600,1.6769794921875,-0.1873818039894104,-0.3493834137916565,-0.28017696738243103
1782811774625051400,1.687051513671875,-0.08960597962141037,-0.1467464119195938,-0.2984478771686554
1782811774635122400,1.697122314453125,0.01680132746696472,-0.03014710731804371,-0.2822395861148834
1782811774645194500,1.707194580078125,0.13220994174480438,0.007792552001774311,-0.20100706815719604
1782811774655265500,1.717265625,0.23062662780284882,-0.06105995550751686,-0.06922192871570587
1782811774665337600,1.727337646484375,0.30150559544563293,-0.1637759506702423,0.08743239939212799
1782811774675408600,1.73740869140625,0.3541930615901947,-0.21371589601039886,0.24584735929965973
1782811774685480700,1.747480712890625,0.3699573874473572,-0.23648352921009064,0.35877951979637146
1782811774695551700,1.7575517578125,0.3723147213459015,-0.21742896735668182,0.40151742100715637
1782811774705623600,1.76762353515625,0.3768783211708069,-0.13185681402683258,0.4047832489013672
1782811774715694600,1.777694580078125,0.36685335636138916,0.013035783544182777,0.4037896394729614
1782811774725766700,1.7877666015625,0.3481292128562927,0.16811911761760712,0.42686963081359863
1782811774735837400,1.79783740234375,0.2836608588695526,0.2638638913631439,0.4819619059562683
1782811774745909500,1.807909423828125,0.19287049770355225,0.28198671340942383,0.5350538492202759
1782811774755980500,1.81798046875,0.10882730782032013,0.2752509117126465,0.5942620635032654
1782811774766052600,1.828052490234375,0.05701550841331482,0.25359249114990234,0.6987016797065735
1782811774776123600,1.83812353515625,0.03129008039832115,0.22999846935272217,0.8622367978096008
1782811774786195500,1.848195556640625,0.038767170161008835,0.29034408926963806,1.0120031833648682
1782811774796266500,1.8582666015625,0.10694138705730438,0.4567643702030182,1.075140118598938
1782811774806338600,1.868338623046875,0.17145805060863495,0.7276241183280945,1.0856188535690308
1782811774816410600,1.87841064453125,0.20085930824279785,1.003023624420166,1.100616693496704
1782811774826481700,1.888481689453125,0.23683035373687744,1.2016270160675049,1.1830193996429443
1782811774836553500,1.898553466796875,0.35555484890937805,1.2342312335968018,1.317992925643921
1782811774846624500,1.90862451171875,0.5245497822761536,0.9194411635398865,1.4409502744674683
1782811774856696600,1.918696533203125,0.5852760076522827,0.3480677306652069,1.5238962173461914
1782811774866767600,1.928767578125,0.49829530715942383,-0.047002337872982025,1.5248346328735352
1782811774876839700,1.938839599609375,0.3812422752380371,-0.10413862764835358,1.405707597732544
1782811774886910700,1.94891064453125,0.25007280707359314,-0.03704800456762314,1.1739087104797363
1782811774896982800,1.958982666015625,0.09201720356941223,-0.028046544641256332,0.8600887656211853
1782811774907053600,1.969053466796875,-0.09869682043790817,-0.07284756749868393,0.5117715001106262
1782811774917125400,1.97912548828125,-0.31386154890060425,-0.18010567128658295,0.14228953421115875
1782811774927196400,1.989196533203125,-0.5405542850494385,-0.32340559363365173,-0.22052115201950073
1782811774937268500,1.9992685546875,-0.7459681630134583,-0.4189460873603821,-0.6109070181846619
1782811774947339500,2.009339599609375,-0.9277669787406921,-0.5030532479286194,-1.054022192955017
1782811774957411600,2.01941162109375,-1.0437277555465698,-0.5172308683395386,-1.4820266962051392
1782811774967482600,2.029482666015625,-1.084267497062683,-0.5899215936660767,-1.7817784547805786
1782811774977554400,2.039554443359375,-1.0563766956329346,-0.7948150634765625,-1.8485321998596191
1782811774987626500,2.04962646484375,-0.9413992166519165,-1.0186833143234253,-1.682374358177185
1782811774997697500,2.059697509765625,-0.7908326387405396,-1.1008094549179077,-1.3816286325454712
1782811775007769600,2.06976953125,-0.6577664613723755,-1.0086885690689087,-1.0436946153640747
1782811775017840600,2.079840576171875,-0.5897394418716431,-0.7964077591896057,-0.7905236482620239
1782811775027912700,2.08991259765625,-0.5942875742912292,-0.5180003643035889,-0.7163450121879578
1782811775037983700,2.099983642578125,-0.6574112772941589,-0.22554653882980347,-0.8073827624320984
1782811775048055600,2.1100556640625,-0.7742939591407776,0.028032194823026657,-1.0175862312316895
1782811775058126300,2.120126220703125,-0.9121960401535034,0.2383441925048828,-1.2686727046966553
1782811775068198400,2.130198486328125,-1.0311954021453857,0.3948427140712738,-1.4921432733535767
1782811775078269400,2.14026953125,-1.0976672172546387,0.4547208845615387,-1.629190444946289
1782811775088341500,2.150341552734375,-1.1082948446273804,0.3744729161262512,-1.6434944868087769
1782811775098412500,2.16041259765625,-1.0578062534332275,0.13673390448093414,-1.4950405359268188
1782811775108484600,2.170484619140625,-0.9112537503242493,-0.0988762229681015,-1.1990584135055542
1782811775118555600,2.1805556640625,-0.6944832801818848,-0.28266072273254395,-0.8224501609802246
1782811775128627500,2.19062744140625,-0.47781917452812195,-0.385985791683197,-0.404789000749588
1782811775138699000,2.200698974609375,-0.26403242349624634,-0.40256232023239136,0.001058631925843656
1782811775148771000,2.21077099609375,-0.07806894183158875,-0.3323105275630951,0.34740352630615234
1782811775158843100,2.220843017578125,0.07086564600467682,-0.22980943322181702,0.6295269131660461
1782811775168914200,2.2309140625,0.17462772130966187,-0.16816924512386322,0.8406822681427002
1782811775178986000,2.240986083984375,0.2503829896450043,-0.15299640595912933,0.965785026550293
1782811775189057000,2.25105712890625,0.320860892534256,-0.10982044786214828,0.9889721274375916
1782811775199129000,2.261129150390625,0.38256439566612244,-0.07401696592569351,0.9317196607589722
1782811775209199900,2.271199951171875,0.42396801710128784,-0.05358625575900078,0.8263930082321167
1782811775219272200,2.281272216796875,0.42843201756477356,0.002940580016002059,0.7123548984527588
1782811775229343000,2.291343017578125,0.42470571398735046,0.21162214875221252,0.6064484119415283
1782811775239415000,2.3014150390625,0.43549689650535583,0.47547706961631775,0.520850419998169
1782811775249486000,2.311486083984375,0.48128142952919006,0.5464191436767578,0.4281412959098816
1782811775259558000,2.321557861328125,0.5080288648605347,0.4950781762599945,0.36524730920791626
1782811775269629000,2.33162890625,0.5257154703140259,0.3056502044200897,0.336465984582901
1782811775279701000,2.341700927734375,0.5674232244491577,-0.07747014611959457,0.31802305579185486
1782811775289772000,2.35177197265625,0.6186107397079468,-0.009466329589486122,0.585748553276062
1782811775299844000,2.361843994140625,0.6834511756896973,0.4370664060115814,1.123231291770935
1782811775309915100,2.3719150390625,0.7430916428565979,0.6437250375747681,1.737625241279602
1782811775319987000,2.381987060546875,0.7428396940231323,0.6126412153244019,2.2489521503448486
1782811775330059000,2.39205908203125,0.6727170348167419,0.7240260243415833,2.579728841781616
1782811775340130000,2.402130126953125,0.5743368268013,1.0603110790252686,2.650282859802246
1782811775350202000,2.4122021484375,0.5011736154556274,1.3413722515106201,2.414611339569092
1782811775360273200,2.422273193359375,0.5394269227981567,1.362178921699524,1.9656286239624023
1782811775370345200,2.43234521484375,0.6905325651168823,1.0079779624938965,1.4015872478485107
1782811775380416000,2.442416015625,0.7724519371986389,0.36963051557540894,0.7234058976173401
1782811775390487800,2.45248779296875,0.7270218729972839,-0.1311100870370865,0.10217884182929993
1782811775400558800,2.462558837890625,0.6951221227645874,-0.43603116273880005,-0.2995094656944275
1782811775410631000,2.472630859375,0.7118681073188782,-0.791020393371582,-0.4991530776023865
1782811775420702000,2.482701904296875,0.6771295070648193,-0.9904267191886902,-0.5175644755363464
1782811775430774000,2.49277392578125,0.5348994135856628,-0.8056904673576355,-0.3998783528804779
1782811775440845000,2.502844970703125,0.27935463190078735,-0.34685057401657104,-0.22380588948726654
1782811775450917000,2.512917236328125,-0.022457698360085487,0.12486687302589417,-0.09583859890699387
1782811775460988200,2.52298828125,-0.3210430145263672,0.43151023983955383,-0.12298576533794403
1782811775471060000,2.53306005859375,-0.5710722804069519,0.5273004174232483,-0.35279232263565063
1782811775481131000,2.543131103515625,-0.7479362487792969,0.48882409930229187,-0.7289377450942993
1782811775491203000,2.553203125,-0.8539175391197205,0.4257945418357849,-1.1368032693862915
1782811775501275100,2.563275146484375,-0.9087828993797302,0.2934551537036896,-1.490574836730957
1782811775511346200,2.57334619140625,-0.9117486476898193,0.12113850563764572,-1.7075849771499634
1782811775521418000,2.58341796875,-0.8932631015777588,-0.03854626417160034,-1.7717194557189941
1782811775531489000,2.593489013671875,-0.8616135716438293,-0.23846657574176788,-1.7401071786880493
1782811775541561000,2.60356103515625,-0.8439839482307434,-0.4062359929084778,-1.6403326988220215
1782811775551632000,2.6136318359375,-0.8220744132995605,-0.5174392461776733,-1.5251706838607788
1782811775561704000,2.623703857421875,-0.7967462539672852,-0.5417205095291138,-1.4036622047424316
1782811775571775000,2.63377490234375,-0.7707431316375732,-0.5096597671508789,-1.306050419807434
1782811775581847000,2.643846923828125,-0.7349535822868347,-0.4467337429523468,-1.2446889877319336
1782811775591918000,2.65391796875,-0.6949963569641113,-0.36688125133514404,-1.2128719091415405
1782811775601990000,2.663989990234375,-0.646653413772583,-0.2801409363746643,-1.1674163341522217
1782811775612061000,2.67406103515625,-0.5820238590240479,-0.14190398156642914,-1.0650840997695923
1782811775622133000,2.684133056640625,-0.5115001201629639,0.01322823017835617,-0.9222757816314697
1782811775632204000,2.6942041015625,-0.44466298818588257,0.14808377623558044,-0.7683602571487427
1782811775642276000,2.704276123046875,-0.36705514788627625,0.2510680854320526,-0.6060592532157898
1782811775652347100,2.71434716796875,-0.272663414478302,0.3122102618217468,-0.477579802274704
1782811775662419200,2.724419189453125,-0.14752425253391266,0.32219210267066956,-0.37929293513298035
1782811775672491000,2.734490966796875,0.01686948537826538,0.27741876244544983,-0.2870658040046692
1782811775682562000,2.74456201171875,0.19404557347297668,0.2030673623085022,-0.1569431871175766
1782811775692634000,2.754634033203125,0.3818359673023224,0.1253904104232788,0.021061429753899574
1782811775702705000,2.764704833984375,0.5785675048828125,0.06449946016073227,0.21853159368038177
1782811775712777000,2.77477685546875,0.7605876326560974,0.018219050019979477,0.4197179675102234
1782811775722848000,2.784847900390625,0.880392849445343,-0.04210732504725456,0.6017152070999146
1782811775732919800,2.794919921875,0.9334734082221985,-0.103815957903862,0.7514069676399231
1782811775742990800,2.804990966796875,0.9386290311813354,-0.15776564180850983,0.8674664497375488
1782811775753063000,2.81506298828125,0.9191005825996399,-0.25719398260116577,0.9512723684310913
1782811775763134000,2.825134033203125,0.8988001346588135,-0.35366442799568176,1.0008543729782104
1782811775773206000,2.8352060546875,0.8787915110588074,-0.41016605496406555,0.9926195740699768
1782811775783277000,2.845277099609375,0.8459000587463379,-0.40804675221443176,0.9522390961647034
1782811775793349000,2.85534912109375,0.8452597856521606,-0.38816705346107483,0.9217443466186523
1782811775803420200,2.865420166015625,0.8826568126678467,-0.39935413002967834,0.9318883419036865
1782811775813492000,2.875491943359375,0.9843778610229492,-0.38710305094718933,1.0663037300109863
1782811775823563000,2.88556298828125,1.1022090911865234,-0.29075539112091064,1.3409807682037354
1782811775833635000,2.895635009765625,1.1034066677093506,-0.12123534083366394,1.649113655090332
1782811775843707100,2.90570703125,0.9755350947380066,0.2528098523616791,1.8586493730545044
1782811775853778200,2.915778076171875,0.7784966230392456,0.8594129681587219,1.8393033742904663
1782811775863850200,2.925850341796875,0.6621517539024353,1.4812971353530884,1.4530709981918335
1782811775873921000,2.935921142578125,0.6703969240188599,1.8252439498901367,0.759569525718689
1782811775883992800,2.945992919921875,0.616100549697876,1.5625059604644775,-0.009052312932908535
1782811775894063900,2.95606396484375,0.3467399477958679,0.9184393882751465,-0.5745748281478882
1782811775904136000,2.966135986328125,0.17786338925361633,0.4187089800834656,-0.7913126945495605
1782811775914207000,2.97620703125,0.28292563557624817,0.08877420425415039,-0.6543290615081787
1782811775924279000,2.986279052734375,0.5110742449760437,-0.2964981198310852,-0.25964272022247314
1782811775934350000,2.99635009765625,0.6867571473121643,-0.5919087529182434,0.2705087661743164
1782811775944422000,3.006421875,0.8011888265609741,-0.6868631839752197,0.7586963772773743
1782811775954493000,3.016492919921875,0.8924766778945923,-0.6354423761367798,0.9782633185386658
1782811775964565000,3.02656494140625,0.9113549590110779,-0.5343796014785767,0.836208164691925
1782811775974636000,3.036635986328125,0.8021392822265625,-0.41343238949775696,0.42461156845092773
1782811775984708000,3.0467080078125,0.6174184679985046,-0.28050923347473145,-0.06389632076025009
1782811775994779100,3.056779052734375,0.39148563146591187,-0.11378391832113266,-0.4803745448589325
1782811776004851200,3.066851318359375,0.09586197882890701,-0.019142480567097664,-0.7650445699691772
1782811776014922000,3.076921875,-0.2327451854944229,-0.08870744705200195,-0.8930962681770325
1782811776024994000,3.086994140625,-0.4974832534790039,-0.21291278302669525,-0.8582059741020203
1782811776035066000,3.097066162109375,-0.6544739603996277,-0.3396241366863251,-0.6846278309822083
1782811776045137000,3.107136962890625,-0.6992055773735046,-0.5318292379379272,-0.4546574652194977
1782811776055209000,3.117208984375,-0.6636406183242798,-0.7278125882148743,-0.23036393523216248
1782811776065280000,3.127280029296875,-0.5873001217842102,-0.7952354550361633,-0.04212343320250511
1782811776075352000,3.13735205078125,-0.5307880640029907,-0.6944664716720581,0.04170675203204155
1782811776085423000,3.147423095703125,-0.5272901058197021,-0.449321985244751,-0.019010111689567566
1782811776095495000,3.157494873046875,-0.5779911279678345,-0.1231611967086792,-0.23299936950206757
1782811776105566000,3.16756591796875,-0.6870848536491394,0.17012695968151093,-0.5248813033103943
1782811776115638000,3.177637939453125,-0.7867246270179749,0.33746108412742615,-0.7616946697235107
1782811776125709000,3.187708984375,-0.8401391506195068,0.38415393233299255,-0.8783063888549805
1782811776135780400,3.1977802734375,-0.8462649583816528,0.34588056802749634,-0.8446850776672363
1782811776145851400,3.207851318359375,-0.8064846396446228,0.2641291618347168,-0.6962757110595703
1782811776155923500,3.21792333984375,-0.7120588421821594,0.15638591349124908,-0.49444642663002014
1782811776165994500,3.227994384765625,-0.5634779930114746,0.0949731320142746,-0.29001709818840027
1782811776176066300,3.23806640625,-0.3915592133998871,0.08611785620450974,-0.12919971346855164
1782811776186137300,3.248137451171875,-0.2352747917175293,0.1173919290304184,-0.00311800348572433
1782811776196209400,3.25820947265625,-0.09355601668357849,0.16317886114120483,0.11472314596176147
1782811776206280400,3.268280517578125,0.02372940257191658,0.132420614361763,0.2361239492893219
1782811776216352500,3.2783525390625,0.10177413374185562,0.04048297181725502,0.36460575461387634
1782811776226424600,3.288424560546875,0.169868603348732,-0.00033578183501958847,0.4582568407058716
1782811776236495600,3.29849560546875,0.24447306990623474,0.03832772374153137,0.4984383285045624
1782811776246567400,3.3085673828125,0.3094687759876251,0.11669517308473587,0.5030200481414795
1782811776256638200,3.31863818359375,0.367419958114624,0.19920258224010468,0.48891645669937134
1782811776266710300,3.328710205078125,0.42009294033050537,0.2690924108028412,0.46878671646118164
1782811776276781300,3.33878125,0.4732230007648468,0.3207145929336548,0.46105581521987915
1782811776286853400,3.348853271484375,0.5294204354286194,0.34259656071662903,0.47111544013023376
1782811776296924400,3.35892431640625,0.6002248525619507,0.33451706171035767,0.504838764667511
1782811776306996200,3.368996337890625,0.6872993111610413,0.37711241841316223,0.5755110383033752
1782811776317067300,3.3790673828125,0.8178402781486511,0.5851529836654663,0.6591646671295166
1782811776327139300,3.389139404296875,0.9726186394691467,0.8938633799552917,0.6736799478530884
1782811776337210400,3.39921044921875,1.0912115573883057,1.158206820487976,0.6951186656951904
1782811776347282400,3.409282470703125,1.1541697978973389,1.255140781402588,0.7501283884048462
1782811776357353500,3.419353515625,1.0982601642608643,1.370192289352417,0.7100611329078674
1782811776367425500,3.429425537109375,0.8888569474220276,1.6203434467315674,0.5162280201911926
1782811776377497300,3.439497314453125,0.6356422901153564,1.878217339515686,0.26462265849113464
1782811776387568400,3.449568359375,0.3344228267669678,1.827288031578064,0.06554655730724335
1782811776397640400,3.459640380859375,0.07602935284376144,1.4633902311325073,-0.01700451225042343
1782811776407711500,3.46971142578125,-0.14544720947742462,0.843985915184021,-0.030702197924256325
1782811776417783600,3.479783447265625,-0.41137635707855225,0.4148332178592682,-0.1261911690235138
1782811776427854300,3.489854248046875,-0.5025715827941895,0.23496191203594208,-0.2795357406139374
1782811776437926400,3.499926513671875,-0.38721299171447754,0.06350867450237274,-0.34570226073265076
1782811776447997400,3.50999755859375,-0.2535049617290497,-0.10523638874292374,-0.21974480152130127
1782811776458069200,3.5200693359375,-0.14376699924468994,-0.2984657883644104,-0.005299084819853306
1782811776468140300,3.530140380859375,-0.08923996984958649,-0.4981779456138611,0.09680275619029999
1782811776478212400,3.54021240234375,-0.11564628034830093,-0.6212130188941956,-0.025733277201652527
1782811776488283400,3.550283447265625,-0.2261113077402115,-0.6497607231140137,-0.35963907837867737
1782811776498355500,3.56035546875,-0.3876834511756897,-0.577948272228241,-0.7656710147857666
1782811776508426500,3.570426513671875,-0.5493518114089966,-0.49479034543037415,-1.1487349271774292
1782811776518498300,3.580498291015625,-0.6804115772247314,-0.46588945388793945,-1.450154185295105
1782811776528569300,3.5905693359375,-0.7355823516845703,-0.5614203214645386,-1.589425802230835
1782811776538641400,3.600641357421875,-0.706688404083252,-0.6457127928733826,-1.5109124183654785
1782811776548712400,3.61071240234375,-0.6085171103477478,-0.6446719765663147,-1.232004165649414
1782811776558784500,3.620784423828125,-0.47555509209632874,-0.616696834564209,-0.8770443797111511
1782811776568855300,3.630855224609375,-0.3478875756263733,-0.6295861005783081,-0.5792316198348999
1782811776578927400,3.64092724609375,-0.30259969830513,-0.632661759853363,-0.3816889822483063
1782811776588999400,3.65099951171875,-0.3360852301120758,-0.5754697322845459,-0.2848007380962372
1782811776599070200,3.6610703125,-0.3758997321128845,-0.48419812321662903,-0.3372112214565277
1782811776609142300,3.671142333984375,-0.4106338918209076,-0.38453853130340576,-0.5578767657279968
1782811776619213300,3.68121337890625,-0.5288761258125305,-0.22243113815784454,-0.8733997941017151
1782811776629285400,3.691285400390625,-0.7018380165100098,-0.07968354970216751,-1.187437653541565
1782811776639356400,3.7013564453125,-0.8275607824325562,-0.08489774912595749,-1.3489255905151367
1782811776649428500,3.711428466796875,-0.8314772248268127,-0.15376503765583038,-1.2210891246795654
1782811776659499500,3.72149951171875,-0.6806653141975403,-0.21750487387180328,-0.8214799165725708
1782811776669571300,3.7315712890625,-0.44430097937583923,-0.27486225962638855,-0.351081520318985
1782811776679642400,3.741642333984375,-0.21218305826187134,-0.3667865991592407,0.03289838507771492
1782811776689714400,3.75171435546875,0.0068795341067016125,-0.43882715702056885,0.2403137981891632
1782811776699785500,3.761785400390625,0.1413784921169281,-0.4818321466445923,0.3124401867389679
1782811776709857500,3.771857421875,0.1983010172843933,-0.5654345750808716,0.3353178799152374
1782811776719928600,3.781928466796875,0.2413443624973297,-0.5908240675926208,0.31986382603645325
1782811776730000400,3.79200048828125,0.2777663469314575,-0.5234045386314392,0.27283671498298645
1782811776740071400,3.802071533203125,0.29135966300964355,-0.3837377429008484,0.19124248623847961
1782811776750143200,3.812143310546875,0.28606829047203064,-0.21412980556488037,0.12303167581558228
1782811776760215300,3.82221533203125,0.2299642562866211,-0.096961110830307,0.12842802703380585
1782811776770286300,3.832286376953125,0.1763870120048523,-0.01778026483952999,0.18282556533813477
1782811776780358400,3.8423583984375,0.1783606857061386,0.026670023798942566,0.2537167966365814
1782811776790429400,3.852429443359375,0.21272559463977814,0.07986821234226227,0.32885414361953735
1782811776800501200,3.862501220703125,0.25091320276260376,0.1850806623697281,0.3941037058830261
1782811776810572300,3.872572265625,0.29563966393470764,0.30619749426841736,0.44857919216156006
1782811776820644400,3.882644287109375,0.3314722180366516,0.3560473322868347,0.4869140684604645
1782811776830715400,3.89271533203125,0.3237379789352417,0.2837728261947632,0.5205755829811096
1782811776840787500,3.902787353515625,0.3117623031139374,0.25026679039001465,0.5312055945396423
1782811776850858500,3.9128583984375,0.353836327791214,0.48501136898994446,0.5122739672660828
1782811776860930600,3.9229306640625,0.359963983297348,0.890860378742218,0.43283137679100037
1782811776871001600,3.933001708984375,0.30889463424682617,1.2906979322433472,0.30581241846084595
1782811776881073400,3.943073486328125,0.20220229029655457,1.6049126386642456,0.22597242891788483
1782811776891144200,3.953144287109375,0.06508445739746094,1.9192036390304565,0.25034818053245544
1782811776901216500,3.963216552734375,-0.06403917819261551,2.083787679672241,0.3276309669017792
1782811776911287300,3.973287353515625,-0.15693724155426025,2.029290199279785,0.4015515148639679
1782811776921359400,3.983359375,-0.13061082363128662,1.6937562227249146,0.46725356578826904
1782811776931430400,3.993430419921875,-0.013289665803313255,1.054323673248291,0.4402586817741394
1782811776941502200,4.003502197265625,0.10709454119205475,0.022312963381409645,0.33293622732162476
1782811776951573200,4.0135732421875,0.20865847170352936,-0.6609721779823303,0.3253888189792633
1782811776961645300,4.023645263671875,0.24188993871212006,-1.1447263956069946,0.3342451751232147
1782811776971717400,4.03371728515625,0.1931033581495285,-1.4871177673339844,0.25160837173461914
1782811776981788400,4.043788330078125,0.060488589107990265,-1.4236674308776855,0.09074625372886658
1782811776991860500,4.053860595703125,-0.1151416227221489,-1.105402946472168,-0.1147291511297226
1782811777001931500,4.063931640625,-0.3410155177116394,-0.7435813546180725,-0.26705798506736755
1782811777012003300,4.07400341796875,-0.5792917013168335,-0.4192401170730591,-0.3437093496322632
1782811777022074400,4.084074462890625,-0.7949981689453125,-0.24447205662727356,-0.4151848554611206
1782811777032146400,4.094146484375,-0.9217138886451721,-0.24411490559577942,-0.5267460346221924
1782811777042217500,4.104217529296875,-0.9251800179481506,-0.4133252501487732,-0.67568039894104
1782811777052289500,4.11428955078125,-0.8315649628639221,-0.728334903717041,-0.810480535030365
1782811777062360300,4.1243603515625,-0.6817962527275085,-1.2186945676803589,-0.8656420707702637
1782811777072432400,4.134432373046875,-0.5196921229362488,-1.7462329864501953,-0.7912216186523438
1782811777082503400,4.14450341796875,-0.39963099360466003,-2.1659398078918457,-0.6066347360610962
1782811777092575200,4.1545751953125,-0.3645811080932617,-2.341555118560791,-0.41738569736480713
1782811777102646300,4.164646240234375,-0.38181814551353455,-2.2114710807800293,-0.32659560441970825
1782811777112718300,4.17471826171875,-0.4333614408969879,-1.8357741832733154,-0.3874414265155792
1782811777122789400,4.184789306640625,-0.5217770934104919,-1.331786870956421,-0.5854088068008423
1782811777132861400,4.194861328125,-0.6155373454093933,-0.7782174348831177,-0.8383792638778687
1782811777142934300,4.204934326171875,-0.6777445077896118,-0.24744249880313873,-1.0641825199127197
1782811777153005300,4.21500537109375,-0.6940173506736755,0.1849801242351532,-1.191106915473938
1782811777163077400,4.225077392578125,-0.6930838823318481,0.45113006234169006,-1.2196768522262573
1782811777173148400,4.2351484375,-0.6690744161605835,0.5269576907157898,-1.1685138940811157
1782811777183220500,4.245220458984375,-0.6273554563522339,0.4923064708709717,-1.0376006364822388
1782811777193291500,4.25529150390625,-0.5826940536499023,0.3919682204723358,-0.8177860975265503
1782811777203363300,4.26536328125,-0.5488066077232361,0.20599092543125153,-0.5139787793159485
1782811777213434000,4.27543408203125,-0.538231372833252,-0.0561981201171875,-0.1492765247821808
1782811777223506200,4.285506103515625,-0.5404369831085205,-0.30442628264427185,0.23353424668312073
1782811777233577200,4.2955771484375,-0.5305157899856567,-0.46552330255508423,0.6232225894927979
1782811777243649300,4.305649169921875,-0.49796000123023987,-0.4795275330543518,1.004511833190918
1782811777253720300,4.31572021484375,-0.4571155309677124,-0.3888877034187317,1.3445719480514526
1782811777263792400,4.32579248046875,-0.41562721133232117,-0.2675863206386566,1.616368293762207
1782811777273863400,4.335863525390625,-0.3657151460647583,-0.14649569988250732,1.822292447090149
1782811777283935200,4.345935302734375,-0.3031489849090576,-0.04853397607803345,1.961485505104065
1782811777294006300,4.35600634765625,-0.27058497071266174,0.14287513494491577,2.0567660331726074
1782811777304078300,4.366078369140625,-0.19457940757274628,0.28833886981010437,2.068565845489502
1782811777314149400,4.3761494140625,-0.028573207557201385,0.366667777299881,1.9471749067306519
1782811777324221400,4.386221435546875,0.15668587386608124,0.5826817750930786,1.6900432109832764
1782811777334292500,4.39629248046875,0.32589641213417053,0.935110330581665,1.3954964876174927
1782811777344364300,4.4063642578125,0.4805261790752411,1.2693475484848022,1.1433825492858887
1782811777354436400,4.416436279296875,0.6129270792007446,1.4488816261291504,0.9665272235870361
1782811777364507100,4.426507080078125,0.7056517004966736,1.367587924003601,0.8551203012466431
1782811777374579200,4.4365791015625,0.730437695980072,1.0752167701721191,0.7800537943840027
1782811777384650200,4.446650146484375,0.6965484619140625,0.8215913772583008,0.7742725610733032
1782811777394722300,4.456722412109375,0.5859801769256592,0.7801952958106995,0.8298932313919067
1782811777404793300,4.46679345703125,0.4501754939556122,0.8127226233482361,0.8641276359558105
1782811777414865200,4.476865234375,0.3661787211894989,0.6598271727561951,0.8071309924125671
1782811777424936200,4.486936279296875,0.3830823302268982,0.31603068113327026,0.7289003729820251
1782811777435008300,4.49700830078125,0.509946346282959,0.14027120172977448,0.7539231181144714
1782811777445079300,4.507079345703125,0.6655204892158508,0.24426284432411194,0.8888865113258362
1782811777455151400,4.5171513671875,0.7272141575813293,0.417876273393631,0.960682213306427
1782811777465222400,4.527222412109375,0.6160109639167786,0.38868215680122375,0.8822609186172485
1782811777475294500,4.53729443359375,0.40797796845436096,0.11160657554864883,0.6297500133514404
1782811777485365500,4.547365478515625,0.19328618049621582,-0.3698444664478302,0.24687989056110382
1782811777495437300,4.557437255859375,0.060574062168598175,-0.9274072051048279,-0.19187666475772858
1782811777505508400,4.56750830078125,0.019518237560987473,-1.5125340223312378,-0.6352586150169373
1782811777515580400,4.577580322265625,0.035826921463012695,-2.035660982131958,-1.0377423763275146
1782811777525651200,4.587651123046875,0.055260274559259415,-2.340428352355957,-1.3961199522018433
1782811777535723300,4.59772314453125,0.053493302315473557,-2.308582305908203,-1.64166259765625
1782811777545795300,4.60779541015625,0.06170462816953659,-1.7515103816986084,-1.647687315940857
1782811777555866400,4.617866455078125,0.04286302253603935,-0.966124415397644,-1.5152850151062012
1782811777565938200,4.627938232421875,-0.023379381746053696,-0.28271225094795227,-1.3383816480636597
1782811777576009200,4.63800927734375,-0.12773610651493073,0.1250266134738922,-1.161050796508789
1782811777586081300,4.648081298828125,-0.22895167768001556,0.21786360442638397,-0.993241548538208
1782811777596152300,4.65815234375,-0.30141109228134155,0.007446017116308212,-0.8418821692466736
1782811777606224400,4.668224365234375,-0.3828484117984772,-0.3975624442100525,-0.7461715936660767
1782811777616295400,4.67829541015625,-0.5071855783462524,-0.8496841192245483,-0.7586234211921692
1782811777626367200,4.6883671875,-0.690363883972168,-1.2819732427597046,-0.8587065935134888
1782811777636438300,4.698438232421875,-0.879162609577179,-1.5492792129516602,-0.9737365245819092
1782811777646510300,4.70851025390625,-0.9680117964744568,-1.4801790714263916,-1.0129332542419434
1782811777656581400,4.718581298828125,-0.9247666597366333,-1.1425915956497192,-0.9517071843147278
1782811777666653400,4.7286533203125,-0.8007608652114868,-0.6950567364692688,-0.7943194508552551
1782811777676724200,4.73872412109375,-0.6626304388046265,-0.224253848195076,-0.5675222277641296
1782811777686796500,4.748796630859375,-0.5519182682037354,0.26942136883735657,-0.31302309036254883
1782811777696867300,4.758867431640625,-0.4923703670501709,0.740283191204071,-0.08096185326576233
1782811777706939100,4.768939208984375,-0.4924028515815735,1.1100245714187622,0.1031387448310852
1782811777717010200,4.77901025390625,-0.5382692217826843,1.309525966644287,0.2535998821258545
1782811777727082200,4.789082275390625,-0.612940788269043,1.2967305183410645,0.3631940186023712
1782811777737153300,4.7991533203125,-0.6608076095581055,1.1658180952072144,0.45291003584861755
1782811777747225300,4.809225341796875,-0.6479107141494751,1.0501641035079956,0.5272455215454102
1782811777757297200,4.819297119140625,-0.5638952851295471,0.9768527150154114,0.5832342505455017
1782811777767368200,4.8293681640625,-0.42707669734954834,0.909410834312439,0.6361818909645081
1782811777777440300,4.839440185546875,-0.27393922209739685,0.8442191481590271,0.692520797252655
1782811777787511300,4.84951123046875,-0.13066381216049194,0.7769775390625,0.7489398717880249
1782811777797583400,4.859583251953125,0.0001962697133421898,0.7148143649101257,0.7967430949211121
1782811777807654400,4.869654296875,0.10544625669717789,0.637687087059021,0.8410250544548035
1782811777817726500,4.8797265625,0.18499766290187836,0.5490708351135254,0.8748857378959656
1782811777827797500,4.889797607421875,0.23441661894321442,0.4568061828613281,0.9076037406921387
1782811777837869300,4.899869384765625,0.2726204991340637,0.39037805795669556,0.9430022239685059
1782811777847940000,4.909940185546875,0.2801750898361206,0.34553414583206177,0.9591764211654663
1782811777858012200,4.92001220703125,0.24365855753421783,0.3307234048843384,0.9512993693351746
1782811777868083200,4.930083251953125,0.2196163386106491,0.3034784495830536,0.9043794870376587
1782811777878155300,4.9401552734375,0.23725183308124542,0.2289191484451294,0.8341566920280457
1782811777888226300,4.950226318359375,0.3055592477321625,0.11153686046600342,0.8020243048667908
1782811777898298400,4.96029833984375,0.39531809091567993,-0.03831496462225914,0.8286709189414978
1782811777908369400,4.970369384765625,0.45720380544662476,-0.20558224618434906,0.915642261505127
1782811777918441200,4.980441162109375,0.45194336771965027,-0.3139873445034027,1.0613819360733032
1782811777928512300,4.99051220703125,0.35143354535102844,-0.3347837030887604,1.2153695821762085
1782811777938584300,5.000584228515625,0.19562886655330658,-0.21565145254135132,1.3236702680587769
1782811777948656400,5.010656494140625,0.07545558363199234,0.0906357690691948,1.3257522583007812
1782811777958727400,5.0207275390625,0.055524490773677826,0.4245719313621521,1.239013671875
1782811777968799200,5.03079931640625,0.08786751329898834,0.5832683444023132,1.1095513105392456
1782811777978870300,5.040870361328125,0.12812192738056183,0.5506805181503296,1.039833426475525
1782811777988942300,5.0509423828125,0.13699132204055786,0.396138072013855,1.0441025495529175
1782811777999013400,5.061013427734375,0.1191776692867279,0.21019092202186584,1.099670171737671
1782811778009085400,5.07108544921875,0.040177397429943085,0.09417590498924255,1.1433916091918945
1782811778019156200,5.08115625,-0.10779909044504166,-0.04543374478816986,1.0847336053848267
1782811778029228300,5.091228271484375,-0.23207230865955353,-0.3181810975074768,0.8972504734992981
1782811778039299300,5.10129931640625,-0.2815905213356018,-0.5770038366317749,0.6548088192939758
1782811778049371100,5.11137109375,-0.27560585737228394,-0.6753988862037659,0.3832165002822876
1782811778059442200,5.121442138671875,-0.2618143558502197,-0.5384814143180847,0.14421747624874115
1782811778069514200,5.13151416015625,-0.27283239364624023,-0.2655441164970398,-0.05812258645892143
1782811778079585300,5.141585205078125,-0.3170349895954132,-0.045624785125255585,-0.29041045904159546
1782811778089657300,5.1516572265625,-0.4083065688610077,0.075523741543293,-0.6119735836982727
1782811778099728400,5.161728271484375,-0.5402358174324036,0.1688980907201767,-0.9839547872543335
1782811778109800400,5.171800537109375,-0.6695490479469299,0.267718642950058,-1.337327003479004
1782811778119871500,5.18187158203125,-0.7610853910446167,0.32989200949668884,-1.6070899963378906
1782811778129943300,5.191943359375,-0.8121551871299744,0.28172314167022705,-1.7284449338912964
1782811778140013800,5.202013916015625,-0.8173685669898987,0.09039929509162903,-1.6868876218795776
1782811778150084900,5.2120849609375,-0.7997536063194275,-0.21924537420272827,-1.481842041015625
1782811778160157000,5.222156982421875,-0.7331194877624512,-0.5004949569702148,-1.1356186866760254
1782811778170228000,5.23222802734375,-0.6090452075004578,-0.689662516117096,-0.6992110013961792
1782811778180300000,5.242300048828125,-0.4608989655971527,-0.7977752089500427,-0.2741859257221222
1782811778190371000,5.25237109375,-0.34120452404022217,-0.7967439889907837,0.030103128403425217
1782811778200443100,5.262443115234375,-0.2666431665420532,-0.6643498539924622,0.14955677092075348
1782811778210514200,5.27251416015625,-0.26966211199760437,-0.41989830136299133,0.08409786969423294
1782811778220586000,5.2825859375,-0.3227911591529846,-0.14666567742824554,-0.11443725973367691
1782811778230657000,5.292656982421875,-0.3885536789894104,0.10164213180541992,-0.34658101201057434
1782811778240729000,5.30272900390625,-0.4275749921798706,0.34065356850624084,-0.5388545989990234
1782811778250800000,5.312800048828125,-0.4142911434173584,0.5768570899963379,-0.655606746673584
1782811778260871000,5.322870849609375,-0.3804565370082855,0.7597719430923462,-0.686988115310669
1782811778270942000,5.33294189453125,-0.3468050956726074,0.834875762462616,-0.641402542591095
1782811778281014000,5.343013916015625,-0.3102881908416748,0.7828440070152283,-0.5469916462898254
1782811778291085000,5.3530849609375,-0.2512166202068329,0.6183546185493469,-0.40547046065330505
1782811778301157000,5.3631572265625,-0.14581157267093658,0.4201628863811493,-0.23808173835277557
1782811778311229000,5.37322900390625,0.008057884871959686,0.2889308035373688,-0.057575881481170654
1782811778321300000,5.383300048828125,0.17756173014640808,0.22568778693675995,0.1405143290758133
1782811778331372000,5.3933720703125,0.32313916087150574,0.20066232979297638,0.33630993962287903
1782811778341443000,5.403443115234375,0.4347724914550781,0.17125631868839264,0.5314576029777527
1782811778351515100,5.41351513671875,0.4989069998264313,0.12534049153327942,0.7016280293464661
1782811778361586200,5.423586181640625,0.5049997568130493,0.0736735388636589,0.8632701635360718
1782811778371658000,5.433657958984375,0.461092472076416,0.03481269255280495,1.0098854303359985
1782811778381729000,5.44372900390625,0.38411372900009155,-0.01086503267288208,1.1242485046386719
1782811778391801000,5.453801025390625,0.29087433218955994,-0.049410294741392136,1.2074416875839233
1782811778401872000,5.463871826171875,0.20785625278949738,-0.024895165115594864,1.2751386165618896
1782811778411944000,5.47394384765625,0.15826073288917542,0.06570184230804443,1.3131548166275024
1782811778422015000,5.484014892578125,0.14002881944179535,0.182988241314888,1.343683123588562
1782811778432087000,5.494087158203125,0.1725044697523117,0.34148547053337097,1.3607171773910522
1782811778442158000,5.504157958984375,0.2592310905456543,0.5417814254760742,1.4076389074325562
1782811778452230000,5.51422998046875,0.3692569136619568,0.7485455274581909,1.50724458694458
1782811778462301000,5.524301025390625,0.45338916778564453,0.8611656427383423,1.5801646709442139
1782811778472373000,5.534373046875,0.48111027479171753,0.8137227296829224,1.5904390811920166
1782811778482444000,5.544444091796875,0.4327462315559387,0.45718926191329956,1.5305384397506714
1782811778492516000,5.55451611328125,0.4477179944515228,-0.08283429592847824,1.322839617729187
1782811778502587100,5.564587158203125,0.558118999004364,-0.2940288484096527,1.0898630619049072
1782811778512659200,5.5746591796875,0.6336063146591187,-0.2242167592048645,0.8310188055038452
1782811778522731000,5.58473095703125,0.632743239402771,0.011350713670253754,0.5751872658729553
1782811778532802000,5.594802001953125,0.6464446783065796,0.14209353923797607,0.3542042672634125
1782811778542874000,5.6048740234375,0.5395449995994568,-0.15945874154567719,0.11482411623001099
1782811778552945000,5.61494482421875,0.07514461874961853,-0.650083601474762,-0.2696939706802368
1782811778563017200,5.625017333984375,-0.5980966687202454,-0.7881314754486084,-0.7424232363700867
1782811778573088000,5.635087890625,-1.1039577722549438,-0.5367914438247681,-1.1190894842147827
1782811778583159800,5.645159912109375,-1.3387590646743774,-0.2505781650543213,-1.370132565498352
