time,seconds_elapsed,z,y,x
1782811461136716000,0.069716064453125,0.36998832764625544,-0.2752605640731752,-0.13432459155470133
1782811461146788000,0.0797880859375,0.41019758843779563,-0.2538895670033991,-0.05630158680602908
1782811461156859100,0.089859130859375,0.4838806642860174,-0.2543641987778246,0.01798091624006629
1782811461166931200,0.09993115234375,0.5056763165086507,-0.24791546102985737,0.06488456010371446
1782811461177002200,0.110002197265625,0.2959568767517805,-0.2927019666090607,0.044991818892955775
1782811461187073300,0.1200732421875,-0.08871171815395355,-0.25109672141447664,-0.013188567396998405
1782811461197145300,0.130145263671875,-0.44182840597629547,-0.18406550467088817,-0.038296997429430484
1782811461207216400,0.14021630859375,-0.6104495271474123,-0.07653466588705778,-0.020517595110833644
1782811461217288200,0.1502880859375,-0.5492296270310878,-0.030768501620739696,0.0829603880856186
1782811461227359200,0.160359130859375,-0.3062584905356169,-0.03032221915796399,0.15234138282574713
1782811461237430000,0.170429931640625,-0.11712766529917716,-0.06929536228328943,0.18178002408221364
1782811461247502000,0.180502197265625,-0.014050737184286117,-0.11560746999457477,0.1605260044556111
1782811461257572900,0.19057275390625,0.11065934606790542,-0.17615049376264214,0.07008395537771284
1782811461267645000,0.20064501953125,0.2321697564959526,-0.20857786850631235,0.02046301537938416
1782811461277716000,0.210716064453125,0.2556833185523748,-0.17292817071527242,0.014714827116206287
1782811461287787000,0.220787109375,0.2570926008284092,-0.12245265971422195,0.015843611950427293
1782811461297859000,0.230859130859375,0.31236323715150355,-0.10571063761934638,-0.009057824267819523
1782811461307930000,0.24093017578125,0.3605482991278171,-0.13870631377026438,-0.06697071872800588
1782811461318002000,0.251001953125,0.34450025064647194,-0.16081877685710788,-0.10706351353302597
1782811461328073000,0.261072998046875,0.22081191165745256,-0.22450477482602,-0.15911189987398683
1782811461338144000,0.27114404296875,0.07479775909185409,-0.27974516214132306,-0.20190496661365032
1782811461348216000,0.281216064453125,-0.08629764274954796,-0.24772198428437112,-0.21965682333819567
1782811461358287000,0.291287109375,-0.1613888318300247,-0.16738310380876062,-0.18350677480958402
1782811461368359200,0.301359130859375,-0.09999357514679431,-0.11185162459239363,-0.10782697218619286
1782811461378430000,0.311429931640625,0.09776771579086779,-0.11844517763853073,-0.045106677444279195
1782811461388501000,0.3215009765625,0.25948154179155825,-0.10952741942852735,0.03220247994661331
1782811461398572800,0.33157275390625,0.33438860647678376,-0.09671060795336961,0.08125394949391483
1782811461408643800,0.341643798828125,0.3217939133197069,-0.09567994973137975,0.06215257785655558
1782811461418716000,0.3517158203125,0.2496539752602577,-0.06164879305288195,0.06235701438747346
1782811461428787000,0.361786865234375,0.17921090424656866,-0.019760347002744674,0.0754249510794878
1782811461438858000,0.37185791015625,0.14995792175531386,0.04391030726656318,0.09284932941533625
1782811461448930000,0.381929931640625,0.16133388677239416,0.044653526849299664,0.06697371440269052
1782811461459001000,0.3920009765625,0.21721944012343883,0.016682693123072384,0.06101458680257201
1782811461469073200,0.4020732421875,0.24882804583013057,-0.009810469266027211,0.028610373738780615
1782811461479144200,0.412144287109375,0.22689152383208275,-0.03411284361258149,0.008456278178095817
1782811461489215000,0.422215087890625,0.1957575498998165,-0.054308513292670245,-0.01557261298932135
1782811461499286800,0.432286865234375,0.25081074407994747,-0.0010122457824647427,-0.020070216669514775
1782811461509357800,0.44235791015625,0.40914895616769786,0.03590791033580899,0.06169182847701013
1782811461519428900,0.452428955078125,0.5652116245388984,0.030866847428679463,0.13742526098378002
1782811461529501000,0.4625009765625,0.6484609856337309,0.02269406236708164,0.17866108834408223
1782811461539572000,0.472572021484375,0.6484405273675918,0.01361614515930414,0.17400186436139045
1782811461549644000,0.48264404296875,0.4840981064289808,-0.0570686256557703,0.13679624236524104
1782811461559715000,0.492715087890625,0.30086043088436126,-0.12201529121026396,-0.00023570845201611518
1782811461569786000,0.5027861328125,0.207021286714077,-0.21367519164532423,-0.09760068866088986
1782811461579858200,0.512858154296875,0.12584580928385258,-0.31068492867574093,-0.1538791137870401
1782811461589929000,0.522928955078125,0.09049743252694606,-0.36203897607699037,-0.18248495748117566
1782811461600001000,0.5330009765625,0.1548451092749834,-0.36962957733646035,-0.19706760958507655
1782811461610071800,0.54307177734375,0.2253162373393774,-0.35883564999103545,-0.14565540225580334
1782811461620142800,0.553142822265625,0.21357026996612546,-0.3426851640485227,-0.13244754563644529
1782811461630215000,0.56321484375,0.10592121163010597,-0.33528482466414566,-0.14331351530477404
1782811461640286000,0.573285888671875,0.034656302839517594,-0.3463033545456827,-0.13206249184161423
1782811461650358000,0.58335791015625,-0.030949265015125273,-0.3476641945701092,-0.13440773979350923
1782811461660429000,0.593428955078125,-0.11129530588388442,-0.3419216323301196,-0.1101022967070341
1782811461670500000,0.6035,-0.20078502267301082,-0.30968137765638526,-0.04178264758810401
1782811461680572200,0.613572265625,-0.3081768913775682,-0.2789723511379212,-0.033709377378225325
1782811461690643200,0.623643310546875,-0.42915421784222124,-0.30777488644793627,-0.1354902743332088
1782811461700715000,0.633715087890625,-0.5169119962722063,-0.3373571739587933,-0.2262716383680701
1782811461710785800,0.643785888671875,-0.5053413854658604,-0.35835298104062674,-0.2841362367071211
1782811461720856800,0.65385693359375,-0.3915443258941173,-0.38874994593523443,-0.28508418508172034
1782811461730929000,0.663928955078125,-0.23890286414325235,-0.3986103918228298,-0.23908158171102403
1782811461741000000,0.674,-0.15411913308799266,-0.365637292829901,-0.16839666476547718
1782811461751072000,0.684072021484375,-0.13572013756632803,-0.27990086415968835,-0.0804158912345767
1782811461761143000,0.69414306640625,-0.09918693493902683,-0.2337718579303473,-0.027465660683065652
1782811461771214000,0.704214111328125,0.016404022312164306,-0.20093246831968425,0.0725457423813641
1782811461781286000,0.714285888671875,0.13010054411888122,-0.2124626009851694,0.15397870170399547
1782811461791357000,0.72435693359375,0.23698095616996287,-0.19832637747451662,0.23675445393770933
1782811461801428000,0.734427978515625,0.3402186278045177,-0.22006642705239354,0.2926062511496246
1782811461811500000,0.7445,0.3753191672801971,-0.2864280009061098,0.37527284392043947
1782811461821570800,0.75457080078125,0.3339683352380991,-0.32946466714330014,0.36749154239445925
1782811461831643000,0.764642822265625,0.19108371286988257,-0.3114106126017868,0.36144685540273785
1782811461841714000,0.7747138671875,0.09670096334218978,-0.28239479986727234,0.3847892986759543
1782811461851785000,0.784784912109375,0.11167232250273228,-0.25457966815941035,0.40564562422186135
1782811461861857000,0.79485693359375,0.171962832814455,-0.27437377130128443,0.41240591213703154
1782811461871928000,0.804927978515625,0.23468436966538428,-0.3508257273409515,0.3630748949959874
1782811461882000000,0.814999755859375,0.34298400086462494,-0.43873497000560163,0.3554281796351075
1782811461892071000,0.82507080078125,0.4783686228662729,-0.5533383775241673,0.32093890392556784
1782811461902142000,0.835141845703125,0.532537435427308,-0.6750670338127762,0.2813021823249757
1782811461912214000,0.845214111328125,0.4226818069577217,-0.8225183795746416,0.2271295703716576
1782811461922285000,0.85528515625,0.24745675747692583,-0.9346221522971987,0.18245865399613975
1782811461932357000,0.865357177734375,0.18568273060917853,-1.0156799946971238,0.14778861489221454
1782811461942428000,0.875427978515625,0.07150806989669799,-1.085744003265351,0.14342910450845955
1782811461952499000,0.8854990234375,-0.20301731176972387,-1.1523684658389537,0.09731807232722639
1782811461962571000,0.895571044921875,-0.4774269581019878,-1.2100270932771264,0.03613455869853496
1782811461972642000,0.90564208984375,-0.6458668774873018,-1.2059152740441261,0.046615912963449954
1782811461982713900,0.9157138671875,-0.6243102947175503,-1.2028240300305186,0.051166269744187594
1782811461992785000,0.925784912109375,-0.5106634572714567,-1.1904632917597888,0.11122954717129468
1782811462002856000,0.93585595703125,-0.4149778084516525,-1.1653118993684648,0.1629873530678451
1782811462012928000,0.945927978515625,-0.3597112637817859,-1.197403393221274,0.19694880551099775
1782811462022999000,0.9559990234375,-0.26358780806660653,-1.2611121144786477,0.21017989687547087
1782811462033071000,0.966071044921875,-0.06513911938667297,-1.3488205008089542,0.19065087441056966
1782811462043142100,0.97614208984375,0.17495441584587096,-1.3856184918522834,0.21029607060104608
1782811462053213000,0.986212890625,0.2722474998623133,-1.451319336774945,0.21721914786249397
1782811462063285000,0.996284912109375,0.147965871155262,-1.4294231467872858,0.21921339041963217
1782811462073356000,1.00635595703125,0.07027122157812118,-1.367513803102076,0.24726576494947075
1782811462083427000,1.016427001953125,0.14271335745453834,-1.3230625208266078,0.26071912076249715
1782811462093499000,1.026498779296875,0.27128771491944786,-1.269776190188527,0.32151538863927126
1782811462103570000,1.03656982421875,0.3549994328290224,-1.2366995577558875,0.36688217832446096
1782811462113642000,1.04664208984375,0.37901217657923697,-1.2210199772607535,0.35664705390557644
1782811462123713000,1.056713134765625,0.26377427054941655,-1.2278294380798935,0.3324884719438851
1782811462133784000,1.0667841796875,0.07622457702457905,-1.2057308573879302,0.2690061798535287
1782811462143856000,1.076856201171875,-0.09925064782500266,-1.1706951998420059,0.23458500094413756
1782811462153927200,1.08692724609375,-0.1490109962940216,-1.1551570005789398,0.20641806012392042
1782811462163999000,1.0969990234375,-0.154853292581439,-1.1373137392438948,0.17501023768633603
1782811462174069800,1.10706982421875,-0.09652911390662193,-1.1342955604664982,0.1468872821383178
1782811462184140800,1.117140869140625,0.011116437298059462,-1.1439932170078158,0.1169517242103815
1782811462194212900,1.127212890625,0.06468553040027618,-1.1638571705155074,0.062126931958645576
1782811462204284000,1.137283935546875,0.08148352046608924,-1.1289086067311465,0.0407625107601285
1782811462214356000,1.14735595703125,0.10242635525166988,-1.0745650951903314,0.03964695073366165
1782811462224427000,1.157427001953125,0.07350012049674988,-1.0274478085760026,0.022116408609598875
1782811462234498600,1.16749853515625,0.08610767313539981,-1.0270816786773502,0.0008121931657195091
1782811462244570400,1.1775703125,0.07869652009606361,-1.040833579045534,-0.021330811189860105
1782811462254641400,1.187641357421875,0.03545592878460884,-1.0323511435128747,-0.00018996961414813993
1782811462264712400,1.19771240234375,-0.005317980152368545,-1.030804790853709,0.0588245294123888
1782811462274784500,1.207784423828125,-0.07094342175126075,-0.9826436942748725,0.09624781274721025
1782811462284855600,1.21785546875,-0.18986381568610666,-0.9191014886908233,0.10090557542517781
1782811462294927600,1.227927734375,-0.3395259693652391,-0.855561328933388,0.1368573249027133
1782811462304998700,1.23799853515625,-0.4919236854881048,-0.800075296293944,0.11872560201510786
1782811462315069700,1.248069580078125,-0.614745178514719,-0.791000301695615,0.04266396046727895
1782811462325141800,1.258141845703125,-0.64219608002007,-0.8274729332420975,-0.1670319522835314
1782811462335212800,1.268212890625,-0.539982490736246,-0.9310891558654606,-0.29112565720304845
1782811462345284600,1.27828466796875,-0.4786041851878166,-1.056878412656486,-0.2574598267056048
1782811462355355400,1.28835546875,-0.4901064069330692,-1.079808987193182,-0.14931187893673778
1782811462365426400,1.298426513671875,-0.6955015537500381,-0.9576412088349461,-0.03367985902279615
1782811462375498500,1.30849853515625,-1.078333580878377,-0.7088319407705217,0.03717398474887013
1782811462385569500,1.318569580078125,-1.4438012162297964,-0.332388628298603,0.11266542519330977
1782811462395641600,1.3286416015625,-1.6704589313060045,0.08175205347547307,0.2338245379656553
1782811462405712600,1.338712646484375,-1.6921265732347963,0.4716691982928663,0.38037045932039615
1782811462415783700,1.34878369140625,-1.4679396321862934,0.6765826260074973,0.4124468286693096
1782811462425855700,1.358855712890625,-1.0672831945538521,0.6581346767775714,0.35542511089518664
1782811462435926800,1.3689267578125,-0.48548050069808957,0.42312436309345064,0.28670827915221453
1782811462445997800,1.378997802734375,0.07612988447844982,0.09765925044771283,0.178790633007884
1782811462456069600,1.389069580078125,0.4368190533816814,-0.21075517601277677,0.07972513249143957
1782811462466140400,1.399140380859375,0.6422258906364441,-0.41184488072078673,-0.0011667056918144225
1782811462476212500,1.40921240234375,0.7919266227602958,-0.5297067420460283,-0.061132952485233545
1782811462486283500,1.419283447265625,0.8997083675652742,-0.5722018852850422,-0.03998363534212112
1782811462496354600,1.4293544921875,0.9398410559892654,-0.5808623077331111,0.004270370795577764
1782811462506426600,1.439426513671875,0.8163701591432094,-0.5614871241230517,0.017917495615035296
1782811462516497700,1.44949755859375,0.5989648410588503,-0.49321405409220603,0.04813143209293484
1782811462526569700,1.45956982421875,0.3935235170125961,-0.44648510920833795,0.07300926823988556
1782811462536640800,1.469640869140625,0.16150632072985172,-0.40434937386624514,0.044349721597135065
1782811462546711800,1.4797119140625,-0.07766717704832553,-0.42042208186481145,-0.03221007873117924
1782811462556783600,1.48978369140625,-0.3576344575077295,-0.49512807101998474,-0.11116261941492557
1782811462566854700,1.499854736328125,-0.6119914958924054,-0.5049679490435868,-0.13003069375306367
1782811462576925400,1.509925537109375,-0.8182271851867436,-0.423830465536192,-0.19269903911203146
1782811462586997500,1.51999755859375,-0.8954670767337083,-0.33509434359334406,-0.23283844953775404
1782811462597068500,1.530068603515625,-0.8318126429468393,-0.16869206751547752,-0.18684680595248937
1782811462607140600,1.540140625,-0.6600859569758176,0.004574724037013948,-0.08971212736815214
1782811462617211600,1.550211669921875,-0.43463586412370203,0.06825652075484395,0.0012244272284209728
1782811462627282700,1.56028271484375,-0.238638660249114,0.08760331852063537,0.0063538990713655945
1782811462637354500,1.5703544921875,-0.08771744641959667,0.09165058461744338,-0.050945904991775745
1782811462647425500,1.580425537109375,0.013479074776172637,0.06726634067371487,-0.12261617971286178
1782811462657497600,1.59049755859375,0.17028350142538545,0.05159603946357965,-0.09875511939302087
1782811462667568600,1.600568603515625,0.2848515453696251,0.055170390819013114,-0.010474632263183592
1782811462677639700,1.6106396484375,0.27899229794740676,0.029097791929543017,0.06775383192971349
1782811462687711700,1.620711669921875,0.10061609095931053,0.06625811347924172,0.11237024163901806
1782811462697782500,1.630782470703125,-0.15523147824406622,0.09556004967875778,0.08155366309285163
1782811462707854600,1.6408544921875,-0.3458481581240892,0.11799421900063753,0.017058979089558123
1782811462717925600,1.650925537109375,-0.39529929451346396,0.12104374276436865,0.0030747312702238557
1782811462727996700,1.66099658203125,-0.3966197294622659,0.13100202300325034,0.004052051869779825
1782811462738068500,1.671068359375,-0.3508873213350773,0.0992786318104714,0.017987784372270107
1782811462748139500,1.681139404296875,-0.17845687100887297,0.00010565233156085014,0.027035160311311483
1782811462758210600,1.69121044921875,0.1383528241574764,-0.15020919310264289,-0.011531740100681781
1782811462768282600,1.70128271484375,0.5162567472338676,-0.29381672291792926,-0.0429964072920382
1782811462778353700,1.711353759765625,0.9643845456153154,-0.3991127883870154,-0.05284881600365043
1782811462788425700,1.72142578125,1.43510353051126,-0.4698688708726316,0.025722616408020257
1782811462798496800,1.731496826171875,1.8121411921471355,-0.525406706764549,0.13234876143708824
1782811462808567600,1.741567626953125,2.027946089297533,-0.6040507660210133,0.2546165661036968
1782811462818639600,1.7516396484375,2.0723083781152964,-0.6812904383722692,0.34394466259032486
1782811462828710700,1.761710693359375,2.0499258659154176,-0.6882078896105289,0.43794352736696596
1782811462838782500,1.771782470703125,1.8701468063920734,-0.6808919405739754,0.4937012165546417
1782811462848853500,1.781853515625,1.5933593250125646,-0.6672690003477036,0.4895467272236943
1782811462858924500,1.791924560546875,1.3378811736434697,-0.6897879253435879,0.46658509996160863
1782811462868996600,1.80199658203125,1.1033850200265645,-0.7331435944020748,0.4355537096209824
1782811462879067600,1.812067626953125,0.9003665392130613,-0.8702245719928294,0.38098186921700833
1782811462889139700,1.8221396484375,0.7433283038079738,-1.0122942977815865,0.31203853524178266
1782811462899210800,1.832210693359375,0.5794090767174959,-1.1257301958907395,0.2044080354757607
1782811462909281500,1.842281494140625,0.47224984772503376,-1.2876330416575072,0.0984320249184966
1782811462919353600,1.852353515625,0.5103910700708627,-1.4318448209762573,0.022407500510662794
1782811462929424600,1.862424560546875,0.5937076511830092,-1.5728648185163736,0.03137172821089625
1782811462939495700,1.87249560546875,0.6284755977034568,-1.666250665961206,-0.005653495717048645
1782811462949567500,1.8825673828125,0.5708446619898081,-1.7117390361994504,-0.1087898989342153
1782811462959638500,1.892638427734375,0.4839297641247511,-1.704424475402385,-0.2092167509317398
1782811462969710600,1.902710693359375,0.42715749106705186,-1.6526903426423667,-0.28587402028515935
1782811462979781600,1.91278173828125,0.3616168051421642,-1.5808347744822502,-0.2868229915730655
1782811462989852700,1.922852783203125,0.24822832637131212,-1.5047655341498554,-0.18170330558419226
1782811462999924700,1.9329248046875,0.09070727588534355,-1.3847725425474344,-0.021188626240193843
1782811463009995800,1.942995849609375,-0.0830973854035139,-1.3253101536229253,0.07418108849823475
1782811463020067600,1.953067626953125,-0.2507739192008972,-1.2846189545333384,0.11037307647243141
1782811463030138400,1.963138427734375,-0.3761000885248184,-1.2891475378736852,0.06655994597002864
1782811463040209400,1.97320947265625,-0.5147603711962699,-1.2866814400210975,-0.00006517419070005416
1782811463050281500,1.983281494140625,-0.5910252802312373,-1.330032798230648,-0.11828048859611152
1782811463060352500,1.9933525390625,-0.5223351903647184,-1.326492933666706,-0.2309910681053996
1782811463070423600,2.003423583984375,-0.38214112225472924,-1.4012620511859655,-0.21181480460092425
1782811463080495600,2.01349560546875,-0.32863223490715027,-1.5141002025976775,-0.06241714707687497
1782811463090566700,2.023566650390625,-0.5257827004700899,-1.5088769149914383,0.06198547766134142
1782811463100638700,2.033638671875,-0.9657552494466304,-1.3422586580753326,0.12758388512283564
1782811463110709800,2.043709716796875,-1.5616116030961273,-1.0638155184432863,0.12677534521892667
1782811463120780800,2.05378076171875,-2.1925223189920184,-0.7228508215118199,0.14872691865563392
1782811463130852600,2.0638525390625,-2.697867211589217,-0.3121285516127944,0.25555209338814017
1782811463140923400,2.07392333984375,-2.9705004958987233,0.05229213196896016,0.34332565390914677
1782811463150995500,2.083995361328125,-2.9679303531497716,0.3286488937810063,0.45003597009032964
1782811463161066500,2.09406640625,-2.629372352033853,0.4767287467047572,0.5119397608175873
1782811463171137500,2.104137451171875,-2.100731924045086,0.44997006524726746,0.5452509326584637
1782811463181209600,2.114209716796875,-1.477132992467284,0.37844431356340646,0.5597498520016669
1782811463191280600,2.12428076171875,-0.8879302514880895,0.31794505587182936,0.5560257169120013
1782811463201351700,2.1343515625,-0.526215246668458,0.17866306110545993,0.488166232650727
1782811463211423700,2.144423828125,-0.37577158722281456,0.11462043171860277,0.36843671429008246
1782811463221494800,2.154494873046875,-0.23391163172721863,0.16785488603897392,0.2883545850545168
1782811463231566600,2.164566650390625,-0.09922259077429771,0.27417678742446006,0.23051088337302206
1782811463241636600,2.17463671875,-0.026319851648807523,0.4316181237377226,0.1492519654430449
1782811463251707600,2.184707763671875,0.19015081593394279,0.6111001730758696,0.06162190504595637
1782811463261779500,2.194779541015625,0.5426280368089675,0.7453053760346025,0.08079451528862118
1782811463271850500,2.2048505859375,0.989171196347475,0.7843682432699948,0.21240210296958684
1782811463281922600,2.214922607421875,1.3943933344602584,0.7827054246243089,0.3321213921971619
1782811463291993600,2.22499365234375,1.7322855651438236,0.8135393196314573,0.3977878964588046
1782811463302064600,2.235064697265625,2.0157646531164644,0.8531125475417822,0.46642684065997597
1782811463312136700,2.24513671875,2.178324866813421,0.8905562891427427,0.4929993518956005
1782811463322207700,2.255207763671875,2.138698958867788,0.9030850774567574,0.5325619853466749
1782811463332279800,2.26527978515625,1.942129508063197,0.8815065751161426,0.5218684496358037
1782811463342350800,2.275350830078125,1.5835679988384246,0.8121989378731698,0.46517421025037764
1782811463352421600,2.285421630859375,1.1474842739939688,0.7039755867805332,0.39895080275833605
1782811463362493400,2.295493408203125,0.7793120558589697,0.6237211697179824,0.35221930059120055
1782811463372564500,2.305564453125,0.41470249864161013,0.5138027782104909,0.28474633142948147
1782811463382635500,2.315635498046875,0.01415478208065033,0.392395389765501,0.23970628948062656
1782811463392707600,2.32570751953125,-0.2980103021502495,0.2844502710923552,0.19081556345298886
1782811463402778600,2.335778564453125,-0.4894476507633924,0.19977540723904966,0.10863017832785844
1782811463412850700,2.3458505859375,-0.6247779122292995,0.14411847501210867,0.045294016709923744
1782811463422921700,2.355921630859375,-0.6586626461744308,0.051161593569070095,-0.0782556444607675
1782811463432992800,2.36599267578125,-0.6500508851736784,-0.01381670923270285,-0.1592797307215631
1782811463443064600,2.376064697265625,-0.4793582184255123,-0.06168232999630272,-0.16662410213500262
1782811463453135600,2.386135498046875,-0.12312369084358214,-0.16571977370642124,-0.15334961002022027
1782811463463207700,2.396207763671875,0.2839262472182512,-0.25719489215910435,-0.09256444805935024
1782811463473278500,2.406278564453125,0.6178226862639188,-0.28904037536159155,-0.017769611576944587
1782811463483349500,2.416349609375,0.8563006029933691,-0.2507327834729105,0.10014920409992337
1782811463493421600,2.426421630859375,0.9575345335900783,-0.2632960585784167,0.16772841011509299
1782811463503492600,2.43649267578125,0.9254454508900641,-0.30094365218840535,0.14552388483062387
1782811463513563600,2.446563720703125,0.8168611575305461,-0.3548772677540779,0.1248718496851623
1782811463523635700,2.4566357421875,0.6994546752899885,-0.4127154895428568,0.08398995032906532
1782811463533706800,2.466706787109375,0.6028074879616498,-0.4495301394600421,0.08712225700542331
1782811463543778600,2.476778564453125,0.5202314960837364,-0.4783746872808784,0.07434709271490574
1782811463553849600,2.486849609375,0.46514147702455516,-0.4943954093638807,0.0648874827131629
1782811463563920400,2.49692041015625,0.4327618869453668,-0.4698070576827973,0.08525953187346458
1782811463573992400,2.506992431640625,0.42057343650162216,-0.4609649950575083,0.12057210666462778
1782811463584063500,2.5170634765625,0.4039946421444416,-0.4258651131689548,0.12055720135644078
1782811463594135600,2.527135498046875,0.39888942795991894,-0.3717087216980755,0.13004472227841615
1782811463604206600,2.53720654296875,0.38033202700614926,-0.2880616665225476,0.1850290890060365
1782811463614277600,2.547277587890625,0.37074762158095836,-0.23859124091081318,0.2104642667748034
1782811463624349700,2.557349609375,0.37558804734945295,-0.2256795907590538,0.1862726593263447
1782811463634420700,2.567420654296875,0.2765191858321428,-0.21476780918762087,0.1320933253712952
1782811463644491800,2.57749169921875,0.05491933866739273,-0.20873488569892942,0.11385025106370449
1782811463654563600,2.5875634765625,-0.1581961732685566,-0.23831636949218807,0.07015987015813589
1782811463664634600,2.597634521484375,-0.32237083642482756,-0.29710436628647147,-0.009252104730904102
1782811463674706700,2.607706787109375,-0.5813268930375576,-0.34790918230712414,-0.09878639131411909
1782811463684777500,2.617777587890625,-0.879738177204132,-0.36393268086910247,-0.18375205480754375
1782811463694848500,2.6278486328125,-1.2435346644729375,-0.3061703738607466,-0.19714447421357034
1782811463704920600,2.637920654296875,-1.617290235698223,-0.24151143920645116,-0.28032895337864755
1782811463714991600,2.64799169921875,-1.8520318885087965,-0.18423348164893685,-0.5310961505778133
1782811463725063700,2.658063720703125,-1.7320727991759777,-0.24517449175864456,-0.8770344712033867
1782811463735134700,2.668134765625,-1.4225883323311805,-0.5010303903989494,-1.0574074049666524
1782811463745205800,2.678205810546875,-1.11089086561203,-0.7988183550354093,-1.010043450114876
1782811463755277600,2.688277587890625,-0.9522931258052587,-0.9692175187297165,-0.8271800147101283
1782811463765348600,2.6983486328125,-1.11428518422544,-0.8743015391081571,-0.6177502055495977
1782811463775419600,2.708419677734375,-1.4301999763786792,-0.48624037915468216,-0.369524801787734
1782811463785491700,2.71849169921875,-1.6277619453519583,-0.049651992723718286,-0.1335609137058258
1782811463795562500,2.7285625,-1.7311475010246038,0.33181502966172993,0.02229790265634656
1782811463805634600,2.738634521484375,-1.7134551924675703,0.6217157481797039,0.08335238307788967
1782811463815705600,2.74870556640625,-1.4798533573418855,0.7128891802720725,0.006616787791252136
1782811463825776600,2.758776611328125,-1.1079612419009208,0.5914143526140601,-0.10418050544261932
1782811463835848400,2.768848388671875,-0.6742582747131586,0.3317880685895681,-0.16625395364835857
1782811463845919500,2.77891943359375,-0.3049199354082346,0.08495331546850501,-0.2609603821724653
1782811463855990500,2.788990478515625,-0.16636954285204408,0.011437632076442241,-0.37945305221453307
1782811463866062600,2.7990625,-0.2719324425637722,0.05441226592808961,-0.5023661690473556
1782811463876133600,2.809133544921875,-0.35603637466132637,0.14809497742764652,-0.6064996204778552
1782811463886205700,2.819205810546875,-0.2924666965484619,0.23344079934507608,-0.7087884669549763
1782811463896276700,2.82927685546875,-0.2374550034224987,0.3011499153502285,-0.8580854405835271
1782811463906347500,2.839347412109375,-0.17490356244146824,0.39059886173754926,-0.933808497826755
1782811463916419600,2.849419677734375,0.012996259695291518,0.45225649568401277,-0.9503570431761443
1782811463926490600,2.85949072265625,0.38449791451394555,0.441148972344771,-0.9431681545853614
1782811463936562400,2.8695625,0.8298053947776556,0.3426731082845479,-0.9272656520545483
1782811463946633500,2.879633544921875,1.2162304779618978,0.2514195966932922,-0.9197773421257733
1782811463956704500,2.88970458984375,1.490094765371084,0.13827566726803778,-0.9181661075368523
1782811463966776600,2.899776611328125,1.630304031050205,0.044417964527755975,-0.8973799246177077
1782811463976847600,2.90984765625,1.6641314818501471,0.00039937458112835884,-0.8110995252639055
1782811463986918700,2.919918701171875,1.5651321784377097,0.00995586908608675,-0.656601329730451
1782811463996990700,2.92999072265625,1.3393471545428037,0.10581672834232449,-0.48815176573395724
1782811464007061800,2.940061767578125,1.091645482394099,0.2238493796572089,-0.3108756289422512
1782811464017133800,2.9501337890625,0.8721768020391464,0.33714185070768,-0.12344824662283062
1782811464027204600,2.96020458984375,0.7076058330416679,0.42418695082366464,0.04268295742869377
1782811464037275600,2.970275634765625,0.558712910169363,0.4950204824596643,0.17671616482138633
1782811464047347500,2.980347412109375,0.4520037630319595,0.5667047857061028,0.3183298904709518
1782811464057418500,2.99041845703125,0.47900808981359,0.542367924568057,0.39012335318028923
1782811464067490600,3.000490478515625,0.6285995163440704,0.4368485717371106,0.38964404523074625
1782811464077561600,3.0105615234375,0.8405477380663156,0.2899545675970614,0.3167361915387213
1782811464087632600,3.020632568359375,1.0815683250159025,0.12327493588253854,0.2521756026923656
1782811464097704700,3.03070458984375,1.3256465459704398,-0.10131006457284092,0.16475976956784724
1782811464107775700,3.040775634765625,1.5331623382031916,-0.3259418267793953,0.06689502314329147
1782811464117846500,3.050846435546875,1.6590549092382192,-0.4784422726243734,-0.001980944684147835
1782811464127918800,3.0609189453125,1.7458388741999864,-0.5988200257606804,-0.029492344205081462
1782811464137989600,3.07098974609375,1.8740274472177028,-0.7242476096324623,-0.07808101854622364
1782811464148061400,3.0810615234375,1.9947738875359295,-0.8640978327408433,-0.11124532926231621
1782811464158132500,3.091132568359375,2.020364840388298,-1.0117799185186624,-0.15902151817679405
1782811464168203500,3.10120361328125,1.9411475112885235,-1.1216801167823374,-0.21944003878235815
1782811464178275600,3.111275634765625,1.7412755118072032,-1.203543284215778,-0.2996462327890098
1782811464188346600,3.1213466796875,1.4059972630143165,-1.2716444682784378,-0.3485596090398729
1782811464198418700,3.131418701171875,1.089241928383708,-1.2914353565499186,-0.36294834600687026
1782811464208489700,3.14148974609375,0.82095690241158,-1.3225691843517124,-0.37536271416097877
1782811464218560800,3.151560791015625,0.4721171612560749,-1.34418465770185,-0.41482349467277524
1782811464228632600,3.161632568359375,0.05391337649524212,-1.3559250721171499,-0.46515345972329375
1782811464238704600,3.17170458984375,-0.4022498443037271,-1.3101884262062609,-0.5124164384186267
1782811464248775700,3.181775634765625,-0.8798468982756137,-1.2086658879265189,-0.527491696345061
1782811464258847700,3.19184765625,-1.309911216700077,-1.068519458350539,-0.4989985923103988
1782811464268918800,3.201918701171875,-1.5730582952618597,-0.9046030077390372,-0.4668975269116461
1782811464278990800,3.211990966796875,-1.756974016198516,-0.7541540875963866,-0.41815263909548517
1782811464289062000,3.222061767578125,-1.878926325175166,-0.6285759893380105,-0.3512475329495966
1782811464299133000,3.2321328125,-1.8488953440487383,-0.5664316678531468,-0.3041916211336851
1782811464309204700,3.242204833984375,-1.5624229194790125,-0.5718095614992081,-0.27221564341932536
1782811464319275500,3.252275634765625,-1.024938090777397,-0.6107843120597303,-0.16181304859146475
1782811464329346600,3.2623466796875,-0.44528643747568125,-0.6824735837422311,0.03694748251661658
1782811464339418600,3.272418701171875,-0.10741057340502738,-0.7621570690490305,0.17965426409989593
1782811464349489700,3.28248974609375,-0.19343232182264328,-0.8751042337931693,0.19546368151977658
1782811464359561700,3.292561767578125,-0.5389665916919708,-0.9240186329573392,0.0505479917153716
1782811464369632800,3.3026328125,-0.9055728756844997,-0.9302614728696644,-0.09679770171493292
1782811464379703800,3.312703857421875,-1.2070517307281494,-0.8616910638600588,-0.15218407337218523
1782811464389776000,3.32277587890625,-1.5133827019780874,-0.6958265479207039,-0.10755904196500778
1782811464399847000,3.332846923828125,-1.8225906899690627,-0.4345964088961482,-0.07169102524816989
1782811464409918700,3.342918701171875,-2.1019389617472886,-0.1239469899252057,-0.008415946167707442
1782811464419989800,3.35298974609375,-2.3015473418563603,0.19783362552151082,0.10782426877245306
1782811464430060500,3.363060546875,-2.3039210852503773,0.5489231914304197,0.2916011657603085
1782811464440132600,3.373132568359375,-2.239799618473649,0.859311913638562,0.45301016359552737
1782811464450203600,3.38320361328125,-2.008143656718731,1.053930814897269,0.5568788266099989
1782811464460274700,3.393274658203125,-1.4848182862728834,1.0140063623964786,0.5774202409878373
1782811464470346800,3.4033466796875,-0.8266279337853193,0.8569308637209236,0.5149465414181351
1782811464480417800,3.413417724609375,-0.2873819406300783,0.7165966564878821,0.39800636151507496
1782811464490489600,3.423489501953125,0.2035696849554777,0.5705751973986626,0.2633032920368016
1782811464500560600,3.433560546875,0.6767834092766046,0.47533510038927196,0.15033508450463412
1782811464510631700,3.443631591796875,1.1089783099889754,0.4071078057289123,0.09995718865916133
1782811464520703700,3.453703857421875,1.4967705898731947,0.3470703933954239,0.19280907535776495
1782811464530774800,3.46377490234375,1.7401392012536525,0.3113470458462834,0.31980434693768617
1782811464540846800,3.473846923828125,1.8846552242159842,0.34190804219618437,0.42876755661219357
1782811464550917600,3.483917724609375,1.921873486497998,0.4104118157103657,0.5310051112934947
1782811464560988700,3.49398876953125,1.8510756106972692,0.5011139770291745,0.6157965872637927
1782811464571060700,3.504060791015625,1.6729133387207984,0.5578802587375045,0.6393069344498217
1782811464581131800,3.5141318359375,1.407441616603732,0.598553045387566,0.5861616197176277
1782811464591202800,3.524202880859375,1.1655553527355194,0.6073254037775099,0.5035663386173546
1782811464601274600,3.534274658203125,0.9633131169915199,0.5871589601919055,0.4045286028906703
1782811464611345700,3.544345703125,0.7706815901577472,0.5729809433661401,0.35458325324356554
1782811464621417700,3.554417724609375,0.585876811426878,0.5471548665836453,0.34281975021362304
1782811464631488800,3.56448876953125,0.3940501712352037,0.4398021608456969,0.28689313419982787
1782811464641559800,3.574559814453125,0.2673182267665863,0.2847872479617595,0.21022037501633167
1782811464651631900,3.5846318359375,0.21350889516770838,0.10695990702807903,0.1784469341367483
1782811464661702700,3.59470263671875,0.0772808080792427,-0.03482230705618858,0.17747808910459278
1782811464671773700,3.604773681640625,-0.1357698219269514,-0.015263035583496093,0.1877807258017361
1782811464681845800,3.614845703125,-0.19410335295200346,0.06300239961892366,0.2325796524710953
1782811464691916800,3.624916748046875,-0.03204758164584637,0.05915653784573078,0.2854221848644316
1782811464701988600,3.634988525390625,0.11149930402338504,0.03102013829424977,0.3732261405237019
1782811464712059600,3.6450595703125,0.12227671862542629,0.03576864799559116,0.45802302332147954
1782811464722130700,3.655130615234375,0.09782090728282927,0.09039645637050271,0.5784112978518009
1782811464732202800,3.66520263671875,0.20438684655725955,0.14894523758143186,0.6752240510053932
1782811464742273800,3.675273681640625,0.39679450150728224,0.10201748218983411,0.6891333338923752
1782811464752345900,3.685345947265625,0.5510287854075432,0.01552738560810685,0.6633142713725566
1782811464762417000,3.6954169921875,0.6404372536540031,-0.04771013794094324,0.6520284688569605
1782811464772487700,3.70548779296875,0.7354670689135789,-0.11430924687758087,0.6373389953777193
1782811464782559700,3.715559814453125,0.8440519467949866,-0.13891557260677218,0.6748099172465503
1782811464792630800,3.725630859375,0.9864981777459383,-0.13366992703825234,0.7234943070471286
1782811464802701800,3.735701904296875,1.1449597239524125,-0.12426073204949498,0.7866776161909103
1782811464812773600,3.745773681640625,1.206839549282193,-0.15627645725235342,0.8267306635074317
1782811464822844700,3.7558447265625,1.105264257901907,-0.1866856240414083,0.8133543184533715
1782811464832916700,3.765916748046875,0.8972545446723699,-0.20894728634059428,0.7600121659748256
1782811464842987800,3.77598779296875,0.630692689231038,-0.2226496484786272,0.6837532482892275
1782811464853058800,3.786058837890625,0.3922586116433143,-0.21384850238561628,0.6240070739872753
1782811464863131000,3.796130859375,0.1397083304196596,-0.2241309730775654,0.565100565379858
1782811464873202000,3.806201904296875,-0.07499123583734035,-0.2767651234172284,0.4795299217306077
1782811464883272700,3.816272705078125,-0.272397137466073,-0.3607011516019702,0.3767095987252891
1782811464893344800,3.8263447265625,-0.5013941091448069,-0.38265330956056715,0.2616851893156767
1782811464903415600,3.83641552734375,-0.8353530920326709,-0.317486425384134,0.2609974993124604
1782811464913487600,3.846487548828125,-1.3865566494852304,-0.20087693874016402,0.23836115848198533
1782811464923558700,3.85655859375,-1.9501099854230879,-0.11849880752190947,0.19596724712774155
1782811464933629700,3.866629638671875,-2.445360769507289,-0.09281506181955337,0.17480565502494572
1782811464943701800,3.87670166015625,-2.780757676243782,-0.07885273357108234,0.04101034804135561
1782811464953772800,3.886772705078125,-2.8425398864179847,-0.033114041833579536,-0.15125819069892169
1782811464963843800,3.89684375,-2.561023038429022,0.014420008888095616,-0.3728516081228852
1782811464973916000,3.906916015625,-2.083681420522928,-0.15304580476805568,-0.5565864195346832
1782811464983986700,3.916986572265625,-1.6835452073723076,-0.4100429823979735,-0.5640472569346427
1782811464994058800,3.927058837890625,-1.3962597128540277,-0.5765634780280292,-0.49759939303696155
1782811465004129500,3.937129638671875,-1.3306401164740322,-0.5879124089077115,-0.3393400914043188
1782811465014200600,3.94720068359375,-1.4385118776500225,-0.37916488292291756,-0.14409662850648164
1782811465024272600,3.957272705078125,-1.5062158790886402,-0.039389322710782285,0.016103870321810244
1782811465034343700,3.96734375,-1.428262870836258,0.2981488338381052,0.16351415342092512
1782811465044415700,3.977415771484375,-1.1959919920533895,0.5677392433203756,0.28055618626326323
1782811465054486800,3.98748681640625,-0.9060112671017646,0.7619331971652805,0.2771568992137909
1782811465064557800,3.997557861328125,-0.6031885962337256,0.7784057546690106,0.20143734910190103
1782811465074630000,4.0076298828125,-0.25892390790879727,0.581748479450494,0.09664689506739377
1782811465084701000,4.017700927734375,0.024873159971833227,0.31897505650669333,-0.044481239022314545
1782811465094771700,4.027771728515625,0.2507552145004272,0.09410583228245377,-0.1925616764679551
1782811465104843500,4.037843505859375,0.4067360498070717,-0.13026698672696949,-0.3334852278962731
1782811465114914600,4.04791455078125,0.39649055012464524,-0.22851108785793184,-0.44408758307993407
1782811465124986600,4.057986572265625,0.19767302813231943,-0.08158245079591869,-0.49413726988434786
1782811465135057700,4.0680576171875,0.00798339996933937,0.13666852433234453,-0.49026890401840206
1782811465145128700,4.078128662109375,-0.055098202365636825,0.36221214068681,-0.5007160637527704
1782811465155200800,4.08820068359375,0.02191372564435005,0.47361821346879,-0.5164776965081691
1782811465165271800,4.098271728515625,0.17209376571774482,0.49040991992428895,-0.5303197593778372
1782811465175342800,4.1083427734375,0.3999836529374122,0.4196101444274187,-0.5591809660725295
1782811465185415000,4.118414794921875,0.6284300049960613,0.29883433188423514,-0.571634497193247
1782811465195486000,4.12848583984375,0.7761416091293096,0.1855995823703706,-0.560025746333599
1782811465205557800,4.138557861328125,0.8227513846129179,0.10245192808434367,-0.5168206647269428
1782811465215628500,4.148628662109375,0.7536164735883474,0.0368213719189167,-0.5098595935426652
1782811465225699600,4.158699462890625,0.5863444289386273,0.0125613754093647,-0.4812590836107731
1782811465235771400,4.168771484375,0.36925709076225754,0.0809485368065536,-0.39954628443345425
1782811465245842400,4.178842529296875,0.1887163992166519,0.22330431299507617,-0.2633738730549812
1782811465255913200,4.188913330078125,0.022965280523896216,0.3226889624632895,-0.08254062830358744
1782811465265985300,4.1989853515625,-0.0747276164650917,0.41198900189921256,0.08194105497524141
1782811465276056300,4.209056396484375,-0.1245242052912712,0.4927500533096492,0.20120105612799524
1782811465286128400,4.21912841796875,-0.017612229058146477,0.4918436059892177,0.29640345147550107
1782811465296199400,4.229199462890625,0.27857319575250145,0.4185713028989732,0.34326690945923327
1782811465306270500,4.2392705078125,0.7371727037876844,0.2155491688236594,0.31093890343680974
1782811465316342300,4.24934228515625,1.2309668593227863,-0.04511120748892426,0.25489026847854257
1782811465326413300,4.259413330078125,1.6960902161687612,-0.29334552520960566,0.1794333148255944
1782811465336484400,4.269484375,2.1293156289726496,-0.49738092798069117,0.12132058694437145
1782811465346556400,4.279556396484375,2.4048007955819366,-0.6545496578976512,0.07941577428132295
1782811465356627500,4.28962744140625,2.489955113515258,-0.7521969621792435,0.03516074523031711
1782811465366699500,4.299699462890625,2.426917350322008,-0.8727692149743437,-0.007123860530555248
1782811465376770300,4.309770263671875,2.201865316876769,-0.9582610942989587,-0.16798150809332726
1782811465386841300,4.31984130859375,1.8730483730524776,-0.9966897552840411,-0.35481326260715723
1782811465396913400,4.329913330078125,1.579322616353631,-1.0596518228925764,-0.50220411035344
1782811465406984400,4.339984375,1.3055249644398688,-1.1550061939314007,-0.5887589427344501
1782811465417056300,4.35005615234375,1.0452934810638428,-1.1687902430035173,-0.6429761244818568
1782811465427127300,4.360127197265625,0.701378336828947,-1.1682209186829626,-0.6943843862883746
1782811465437198300,4.3701982421875,0.3571861292183399,-1.2170498315207658,-0.7368379188753664
1782811465447270400,4.3802705078125,0.0676432111620903,-1.2317727688781916,-0.7974059309542179
1782811465457341400,4.390341552734375,-0.007380757901072501,-1.2117485102422534,-0.825814425445348
1782811465467412500,4.40041259765625,0.04691138877868652,-1.1224534392423926,-0.7680652701795101
1782811465477484500,4.410484619140625,-0.0013935001850128173,-1.0106671349711716,-0.6121129303149878
1782811465487555300,4.420555419921875,-0.1144774430513382,-0.891092222650349,-0.4343313282191753
1782811465497626400,4.43062646484375,-0.29903555354475975,-0.8080050663799047,-0.2847625519119203
1782811465507698200,4.4406982421875,-0.5088672215044499,-0.6832314163722097,-0.17023600902184843
1782811465517769200,4.450769287109375,-0.6829816793948411,-0.5304528842382132,-0.0795531369253993
1782811465527841300,4.46084130859375,-0.8695879545897245,-0.3496545646697283,0.07577946360558271
1782811465537912300,4.470912353515625,-0.9867606280744076,-0.21934140071347355,0.23568521727100014
1782811465547983400,4.4809833984375,-0.9647072016984224,-0.19860870154723523,0.31709026567339893
1782811465558055400,4.491055419921875,-0.8387515022993087,-0.27210239230319855,0.31468612714111804
1782811465568126500,4.50112646484375,-0.537082677641511,-0.21855200390145182,0.3290713569767773
1782811465578198500,4.511198486328125,-0.04207505466341972,-0.15076193161457777,0.44491409703195095
1782811465588269600,4.52126953125,0.27846564372479915,-0.1601991836540401,0.6109225514866411
1782811465598340400,4.53134033203125,0.3222644534409046,-0.14351707505285738,0.7612645041234791
1782811465608412200,4.541412109375,0.12506956421434878,-0.1642148490361869,0.7791371376834809
1782811465618483200,4.551483154296875,-0.27282676105499265,-0.1986725605636835,0.6444361140318214
1782811465628554200,4.56155419921875,-0.859818255725503,-0.193133485006541,0.46665743454545733
1782811465638626300,4.571626220703125,-1.453453426194191,-0.13027809264287352,0.35963907532840966
1782811465648697300,4.581697265625,-1.9990297914147377,0.0016943828277289866,0.2865459281973541
1782811465658769400,4.591769287109375,-2.429118075236678,0.2057224790751934,0.2018731101706624
1782811465668840400,4.60184033203125,-2.703962021332979,0.33274273896589873,0.12087269704639911
1782811465678911500,4.611911376953125,-2.6434739426225424,0.35403584849387404,0.10403203688263893
1782811465688983600,4.621983642578125,-2.2552923711597916,0.2727203780710697,0.1467589795835316
1782811465699054300,4.632054443359375,-1.8151269299596546,0.10625585041195154,0.2515982411958277
1782811465709125400,4.64212548828125,-1.4537678989708422,0.06838482330963015,0.29689444986283775
1782811465719197200,4.652197265625,-1.167077447736263,0.13264730599224567,0.33706410929635167
1782811465729268200,4.662268310546875,-0.8010626998960971,0.2566029176153242,0.425755661445111
1782811465739340300,4.67234033203125,-0.4356745595216751,0.4145943620920181,0.6015059038437902
1782811465749411300,4.682411376953125,-0.030759879922866818,0.6067893972046673,0.7885194446653128
1782811465759482400,4.692482421875,0.40046705254018305,0.8090244725555181,0.959162280922383
1782811465769554400,4.702554443359375,0.8196469888567924,0.9061072748221456,1.0701410682030021
1782811465779625500,4.71262548828125,1.1614245365411042,0.9040313453309238,1.0913361241839825
1782811465789696500,4.722696533203125,1.3921557846665382,0.8951109567724168,1.1250440402574837
1782811465799768300,4.732768310546875,1.6611077501147984,0.8238754202067852,1.1439921940945088
1782811465809839400,4.74283935546875,1.888212039914727,0.7665218401297926,1.1809532667450606
1782811465819911200,4.7529111328125,1.9465256971955298,0.7374258017659187,1.1482651952385903
1782811465829982200,4.762982177734375,1.8846511325627564,0.6983050668634474,1.0870718908682464
1782811465840053200,4.77305322265625,1.8179606920808553,0.6310071620076895,0.9709570558734237
1782811465850125300,4.783125244140625,1.713041350969672,0.5332397384777665,0.8136575391836464
1782811465860196400,4.7931962890625,1.5449281793206928,0.40774318102300167,0.6407137325078248
1782811465870267400,4.803267333984375,1.3416384803503751,0.3040358460500836,0.4708109009630978
1782811465880339500,4.81333935546875,1.1161954017609357,0.19701617165878413,0.3548125319547951
1782811465890410500,4.823410400390625,0.8806552920490502,0.10353504714593291,0.30634207716584205
1782811465900482300,4.833482421875,0.5078215118438005,0.03749897891953587,0.28780235799923537
1782811465910553300,4.84355322265625,0.060392801642417906,-0.02939370613619685,0.25609189935326576
1782811465920624400,4.853624267578125,-0.18995967727601526,-0.07282397480085492,0.20458996791392564
1782811465930696200,4.8636962890625,-0.3803957398921251,-0.07235504211485386,0.18568536095768212
1782811465940767200,4.873767333984375,-0.45167409268617625,-0.019742080693691967,0.2737964828699827
1782811465950838300,4.88383837890625,-0.3556090891599655,0.09274009688720107,0.38211744911819695
1782811465960910300,4.893910400390625,-0.16357319013178348,0.23176132182553408,0.5487187548995017
1782811465970981400,4.9039814453125,0.019736381605267524,0.42851562767773865,0.7662731260657311
1782811465981053400,4.914053466796875,0.3267641029477119,0.5385749620258807,0.9416142031416297
1782811465991124500,4.92412451171875,0.6346954951316118,0.529439761672914,1.0727642563134432
1782811466001195500,4.934195556640625,0.8740788362681865,0.47320583327561616,1.1688090938344597
1782811466011267300,4.944267333984375,0.9568535655885935,0.40832711839079855,1.2159309104934335
1782811466021338400,4.95433837890625,0.8985106822133063,0.33175635827705263,1.2149582660689948
1782811466031409200,4.9644091796875,0.8727057943493127,0.23108108447641132,1.1509592566281557
1782811466041481200,4.974481201171875,0.7836182286202907,0.06862769215479493,1.0419479700282215
1782811466051552300,4.98455224609375,0.5238642996281385,-0.015144085378944874,0.9898352132141589
1782811466061624300,4.994624267578125,0.1671627390563488,0.023139321916550395,0.9481570489138365
1782811466071695400,5.0046953125,-0.10466624313294887,0.006773293527215719,0.8927814909115434
1782811466081766400,5.014766357421875,-0.2718628844588995,-0.06847571646347642,0.8167492215886711
1782811466091838500,5.02483837890625,-0.33462299975454807,-0.11022329273819922,0.7778247399106621
1782811466101909500,5.034909423828125,-0.3284633080810308,-0.18717983729913829,0.74129329084903
1782811466111980500,5.04498046875,-0.2780973949342966,-0.22419439370259642,0.6548249677076935
1782811466122052400,5.05505224609375,-0.30054186645448205,-0.24342267965525388,0.6601543460369109
1782811466132123400,5.065123291015625,-0.36990357197225093,-0.2564864516288042,0.6540320637643336
1782811466142195500,5.075195556640625,-0.5179249727070331,-0.21737682264223693,0.6443462437912821
1782811466152266200,5.085266357421875,-0.7700608279109,-0.16789339141845702,0.6176850313588976
1782811466162337300,5.095337158203125,-1.0904904671400786,-0.15224968595430255,0.5669149213254452
1782811466172409300,5.105409423828125,-1.4109282896757125,-0.17184578230604527,0.3966086235463619
1782811466182480400,5.11548046875,-1.6043261247068643,-0.17982794016636908,0.18303455418795347
1782811466192551400,5.125551513671875,-1.6311936733663082,-0.18056918698772786,-0.0530032759130001
1782811466202623500,5.13562353515625,-1.5947282752782106,-0.23561280962191522,-0.22816139763742685
1782811466212694500,5.145694580078125,-1.6800450902968644,-0.30872246949635446,-0.3187903475895524
1782811466222766300,5.155766357421875,-1.8835083922684193,-0.3069420888856053,-0.35579175225049253
1782811466232837400,5.16583740234375,-2.1005647507846352,-0.1832980274297297,-0.29101620547920465
1782811466242908200,5.175908203125,-2.1849708806991575,0.013679054327681659,-0.1956421068266034
1782811466252980500,5.18598046875,-2.191096670103073,0.18389928125850855,-0.08752396967411041
1782811466263051300,5.19605126953125,-2.0693501128315925,0.4503944281391799,-0.08448299454301596
1782811466273122300,5.206122314453125,-1.7204349683523177,0.644820291043818,-0.20763123530596495
1782811466283194400,5.2161943359375,-1.239244273802638,0.5678307209961116,-0.366007441316545
1782811466293265400,5.226265380859375,-0.6193477038741111,0.3100010380648076,-0.5235419358059764
1782811466303337200,5.236337158203125,-0.1492331146121025,-0.011350099923461676,-0.6371946184709668
1782811466313408300,5.246408203125,0.009569207856059074,-0.27780433027185497,-0.6826043705150484
1782811466323479300,5.256479248046875,-0.11269815841913222,-0.43823030841909344,-0.700994305947423
1782811466333551400,5.26655126953125,-0.35091888551712036,-0.39982641654908657,-0.7307116910800338
1782811466343622400,5.276622314453125,-0.6242109259963036,-0.16911935301683842,-0.7479945420533418
1782811466353693200,5.286693115234375,-0.8868237515509128,0.10584098600074648,-0.737106360553205
1782811466363765200,5.29676513671875,-1.0771674597084522,0.3623104864947498,-0.7322463533014059
1782811466373836300,5.306836181640625,-1.0000842200279236,0.4910342623677104,-0.7948252668112515
1782811466383908400,5.316908447265625,-0.7064823819696903,0.5453547583591193,-0.8863812684804201
1782811466393979400,5.3269794921875,-0.37271044608652587,0.49781508161425586,-1.06213940192461
1782811466404050400,5.337050537109375,-0.09639818100333213,0.38741694376580416,-1.1891162610650061
1782811466414122200,5.347122314453125,0.16364450180232523,0.2652391554702073,-1.3232353931754828
1782811466424193300,5.357193359375,0.403272173088789,0.17560455031767486,-1.41183751347512
1782811466434264300,5.367264404296875,0.5672375774085522,0.11477408791035414,-1.412805189463496
1782811466444336400,5.37733642578125,0.6687082393705844,0.09865312032327056,-1.3196265550285577
1782811466454407400,5.387407470703125,0.7767290536284446,0.1383114692337811,-1.152588903656602
1782811466464478200,5.397478271484375,0.858551596790552,0.18115356274694203,-0.961826385565102
1782811466474550300,5.40755029296875,0.8795324254989624,0.23399594900980591,-0.8001753956675529
1782811466484621300,5.417621337890625,0.789768567943573,0.31830987059623,-0.6642261255204677
1782811466494693400,5.427693359375,0.593176320785284,0.38523835761770603,-0.5262637619853019
1782811466504764400,5.437764404296875,0.3706447457283735,0.4056890249721706,-0.43567777439206834
1782811466514835500,5.44783544921875,0.33470541734099385,0.4039439348705113,-0.37945027573555706
1782811466524907300,5.4579072265625,0.4156429943621158,0.34234321874305607,-0.38938524816408754
1782811466534978300,5.467978271484375,0.5887298627704382,0.2129984614275396,-0.37388723478093744
1782811466545049300,5.47804931640625,0.8377923018783331,0.08137669909074902,-0.36084362881258125
1782811466555121400,5.488121337890625,1.1293979976832866,-0.07556362889781594,-0.3424393725939095
1782811466565192400,5.4981923828125,1.3792162235945462,-0.20698855348825454,-0.3162001849658787
1782811466575264500,5.508264404296875,1.5110393537223339,-0.28901129539757964,-0.3225140442878008
1782811466585335300,5.518335205078125,1.5626467913627624,-0.3586073941931128,-0.3006339286521077
1782811466595406300,5.52840625,1.6407470991313458,-0.47882469607070083,-0.27491598841920495
1782811466605478400,5.538478515625,1.6510346843898296,-0.6134912329308688,-0.32080855554416776
1782811466615549400,5.548549560546875,1.6025684673845768,-0.7255671677984297,-0.32336919981241224
1782811466625620500,5.558620361328125,1.530892055183649,-0.8479813951984048,-0.28771219549775123
1782811466635692300,5.5686923828125,1.4627636908531187,-0.925804785721749,-0.2689921513281762
1782811466645763300,5.578763427734375,1.3546809172749519,-0.9517109420031309,-0.31630422986224294
1782811466655835400,5.58883544921875,1.1326280656456946,-0.9615604281052946,-0.3188951231382787
1782811466665906400,5.598906494140625,0.8469260409265756,-1.0101213376566767,-0.40477614791095257
1782811466675977500,5.6089775390625,0.5614829594045877,-1.065390512675047,-0.4916556822016835
1782811466686049500,5.619049560546875,0.36401626749932764,-1.1219299998901784,-0.5227822034798563
1782811466696120300,5.629120361328125,0.29126550406515594,-1.1305386921510099,-0.5290083845183253
1782811466706191400,5.63919140625,0.11579086373746394,-1.0711284718051552,-0.5112929873466492
1782811466716263200,5.64926318359375,-0.22197218760848045,-1.0126958643198012,-0.5259209398970007
1782811466726334200,5.659334228515625,-0.4869821374326944,-0.9515032906018197,-0.5823088898122311
1782811466736407300,5.6694072265625,-0.6057283438444138,-0.8668196589201689,-0.5555671594895422
1782811466746479400,5.679479248046875,-0.5869044009089469,-0.832722305137664,-0.45695875509083267
1782811466756550400,5.68955029296875,-0.517843139642477,-0.7584213896520435,-0.25079963816404344
1782811466766621400,5.699621337890625,-0.4534627296686172,-0.68727323910892,-0.042842239643633366
1782811466776693200,5.709693359375,-0.5036603005111218,-0.6253966286495327,0.010108137038350104
1782811466786764300,5.719764404296875,-0.6559276682525873,-0.5275112778283655,0.03701587157770991
1782811466796836400,5.72983642578125,-0.7229664837807417,-0.4263360916815698,0.04940379011631012
1782811466806907400,5.739907470703125,-0.3500789275616407,-0.10569017935320735,0.21637378307953475
1782811466816978400,5.749978515625,0.213625215023756,0.05379691050872206,0.5175085008606314
1782811466827050500,5.760050537109375,0.36034839264154434,-0.5054012989595532,0.5179721728496253
1782811466837121300,5.770121337890625,1.116450253304839,-1.123492573031783,0.3882270180396735
1782811466847192300,5.7801923828125,-0.08961714256107807,-0.5007134334042668,0.06655351622924208
1782811466857264400,5.790264404296875,-1.7278110500782726,0.00867503549531102,0.07152458264008164
1782811466867335400,5.80033544921875,-2.554677468794584,-0.19688611553832888,0.023618629866093397
1782811466877407200,5.8104072265625,-2.216162722298503,-0.2797121366545558,-0.2539702310241759
1782811466887478300,5.820478271484375,-1.9203280106216667,-0.29630408275425435,-0.40814226334318515
1782811466897549300,5.83054931640625,-2.310075516226888,-0.2260607720963657,-0.36760099411830305
1782811466907621400,5.840621337890625,-2.7250544937223196,0.030793051540106534,-0.2814472898840904
