time,seconds_elapsed,z,y,x
1782811461136716000,0.069716064453125,-0.06728247553110123,0.11966391652822495,0.013901938684284687
1782811461146788000,0.0797880859375,-0.06202574074268341,0.12264648079872131,-0.03989860787987709
1782811461156859100,0.089859130859375,-0.05054352432489395,0.09439726173877716,-0.08267136663198471
1782811461166931200,0.09993115234375,-0.047808874398469925,0.03552182391285896,-0.09754931926727295
1782811461177002200,0.110002197265625,-0.06082374230027199,-0.016986925154924393,-0.08613207936286926
1782811461187073300,0.1200732421875,-0.07536496967077255,-0.025551117956638336,-0.04308070242404938
1782811461197145300,0.130145263671875,-0.07897435128688812,0.0007491953438147902,0.015241725370287895
1782811461207216400,0.14021630859375,-0.07085638493299484,0.041121724992990494,0.07498721778392792
1782811461217288200,0.1502880859375,-0.046792056411504745,0.056779779493808746,0.12109239399433136
1782811461227359200,0.160359130859375,-0.02515304647386074,0.046456895768642426,0.1485283374786377
1782811461237430000,0.170429931640625,-0.009429209865629673,0.033454544842243195,0.1574975997209549
1782811461247502000,0.180502197265625,0.0016932155704125762,0.02934049442410469,0.15728402137756348
1782811461257572900,0.19057275390625,0.002511338796466589,0.014601761475205421,0.14419138431549072
1782811461267645000,0.20064501953125,0.0015421198913827538,-0.005675058811903,0.13363070785999298
1782811461277716000,0.210716064453125,0.00700452970340848,-0.018891794607043266,0.11691270768642426
1782811461287787000,0.220787109375,0.02231588214635849,-0.024226682260632515,0.09493247419595718
1782811461297859000,0.230859130859375,0.03861948475241661,-0.02877376228570938,0.06799913197755814
1782811461307930000,0.24093017578125,0.04555150121450424,-0.034551266580820084,0.039238180965185165
1782811461318002000,0.251001953125,0.04366438463330269,-0.043890174478292465,0.01910228654742241
1782811461328073000,0.261072998046875,0.031168697401881218,-0.042118631303310394,0.019331401214003563
1782811461338144000,0.27114404296875,0.013983852230012417,-0.02174678072333336,0.023313893005251884
1782811461348216000,0.281216064453125,0.006137293763458729,0.015570662915706635,0.03460954874753952
1782811461358287000,0.291287109375,0.010440962389111519,0.05490155890583992,0.05062393471598625
1782811461368359200,0.301359130859375,0.009169422090053558,0.07778060436248779,0.05891232565045357
1782811461378430000,0.311429931640625,0.01216041762381792,0.07299517095088959,0.05488109961152077
1782811461388501000,0.3215009765625,0.023429686203598976,0.0576055571436882,0.0447021909058094
1782811461398572800,0.33157275390625,0.035089004784822464,0.04093177244067192,0.02873600460588932
1782811461408643800,0.341643798828125,0.04367817938327789,0.023171860724687576,0.01888922043144703
1782811461418716000,0.3517158203125,0.05815538763999939,0.023107944056391716,0.012010807171463966
1782811461428787000,0.361786865234375,0.07916804403066635,0.033539943397045135,0.00016850745305418968
1782811461438858000,0.37185791015625,0.10353543609380722,0.042865533381700516,-0.01666799746453762
1782811461448930000,0.381929931640625,0.1256054788827896,0.04468931257724762,-0.035154588520526886
1782811461459001000,0.3920009765625,0.14195142686367035,0.032563939690589905,-0.048325251787900925
1782811461469073200,0.4020732421875,0.15442200005054474,0.016189508140087128,-0.05609813705086708
1782811461479144200,0.412144287109375,0.16029320657253265,0.008995778858661652,-0.053362537175416946
1782811461489215000,0.422215087890625,0.1719520390033722,0.006733672693371773,-0.05227316543459892
1782811461499286800,0.432286865234375,0.18882982432842255,-0.000628635985776782,-0.05635739117860794
1782811461509357800,0.44235791015625,0.21474264562129974,-0.031164217740297318,-0.06874983757734299
1782811461519428900,0.452428955078125,0.24244937300682068,-0.05975591391324997,-0.09662488102912903
1782811461529501000,0.4625009765625,0.2712375521659851,-0.08778835088014603,-0.13910265266895294
1782811461539572000,0.472572021484375,0.2944374084472656,-0.10869842767715454,-0.17401589453220367
1782811461549644000,0.48264404296875,0.31458523869514465,-0.10991065204143524,-0.19407019019126892
1782811461559715000,0.492715087890625,0.3175203204154968,-0.11369366943836212,-0.2001882791519165
1782811461569786000,0.5027861328125,0.30921101570129395,-0.11915057897567749,-0.19752997159957886
1782811461579858200,0.512858154296875,0.2974201440811157,-0.1178504228591919,-0.1891777664422989
1782811461589929000,0.522928955078125,0.28295356035232544,-0.10962355881929398,-0.18130886554718018
1782811461600001000,0.5330009765625,0.26780176162719727,-0.10348204523324966,-0.18871404230594635
1782811461610071800,0.54307177734375,0.25375136733055115,-0.10566446185112,-0.20534947514533997
1782811461620142800,0.553142822265625,0.24790091812610626,-0.11572029441595078,-0.22519242763519287
1782811461630215000,0.56321484375,0.23677140474319458,-0.11085571348667145,-0.24083192646503448
1782811461640286000,0.573285888671875,0.2265366017818451,-0.10442204773426056,-0.256245493888855
1782811461650358000,0.58335791015625,0.21270820498466492,-0.10696479678153992,-0.2680695950984955
1782811461660429000,0.593428955078125,0.20667721331119537,-0.106229767203331,-0.2854829430580139
1782811461670500000,0.6035,0.2086208313703537,-0.093690887093544,-0.29177767038345337
1782811461680572200,0.613572265625,0.21133431792259216,-0.0784115344285965,-0.2817535400390625
1782811461690643200,0.623643310546875,0.1998155564069748,-0.04526352137327194,-0.2580181360244751
1782811461700715000,0.633715087890625,0.1772814840078354,-0.005982430651783943,-0.22786501049995422
1782811461710785800,0.643785888671875,0.15251857042312622,0.035064470022916794,-0.19649216532707214
1782811461720856800,0.65385693359375,0.1300353705883026,0.05936821177601814,-0.17815683782100677
1782811461730929000,0.663928955078125,0.10826066881418228,0.07592770457267761,-0.172445148229599
1782811461741000000,0.674,0.10359188169240952,0.0823400616645813,-0.17119213938713074
1782811461751072000,0.684072021484375,0.11218218505382538,0.09549093246459961,-0.16246408224105835
1782811461761143000,0.69414306640625,0.12719735503196716,0.10358694195747375,-0.1537552773952484
1782811461771214000,0.704214111328125,0.14228665828704834,0.09346053004264832,-0.15105754137039185
1782811461781286000,0.714285888671875,0.16181296110153198,0.07472839206457138,-0.1502937525510788
1782811461791357000,0.72435693359375,0.18287792801856995,0.05323060229420662,-0.16006407141685486
1782811461801428000,0.734427978515625,0.2050013393163681,0.015535686165094376,-0.17062802612781525
1782811461811500000,0.7445,0.22239188849925995,-0.03442898765206337,-0.17792589962482452
1782811461821570800,0.75457080078125,0.24776755273342133,-0.06873716413974762,-0.17912672460079193
1782811461831643000,0.764642822265625,0.2736731767654419,-0.07941564172506332,-0.17412984371185303
1782811461841714000,0.7747138671875,0.3099832534790039,-0.07499585300683975,-0.16286572813987732
1782811461851785000,0.784784912109375,0.3499281406402588,-0.07310789823532104,-0.1571471095085144
1782811461861857000,0.79485693359375,0.388688862323761,-0.08596058189868927,-0.15377821028232574
1782811461871928000,0.804927978515625,0.42159080505371094,-0.09912555664777756,-0.14263959228992462
1782811461882000000,0.814999755859375,0.4503241777420044,-0.12618620693683624,-0.13817985355854034
1782811461892071000,0.82507080078125,0.46497130393981934,-0.17658919095993042,-0.14110027253627777
1782811461902142000,0.835141845703125,0.46963661909103394,-0.2437426596879959,-0.1559593826532364
1782811461912214000,0.845214111328125,0.45918333530426025,-0.2806263267993927,-0.16722427308559418
1782811461922285000,0.85528515625,0.44736742973327637,-0.2971366047859192,-0.1770758479833603
1782811461932357000,0.865357177734375,0.431706041097641,-0.3126509189605713,-0.1991676688194275
1782811461942428000,0.875427978515625,0.41567912697792053,-0.3132091164588928,-0.21480095386505127
1782811461952499000,0.8854990234375,0.3839969038963318,-0.29346713423728943,-0.2175987809896469
1782811461962571000,0.895571044921875,0.34910523891448975,-0.25046852231025696,-0.1902473121881485
1782811461972642000,0.90564208984375,0.31835857033729553,-0.2054426372051239,-0.1474798619747162
1782811461982713900,0.9157138671875,0.28295981884002686,-0.17904192209243774,-0.10888586938381195
1782811461992785000,0.925784912109375,0.25166890025138855,-0.15644416213035583,-0.08605697751045227
1782811462002856000,0.93585595703125,0.23166298866271973,-0.1284058690071106,-0.08046513795852661
1782811462012928000,0.945927978515625,0.2124498337507248,-0.08579648286104202,-0.08379566669464111
1782811462022999000,0.9559990234375,0.18938419222831726,-0.045002713799476624,-0.09399983286857605
1782811462033071000,0.966071044921875,0.15880316495895386,-0.025320574641227722,-0.10646630078554153
1782811462043142100,0.97614208984375,0.12368938326835632,-0.04280156269669533,-0.12040342390537262
1782811462053213000,0.986212890625,0.08317045122385025,-0.0613623782992363,-0.129562109708786
1782811462063285000,0.996284912109375,0.052092425525188446,-0.05493217706680298,-0.11459807306528091
1782811462073356000,1.00635595703125,0.02505173161625862,-0.04817771911621094,-0.09813399612903595
1782811462083427000,1.016427001953125,0.007686058059334755,-0.06093532592058182,-0.08653673529624939
1782811462093499000,1.026498779296875,0.0007600936805829406,-0.07872725278139114,-0.08904854953289032
1782811462103570000,1.03656982421875,-0.0033784587867558002,-0.10653464496135712,-0.102204829454422
1782811462113642000,1.04664208984375,-0.007568465545773506,-0.1311466097831726,-0.11650682240724564
1782811462123713000,1.056713134765625,-0.010588490404188633,-0.14736685156822205,-0.11695609986782074
1782811462133784000,1.0667841796875,-0.02144203521311283,-0.14707177877426147,-0.09774507582187653
1782811462143856000,1.076856201171875,-0.03337486460804939,-0.13865911960601807,-0.0662316232919693
1782811462153927200,1.08692724609375,-0.03988080844283104,-0.13375349342823029,-0.03501328080892563
1782811462163999000,1.0969990234375,-0.04542284458875656,-0.12131572514772415,-0.01065041683614254
1782811462174069800,1.10706982421875,-0.05303959921002388,-0.11566546559333801,-0.001068395096808672
1782811462184140800,1.117140869140625,-0.06753012537956238,-0.1204487681388855,-0.0020670804660767317
1782811462194212900,1.127212890625,-0.08189770579338074,-0.12184325605630875,-0.007950449362397194
1782811462204284000,1.137283935546875,-0.09507475793361664,-0.12004216015338898,-0.012883422896265984
1782811462214356000,1.14735595703125,-0.10390938073396683,-0.1244802325963974,-0.015353535301983356
1782811462224427000,1.157427001953125,-0.11294148862361908,-0.13754144310951233,-0.009131591767072678
1782811462234498600,1.16749853515625,-0.13100643455982208,-0.15855932235717773,-0.003569260938093066
1782811462244570400,1.1775703125,-0.14437444508075714,-0.17541153728961945,-0.0019822833128273487
1782811462254641400,1.187641357421875,-0.16152435541152954,-0.19426791369915009,-0.009415454231202602
1782811462264712400,1.19771240234375,-0.1785275787115097,-0.21625711023807526,-0.02724318765103817
1782811462274784500,1.207784423828125,-0.18584802746772766,-0.23777559399604797,-0.03705642744898796
1782811462284855600,1.21785546875,-0.18913009762763977,-0.2582392990589142,-0.03763885796070099
1782811462294927600,1.227927734375,-0.18862459063529968,-0.27031394839286804,-0.02688237652182579
1782811462304998700,1.23799853515625,-0.18499550223350525,-0.27865657210350037,-0.002117906929925084
1782811462315069700,1.248069580078125,-0.2004072070121765,-0.2771037220954895,0.023973653092980385
1782811462325141800,1.258141845703125,-0.24562448263168335,-0.2883656919002533,0.024265268817543983
1782811462335212800,1.268212890625,-0.30878663063049316,-0.3100932836532593,-0.01197128277271986
1782811462345284600,1.27828466796875,-0.3773172199726105,-0.33646973967552185,-0.08640450239181519
1782811462355355400,1.28835546875,-0.43484020233154297,-0.3544648587703705,-0.1702537089586258
1782811462365426400,1.298426513671875,-0.47771281003952026,-0.34365615248680115,-0.23613153398036957
1782811462375498500,1.30849853515625,-0.5071060657501221,-0.2889205813407898,-0.2798861265182495
1782811462385569500,1.318569580078125,-0.5028684735298157,-0.19732621312141418,-0.27077412605285645
1782811462395641600,1.3286416015625,-0.4562914967536926,-0.0993625745177269,-0.21629303693771362
1782811462405712600,1.338712646484375,-0.3801402449607849,-0.023068873211741447,-0.11302735656499863
1782811462415783700,1.34878369140625,-0.29854676127433777,0.02120213955640793,0.01089457981288433
1782811462425855700,1.358855712890625,-0.23761071264743805,0.023413095623254776,0.12176863104104996
1782811462435926800,1.3689267578125,-0.20889993011951447,-0.017967762425541878,0.2079455703496933
1782811462445997800,1.378997802734375,-0.21073457598686218,-0.0754382461309433,0.24782240390777588
1782811462456069600,1.389069580078125,-0.23612616956233978,-0.11680871993303299,0.25242701172828674
1782811462466140400,1.399140380859375,-0.26990625262260437,-0.1468678116798401,0.22081181406974792
1782811462476212500,1.40921240234375,-0.31520479917526245,-0.16070929169654846,0.1614769548177719
1782811462486283500,1.419283447265625,-0.3532983660697937,-0.18254855275154114,0.07843586057424545
1782811462496354600,1.4293544921875,-0.3901529014110565,-0.2050236314535141,-0.026370516046881676
1782811462506426600,1.439426513671875,-0.4189848303794861,-0.2003239542245865,-0.1267264187335968
1782811462516497700,1.44949755859375,-0.43467211723327637,-0.1814277023077011,-0.21598699688911438
1782811462526569700,1.45956982421875,-0.4440067708492279,-0.16334004700183868,-0.27783438563346863
1782811462536640800,1.469640869140625,-0.45900270342826843,-0.15270987153053284,-0.2966712415218353
1782811462546711800,1.4797119140625,-0.49482861161231995,-0.15337565541267395,-0.27026042342185974
1782811462556783600,1.48978369140625,-0.5412493944168091,-0.14779995381832123,-0.20924347639083862
1782811462566854700,1.499854736328125,-0.5938130021095276,-0.12589918076992035,-0.1276780515909195
1782811462576925400,1.509925537109375,-0.6467832922935486,-0.09511272609233856,-0.030532902106642723
1782811462586997500,1.51999755859375,-0.6921928524971008,-0.04640430584549904,0.04970094934105873
1782811462597068500,1.530068603515625,-0.7157543301582336,0.017478330060839653,0.10511350631713867
1782811462607140600,1.540140625,-0.7153055667877197,0.0730941891670227,0.13396193087100983
1782811462617211600,1.550211669921875,-0.7040892839431763,0.11154548078775406,0.13808424770832062
1782811462627282700,1.56028271484375,-0.6999704241752625,0.14301633834838867,0.13176164031028748
1782811462637354500,1.5703544921875,-0.7011322379112244,0.17096957564353943,0.12023550271987915
1782811462647425500,1.580425537109375,-0.7086666226387024,0.1821838766336441,0.106003038585186
1782811462657497600,1.59049755859375,-0.7091736793518066,0.1529856026172638,0.09376627206802368
1782811462667568600,1.600568603515625,-0.7035224437713623,0.1004752591252327,0.07153233885765076
1782811462677639700,1.6106396484375,-0.6833392381668091,0.04857998341321945,0.05558418855071068
1782811462687711700,1.620711669921875,-0.6551219820976257,0.02377450279891491,0.04860031604766846
1782811462697782500,1.630782470703125,-0.6231732368469238,0.037805091589689255,0.04932927340269089
1782811462707854600,1.6408544921875,-0.5865401029586792,0.07666034251451492,0.0623294897377491
1782811462717925600,1.650925537109375,-0.5504758954048157,0.11941982805728912,0.08641815185546875
1782811462727996700,1.66099658203125,-0.5070160627365112,0.16509251296520233,0.1313142627477646
1782811462738068500,1.671068359375,-0.4624020457267761,0.21773765981197357,0.19357150793075562
1782811462748139500,1.681139404296875,-0.43106117844581604,0.2674732804298401,0.25280237197875977
1782811462758210600,1.69121044921875,-0.4067266583442688,0.3131253123283386,0.3059040904045105
1782811462768282600,1.70128271484375,-0.3937746286392212,0.3526324927806854,0.3306051790714264
1782811462778353700,1.711353759765625,-0.38642317056655884,0.37180107831954956,0.3226117193698883
1782811462788425700,1.72142578125,-0.373335063457489,0.35845279693603516,0.28280970454216003
1782811462798496800,1.731496826171875,-0.3604811429977417,0.3099784255027771,0.22754813730716705
1782811462808567600,1.741567626953125,-0.3426060080528259,0.2594550549983978,0.16583549976348877
1782811462818639600,1.7516396484375,-0.3170662522315979,0.20322534441947937,0.10523991286754608
1782811462828710700,1.761710693359375,-0.27805227041244507,0.15022552013397217,0.05429950729012489
1782811462838782500,1.771782470703125,-0.2324233204126358,0.12416032701730728,0.013142690062522888
1782811462848853500,1.781853515625,-0.18727634847164154,0.11639215052127838,-0.008780984207987785
1782811462858924500,1.791924560546875,-0.1372494250535965,0.12977811694145203,-0.016274407505989075
1782811462868996600,1.80199658203125,-0.10330849885940552,0.14496904611587524,-0.013636014424264431
1782811462879067600,1.812067626953125,-0.07776293903589249,0.15219858288764954,0.010369686409831047
1782811462889139700,1.8221396484375,-0.06503036618232727,0.1580527424812317,0.04954531788825989
1782811462899210800,1.832210693359375,-0.06406363844871521,0.1810625195503235,0.09884785115718842
1782811462909281500,1.842281494140625,-0.09085956960916519,0.20408234000205994,0.1403721123933792
1782811462919353600,1.852353515625,-0.1296011507511139,0.22634246945381165,0.1586177796125412
1782811462929424600,1.862424560546875,-0.1738104224205017,0.24091847240924835,0.13576970994472504
1782811462939495700,1.87249560546875,-0.21119387447834015,0.26665037870407104,0.08587606996297836
1782811462949567500,1.8825673828125,-0.24088092148303986,0.31290414929389954,0.020902933552861214
1782811462959638500,1.892638427734375,-0.2674412131309509,0.37994086742401123,-0.045158617198467255
1782811462969710600,1.902710693359375,-0.2831552028656006,0.4322815537452698,-0.10897114872932434
1782811462979781600,1.91278173828125,-0.2921871840953827,0.4635089337825775,-0.16502031683921814
1782811462989852700,1.922852783203125,-0.27935367822647095,0.45822760462760925,-0.19620433449745178
1782811462999924700,1.9329248046875,-0.2408761829137802,0.4271552562713623,-0.20582792162895203
1782811463009995800,1.942995849609375,-0.18879832327365875,0.3836391866207123,-0.19033284485340118
1782811463020067600,1.953067626953125,-0.14158086478710175,0.3277856111526489,-0.16060534119606018
1782811463030138400,1.963138427734375,-0.09910105168819427,0.2696831524372101,-0.12006724625825882
1782811463040209400,1.97320947265625,-0.07031463831663132,0.23386356234550476,-0.08184376358985901
1782811463050281500,1.983281494140625,-0.06226416304707527,0.21624569594860077,-0.0658046081662178
1782811463060352500,1.9933525390625,-0.0603637620806694,0.1697159707546234,-0.0798742026090622
1782811463070423600,2.003423583984375,-0.06671407073736191,0.07267811894416809,-0.12971659004688263
1782811463080495600,2.01349560546875,-0.07434249669313431,-0.062438733875751495,-0.20210057497024536
1782811463090566700,2.023566650390625,-0.08084326982498169,-0.19460874795913696,-0.2777087688446045
1782811463100638700,2.033638671875,-0.08273399621248245,-0.2874535620212555,-0.34877705574035645
1782811463110709800,2.043709716796875,-0.07037666440010071,-0.3101636469364166,-0.3957885205745697
1782811463120780800,2.05378076171875,-0.0337100476026535,-0.2589280605316162,-0.4024818241596222
1782811463130852600,2.0638525390625,0.04632939398288727,-0.1547561138868332,-0.36232829093933105
1782811463140923400,2.07392333984375,0.1456427127122879,-0.031112544238567352,-0.2679688036441803
1782811463150995500,2.083995361328125,0.26150912046432495,0.07348363846540451,-0.13586322963237762
1782811463161066500,2.09406640625,0.3661222457885742,0.12593623995780945,0.009030045010149479
1782811463171137500,2.104137451171875,0.44638726115226746,0.12251035124063492,0.14507682621479034
1782811463181209600,2.114209716796875,0.5165765285491943,0.07878980040550232,0.2513415217399597
1782811463191280600,2.12428076171875,0.5695449709892273,-0.00003869994543492794,0.3220750689506531
1782811463201351700,2.1343515625,0.6022686958312988,-0.04006916284561157,0.35031792521476746
1782811463211423700,2.144423828125,0.617786169052124,-0.030292699113488197,0.34651467204093933
1782811463221494800,2.154494873046875,0.6329802870750427,0.004990162327885628,0.3297145366668701
1782811463231566600,2.164566650390625,0.6488053798675537,0.08048119395971298,0.30936986207962036
1782811463241636600,2.17463671875,0.6699977517127991,0.18394769728183746,0.3097483515739441
1782811463251707600,2.184707763671875,0.6828312277793884,0.2810524106025696,0.3102250397205353
1782811463261779500,2.194779541015625,0.6996378898620605,0.32159173488616943,0.31247463822364807
1782811463271850500,2.2048505859375,0.7249453663825989,0.3091345429420471,0.308039128780365
1782811463281922600,2.214922607421875,0.7406765818595886,0.2659779191017151,0.2944343388080597
1782811463291993600,2.22499365234375,0.760067880153656,0.18673717975616455,0.27115964889526367
1782811463302064600,2.235064697265625,0.7748739719390869,0.06658761203289032,0.21552860736846924
1782811463312136700,2.24513671875,0.7972155213356018,-0.06963600963354111,0.1409827321767807
1782811463322207700,2.255207763671875,0.8238198161125183,-0.19480688869953156,0.054291483014822006
1782811463332279800,2.26527978515625,0.8466223478317261,-0.31592267751693726,-0.02631361223757267
1782811463342350800,2.275350830078125,0.8501632809638977,-0.40535295009613037,-0.08597907423973083
1782811463352421600,2.285421630859375,0.8465390205383301,-0.4803438186645508,-0.12392193078994751
1782811463362493400,2.295493408203125,0.8388222455978394,-0.5512028932571411,-0.14289557933807373
1782811463372564500,2.305564453125,0.8190605640411377,-0.5821853280067444,-0.1471254676580429
1782811463382635500,2.315635498046875,0.7937712669372559,-0.5660665035247803,-0.1316043585538864
1782811463392707600,2.32570751953125,0.7594396471977234,-0.5224628448486328,-0.09889088571071625
1782811463402778600,2.335778564453125,0.7235530018806458,-0.45285311341285706,-0.05300382152199745
1782811463412850700,2.3458505859375,0.6729691028594971,-0.3678854703903198,0.001302977092564106
1782811463422921700,2.355921630859375,0.6143122911453247,-0.2681204378604889,0.05846583470702171
1782811463432992800,2.36599267578125,0.5520827770233154,-0.1466270387172699,0.11694858223199844
1782811463443064600,2.376064697265625,0.49287644028663635,-0.03672636300325394,0.1573529988527298
1782811463453135600,2.386135498046875,0.4318256080150604,0.02860417403280735,0.16339810192584991
1782811463463207700,2.396207763671875,0.37791529297828674,0.06326287239789963,0.1487778127193451
1782811463473278500,2.406278564453125,0.32978370785713196,0.07433389872312546,0.11941245198249817
1782811463483349500,2.416349609375,0.2934831976890564,0.06607077270746231,0.089483343064785
1782811463493421600,2.426421630859375,0.26460549235343933,0.04634101316332817,0.059950217604637146
1782811463503492600,2.43649267578125,0.22837387025356293,0.02929682470858097,0.044077251106500626
1782811463513563600,2.446563720703125,0.19470325112342834,0.019933681935071945,0.04195711016654968
1782811463523635700,2.4566357421875,0.15812142193317413,0.014549396932125092,0.04727008193731308
1782811463533706800,2.466706787109375,0.11534147709608078,0.0106041906401515,0.05997708812355995
1782811463543778600,2.476778564453125,0.07226087152957916,0.011405613273382187,0.0715303048491478
1782811463553849600,2.486849609375,0.03168042004108429,0.0141364187002182,0.07704997062683105
1782811463563920400,2.49692041015625,-0.007317007519304752,0.02407289668917656,0.07290519773960114
1782811463573992400,2.506992431640625,-0.03638434410095215,0.03516016900539398,0.05698801577091217
1782811463584063500,2.5170634765625,-0.0638524666428566,0.04673117399215698,0.03357502073049545
1782811463594135600,2.527135498046875,-0.0829947367310524,0.05124443396925926,0.007141548208892345
1782811463604206600,2.53720654296875,-0.09125451743602753,0.03726007044315338,-0.014124244451522827
1782811463614277600,2.547277587890625,-0.1000424176454544,-0.005060753785073757,-0.03471740335226059
1782811463624349700,2.557349609375,-0.11470834910869598,-0.08050011098384857,-0.04685533791780472
1782811463634420700,2.567420654296875,-0.12867768108844757,-0.15569552779197693,-0.05609357729554176
1782811463644491800,2.57749169921875,-0.14053727686405182,-0.22237521409988403,-0.057971108704805374
1782811463654563600,2.5875634765625,-0.1606750339269638,-0.2877606451511383,-0.0726989209651947
1782811463664634600,2.597634521484375,-0.18507321178913116,-0.3497132360935211,-0.09511209279298782
1782811463674706700,2.607706787109375,-0.21439595520496368,-0.3929608464241028,-0.11749223619699478
1782811463684777500,2.617777587890625,-0.2416359931230545,-0.407780259847641,-0.13107894361019135
1782811463694848500,2.6278486328125,-0.2609074115753174,-0.393915593624115,-0.12277093529701233
1782811463704920600,2.637920654296875,-0.2799924314022064,-0.3229198157787323,-0.0936712846159935
1782811463714991600,2.64799169921875,-0.3180793821811676,-0.22449204325675964,-0.06751292198896408
1782811463725063700,2.658063720703125,-0.3970613479614258,-0.12865117192268372,-0.07697554677724838
1782811463735134700,2.668134765625,-0.49898505210876465,-0.06977108865976334,-0.13502633571624756
1782811463745205800,2.678205810546875,-0.6170667409896851,-0.05711573362350464,-0.2171434611082077
1782811463755277600,2.688277587890625,-0.7291237711906433,-0.05717751756310463,-0.2999595105648041
1782811463765348600,2.6983486328125,-0.8030090928077698,-0.02081042155623436,-0.3569396436214447
1782811463775419600,2.708419677734375,-0.8145208358764648,0.02485160529613495,-0.3781903386116028
1782811463785491700,2.71849169921875,-0.7749565243721008,0.07612644135951996,-0.36081600189208984
1782811463795562500,2.7285625,-0.6926030516624451,0.11448794603347778,-0.29698240756988525
1782811463805634600,2.738634521484375,-0.5944415330886841,0.1302572339773178,-0.19267036020755768
1782811463815705600,2.74870556640625,-0.5125325322151184,0.11285400390625,-0.06882991641759872
1782811463825776600,2.758776611328125,-0.4552706480026245,0.061827294528484344,0.03938155993819237
1782811463835848400,2.768848388671875,-0.4255162179470062,-0.034390583634376526,0.11420067399740219
1782811463845919500,2.77891943359375,-0.41862955689430237,-0.1275532841682434,0.14796662330627441
1782811463855990500,2.788990478515625,-0.4166601598262787,-0.1685076504945755,0.1591457724571228
1782811463866062600,2.7990625,-0.40760311484336853,-0.15351682901382446,0.16623583436012268
1782811463876133600,2.809133544921875,-0.3965001404285431,-0.11355076730251312,0.17427724599838257
1782811463886205700,2.819205810546875,-0.39869245886802673,-0.06702172011137009,0.18666183948516846
1782811463896276700,2.82927685546875,-0.40453729033470154,0.0016990182921290398,0.20718282461166382
1782811463906347500,2.839347412109375,-0.41157668828964233,0.08109327405691147,0.2405303567647934
1782811463916419600,2.849419677734375,-0.41962313652038574,0.14799906313419342,0.2734004259109497
1782811463926490600,2.85949072265625,-0.4304690659046173,0.1768748015165329,0.297555536031723
1782811463936562400,2.8695625,-0.44701024889945984,0.16492971777915955,0.29396507143974304
1782811463946633500,2.879633544921875,-0.4803466498851776,0.12214638292789459,0.265749454498291
1782811463956704500,2.88970458984375,-0.5259853005409241,0.07204379886388779,0.217107355594635
1782811463966776600,2.899776611328125,-0.5780293345451355,0.03466811031103134,0.14278650283813477
1782811463976847600,2.90984765625,-0.6303801536560059,0.004886779002845287,0.05287739261984825
1782811463986918700,2.919918701171875,-0.664454460144043,-0.011620759032666683,-0.03164424002170563
1782811463996990700,2.92999072265625,-0.6771380305290222,0.000803952687419951,-0.10417516529560089
1782811464007061800,2.940061767578125,-0.6655880212783813,0.03528933972120285,-0.15516556799411774
1782811464017133800,2.9501337890625,-0.6383787989616394,0.05973716080188751,-0.18099290132522583
1782811464027204600,2.96020458984375,-0.6037683486938477,0.0822930708527565,-0.1806219220161438
1782811464037275600,2.970275634765625,-0.5493535399436951,0.10920404642820358,-0.14983898401260376
1782811464047347500,2.980347412109375,-0.4751437306404114,0.14140170812606812,-0.09881936013698578
1782811464057418500,2.99041845703125,-0.4012386202812195,0.16327105462551117,-0.037352804094552994
1782811464067490600,3.000490478515625,-0.3432885408401489,0.1729346066713333,0.022236071527004242
1782811464077561600,3.0105615234375,-0.29276567697525024,0.17202140390872955,0.0815366804599762
1782811464087632600,3.020632568359375,-0.25131064653396606,0.16292084753513336,0.13098332285881042
1782811464097704700,3.03070458984375,-0.22543886303901672,0.1440289169549942,0.16202086210250854
1782811464107775700,3.040775634765625,-0.21518529951572418,0.1307039111852646,0.1709454506635666
1782811464117846500,3.050846435546875,-0.20244820415973663,0.1351197063922882,0.17467893660068512
1782811464127918800,3.0609189453125,-0.1847986876964569,0.1382637470960617,0.16857203841209412
1782811464137989600,3.07098974609375,-0.1742485761642456,0.11625857651233673,0.150425523519516
1782811464148061400,3.0810615234375,-0.17018720507621765,0.07586485147476196,0.12301286309957504
1782811464158132500,3.091132568359375,-0.17233583331108093,0.028872044757008553,0.08534085005521774
1782811464168203500,3.10120361328125,-0.17458032071590424,-0.025217849761247635,0.05102751404047012
1782811464178275600,3.111275634765625,-0.1769193708896637,-0.07680860906839371,0.02007812075316906
1782811464188346600,3.1213466796875,-0.174111008644104,-0.11185438930988312,0.011103017255663872
1782811464198418700,3.131418701171875,-0.17262816429138184,-0.15534168481826782,0.017137741670012474
1782811464208489700,3.14148974609375,-0.17841695249080658,-0.20049193501472473,0.034616097807884216
1782811464218560800,3.151560791015625,-0.19361162185668945,-0.23110763728618622,0.05129201337695122
1782811464228632600,3.161632568359375,-0.21521034836769104,-0.23446175456047058,0.07959633320569992
1782811464238704600,3.17170458984375,-0.23274272680282593,-0.1989133507013321,0.11704356968402863
1782811464248775700,3.181775634765625,-0.23875753581523895,-0.140717551112175,0.1693217158317566
1782811464258847700,3.19184765625,-0.23266181349754333,-0.06303394585847855,0.23887522518634796
1782811464268918800,3.201918701171875,-0.21143153309822083,0.013360168784856796,0.3191593587398529
1782811464278990800,3.211990966796875,-0.17884483933448792,0.08797608315944672,0.401266485452652
1782811464289062000,3.222061767578125,-0.14488686621189117,0.17723539471626282,0.47458145022392273
1782811464299133000,3.2321328125,-0.1134602352976799,0.27638888359069824,0.5273500680923462
1782811464309204700,3.242204833984375,-0.08249000459909439,0.3529377281665802,0.5324346423149109
1782811464319275500,3.252275634765625,-0.043953798711299896,0.3431050777435303,0.4794923663139343
1782811464329346600,3.2623466796875,0.000842434645164758,0.2449295073747635,0.3716524541378021
1782811464339418600,3.272418701171875,0.05044407397508621,0.10438225418329239,0.2484341263771057
1782811464349489700,3.28248974609375,0.08584710210561752,-0.011996040120720863,0.1316767781972885
1782811464359561700,3.292561767578125,0.09867767989635468,-0.0935303121805191,0.030884910374879837
1782811464369632800,3.3026328125,0.09824701398611069,-0.15719155967235565,-0.0610387809574604
1782811464379703800,3.312703857421875,0.1013123169541359,-0.2026141732931137,-0.15160462260246277
1782811464389776000,3.32277587890625,0.11869320273399353,-0.218351349234581,-0.2276635468006134
1782811464399847000,3.332846923828125,0.14911635220050812,-0.2072150707244873,-0.27840185165405273
1782811464409918700,3.342918701171875,0.19695931673049927,-0.16240373253822327,-0.28760263323783875
1782811464419989800,3.35298974609375,0.2645932137966156,-0.09763965010643005,-0.24040503799915314
1782811464430060500,3.363060546875,0.35863667726516724,-0.03774389997124672,-0.14183752238750458
1782811464440132600,3.373132568359375,0.4783113896846771,0.038754336535930634,-0.004893517587333918
1782811464450203600,3.38320361328125,0.5944926142692566,0.11489895731210709,0.14090599119663239
1782811464460274700,3.393274658203125,0.6877722144126892,0.15294328331947327,0.26215091347694397
1782811464470346800,3.4033466796875,0.7443059086799622,0.16922108829021454,0.3526318669319153
1782811464480417800,3.413417724609375,0.7787653207778931,0.20203815400600433,0.41367363929748535
1782811464490489600,3.423489501953125,0.7836337685585022,0.24591058492660522,0.4293689727783203
1782811464500560600,3.433560546875,0.7706010937690735,0.28155404329299927,0.4068615138530731
1782811464510631700,3.443631591796875,0.7492957711219788,0.2890721559524536,0.34875133633613586
1782811464520703700,3.453703857421875,0.7316702008247375,0.26842814683914185,0.26666340231895447
1782811464530774800,3.46377490234375,0.7154876589775085,0.21654243767261505,0.1735183447599411
1782811464540846800,3.473846923828125,0.701632022857666,0.14058507978916168,0.07939371466636658
1782811464550917600,3.483917724609375,0.6996033191680908,0.05716029554605484,-0.00738840876147151
1782811464560988700,3.49398876953125,0.7063823938369751,-0.02924436889588833,-0.07730863243341446
1782811464571060700,3.504060791015625,0.7156961560249329,-0.10385240614414215,-0.13538533449172974
1782811464581131800,3.5141318359375,0.7209407091140747,-0.16014762222766876,-0.1729273796081543
1782811464591202800,3.524202880859375,0.7062253355979919,-0.20976106822490692,-0.1935565173625946
1782811464601274600,3.534274658203125,0.6841011047363281,-0.26622676849365234,-0.19831372797489166
1782811464611345700,3.544345703125,0.6576842665672302,-0.3072536289691925,-0.18534478545188904
1782811464621417700,3.554417724609375,0.6335181593894958,-0.3316953480243683,-0.15957017242908478
1782811464631488800,3.56448876953125,0.5951927304267883,-0.3273947834968567,-0.1407100260257721
1782811464641559800,3.574559814453125,0.5440424680709839,-0.3087044656276703,-0.13217858970165253
1782811464651631900,3.5846318359375,0.471442848443985,-0.2974661588668823,-0.13052114844322205
1782811464661702700,3.59470263671875,0.39152273535728455,-0.25227364897727966,-0.12489496171474457
1782811464671773700,3.604773681640625,0.32732871174812317,-0.15935635566711426,-0.11703544855117798
1782811464681845800,3.614845703125,0.27218371629714966,-0.06740646064281464,-0.12090768665075302
1782811464691916800,3.624916748046875,0.21566255390644073,-0.010274329222738743,-0.13480079174041748
1782811464701988600,3.634988525390625,0.1585814207792282,0.04127594828605652,-0.1530064344406128
1782811464712059600,3.6450595703125,0.12123642861843109,0.08899766951799393,-0.15247847139835358
1782811464722130700,3.655130615234375,0.0962383970618248,0.1420971155166626,-0.1364062875509262
1782811464732202800,3.66520263671875,0.07744091004133224,0.17890918254852295,-0.11658353358507156
1782811464742273800,3.675273681640625,0.050976548343896866,0.19414165616035461,-0.1055079847574234
1782811464752345900,3.685345947265625,0.020924624055624008,0.1987634152173996,-0.09461867064237595
1782811464762417000,3.6954169921875,-0.011059940792620182,0.21219293773174286,-0.08649842441082001
1782811464772487700,3.70548779296875,-0.04253818839788437,0.22256527841091156,-0.08899356424808502
1782811464782559700,3.715559814453125,-0.06375478953123093,0.22437117993831635,-0.09134194254875183
1782811464792630800,3.725630859375,-0.06717406958341599,0.19213049113750458,-0.10038117319345474
1782811464802701800,3.735701904296875,-0.06687445938587189,0.12294289469718933,-0.11356302350759506
1782811464812773600,3.745773681640625,-0.06693645566701889,0.02568008005619049,-0.12489236146211624
1782811464822844700,3.7558447265625,-0.06142478063702583,-0.07887881994247437,-0.1225128248333931
1782811464832916700,3.765916748046875,-0.060630884021520615,-0.17721450328826904,-0.1121152713894844
1782811464842987800,3.77598779296875,-0.05987108498811722,-0.26948636770248413,-0.0982508510351181
1782811464853058800,3.786058837890625,-0.06145685166120529,-0.35091105103492737,-0.08060801774263382
1782811464863131000,3.796130859375,-0.07180003821849823,-0.42091304063796997,-0.0748574510216713
1782811464873202000,3.806201904296875,-0.09138014167547226,-0.4818367660045624,-0.08617699891328812
1782811464883272700,3.816272705078125,-0.12100594490766525,-0.5377751588821411,-0.11874319612979889
1782811464893344800,3.8263447265625,-0.150521382689476,-0.58925461769104,-0.16097214818000793
1782811464903415600,3.83641552734375,-0.17532101273536682,-0.6136976480484009,-0.18251578509807587
1782811464913487600,3.846487548828125,-0.19762484729290009,-0.6158214807510376,-0.1716129630804062
1782811464923558700,3.85655859375,-0.22165215015411377,-0.5831934809684753,-0.12731127440929413
1782811464933629700,3.866629638671875,-0.24947954714298248,-0.5106483101844788,-0.06263675540685654
1782811464943701800,3.87670166015625,-0.2804584801197052,-0.38662517070770264,0.008206254802644253
1782811464953772800,3.886772705078125,-0.3036310076713562,-0.245117649435997,0.07123218476772308
1782811464963843800,3.89684375,-0.345939576625824,-0.13758505880832672,0.09161549061536789
1782811464973916000,3.906916015625,-0.42244672775268555,-0.09093831479549408,0.0770668312907219
1782811464983986700,3.916986572265625,-0.5187383890151978,-0.1036386638879776,0.04664580896496773
1782811464994058800,3.927058837890625,-0.6208398938179016,-0.1367678940296173,0.00971867237240076
1782811465004129500,3.937129638671875,-0.6942149996757507,-0.14806769788265228,-0.017140371724963188
1782811465014200600,3.94720068359375,-0.7168986201286316,-0.11386700719594955,-0.024676885455846786
1782811465024272600,3.957272705078125,-0.6903327703475952,-0.04675854742527008,-0.022689102217555046
1782811465034343700,3.96734375,-0.6224542260169983,0.013871610164642334,-0.007058245595544577
1782811465044415700,3.977415771484375,-0.5222077965736389,0.04996463283896446,0.016267050057649612
1782811465054486800,3.98748681640625,-0.4153297245502472,0.07374994456768036,0.05195922031998634
1782811465064557800,3.997557861328125,-0.3275514245033264,0.07539098709821701,0.08656246960163116
1782811465074630000,4.0076298828125,-0.26620009541511536,0.04972466826438904,0.12042652815580368
1782811465084701000,4.017700927734375,-0.23795486986637115,0.01467560138553381,0.1436319798231125
1782811465094771700,4.027771728515625,-0.24062442779541016,-0.039105337113142014,0.1499764323234558
1782811465104843500,4.037843505859375,-0.27786099910736084,-0.10389259457588196,0.14208202064037323
1782811465114914600,4.04791455078125,-0.3209266662597656,-0.13247434794902802,0.1360348016023636
1782811465124986600,4.057986572265625,-0.33577510714530945,-0.09705590456724167,0.13114124536514282
1782811465135057700,4.0680576171875,-0.33014699816703796,-0.03297297656536102,0.1138986200094223
1782811465145128700,4.078128662109375,-0.30604565143585205,0.025799261406064034,0.09779395163059235
1782811465155200800,4.08820068359375,-0.2875562012195587,0.07009804993867874,0.08801925182342529
1782811465165271800,4.098271728515625,-0.2704067826271057,0.08366339653730392,0.08458244055509567
1782811465175342800,4.1083427734375,-0.26657143235206604,0.05921248346567154,0.07771316170692444
1782811465185415000,4.118414794921875,-0.27592363953590393,0.012016743421554565,0.0634777694940567
1782811465195486000,4.12848583984375,-0.2900613844394684,-0.032110795378685,0.04187281057238579
1782811465205557800,4.138557861328125,-0.3107917010784149,-0.07275542616844177,0.0045832302421331406
1782811465215628500,4.148628662109375,-0.3474964201450348,-0.08517248183488846,-0.04157928004860878
1782811465225699600,4.158699462890625,-0.3799044191837311,-0.06146607920527458,-0.0880516991019249
1782811465235771400,4.168771484375,-0.3947571814060211,-0.0044248392805457115,-0.1249753013253212
1782811465245842400,4.178842529296875,-0.3859389126300812,0.06581656634807587,-0.13367797434329987
1782811465255913200,4.188913330078125,-0.3552863597869873,0.1372329741716385,-0.11678692698478699
1782811465265985300,4.1989853515625,-0.30853351950645447,0.2103806883096695,-0.06321557611227036
1782811465276056300,4.209056396484375,-0.25834381580352783,0.29179647564888,0.015272744931280613
1782811465286128400,4.21912841796875,-0.20036092400550842,0.3583126664161682,0.11414898931980133
1782811465296199400,4.229199462890625,-0.1530066877603531,0.39309927821159363,0.19580815732479095
1782811465306270500,4.2392705078125,-0.11794323474168777,0.389932781457901,0.2609623670578003
1782811465316342300,4.24934228515625,-0.1028052568435669,0.3624606132507324,0.2958105802536011
1782811465326413300,4.259413330078125,-0.10118738561868668,0.2996821701526642,0.2982899844646454
1782811465336484400,4.269484375,-0.11841356009244919,0.2117508500814438,0.26375439763069153
1782811465346556400,4.279556396484375,-0.14169572293758392,0.10632243007421494,0.20625142753124237
1782811465356627500,4.28962744140625,-0.16830745339393616,0.004530064761638641,0.13332289457321167
1782811465366699500,4.299699462890625,-0.2013639509677887,-0.09024038910865784,0.059756264090538025
1782811465376770300,4.309770263671875,-0.23469199240207672,-0.15256141126155853,0.004096322692930698
1782811465386841300,4.31984130859375,-0.2747099697589874,-0.18531429767608643,-0.027652550488710403
1782811465396913400,4.329913330078125,-0.322273850440979,-0.2093782275915146,-0.035251472145318985
1782811465406984400,4.339984375,-0.36787301301956177,-0.23940856754779816,-0.024620400741696358
1782811465417056300,4.35005615234375,-0.4089239537715912,-0.25216883420944214,0.013199896551668644
1782811465427127300,4.360127197265625,-0.44162702560424805,-0.25286203622817993,0.06487907469272614
1782811465437198300,4.3701982421875,-0.47939592599868774,-0.2197418212890625,0.12063662707805634
1782811465447270400,4.3802705078125,-0.5204927921295166,-0.16448922455310822,0.1561160534620285
1782811465457341400,4.390341552734375,-0.5620885491371155,-0.11997310072183609,0.17076373100280762
1782811465467412500,4.40041259765625,-0.5860655307769775,-0.07875216752290726,0.1581760197877884
1782811465477484500,4.410484619140625,-0.5836874842643738,-0.02741193398833275,0.1296294927597046
1782811465487555300,4.420555419921875,-0.564089298248291,0.025277908891439438,0.09752295911312103
1782811465497626400,4.43062646484375,-0.5293091535568237,0.06895262748003006,0.08168811351060867
1782811465507698200,4.4406982421875,-0.49848654866218567,0.10781879723072052,0.08703627437353134
1782811465517769200,4.450769287109375,-0.45709824562072754,0.13851210474967957,0.10789397358894348
1782811465527841300,4.46084130859375,-0.3958503305912018,0.18311499059200287,0.14539872109889984
1782811465537912300,4.470912353515625,-0.3199205994606018,0.2351905107498169,0.18695619702339172
1782811465547983400,4.4809833984375,-0.2512238323688507,0.29015177488327026,0.22660242021083832
1782811465558055400,4.491055419921875,-0.20815442502498627,0.3501472771167755,0.254312127828598
1782811465568126500,4.50112646484375,-0.16915881633758545,0.3612385392189026,0.2360713630914688
1782811465578198500,4.511198486328125,-0.12204873561859131,0.28893211483955383,0.17581941187381744
1782811465588269600,4.52126953125,-0.05158282443881035,0.16882756352424622,0.086454376578331
1782811465598340400,4.53134033203125,0.02658442221581936,0.023623431101441383,-0.005721845664083958
1782811465608412200,4.541412109375,0.08518009632825851,-0.1381273865699768,-0.09187297523021698
1782811465618483200,4.551483154296875,0.12140680104494095,-0.27285903692245483,-0.1590222269296646
1782811465628554200,4.56155419921875,0.15381506085395813,-0.34770557284355164,-0.21374991536140442
1782811465638626300,4.571626220703125,0.18713723123073578,-0.36236733198165894,-0.2557567358016968
1782811465648697300,4.581697265625,0.23627015948295593,-0.31548449397087097,-0.27082279324531555
1782811465658769400,4.591769287109375,0.295535147190094,-0.2158593386411667,-0.2536642551422119
1782811465668840400,4.60184033203125,0.34316205978393555,-0.08378173410892487,-0.20305779576301575
1782811465678911500,4.611911376953125,0.37865814566612244,0.0311374980956316,-0.1412530541419983
1782811465688983600,4.621983642578125,0.39540889859199524,0.0965665727853775,-0.08603799343109131
1782811465699054300,4.632054443359375,0.3938763439655304,0.14577814936637878,-0.04125012084841728
1782811465709125400,4.64212548828125,0.3940294682979584,0.20347127318382263,-0.003932575229555368
1782811465719197200,4.652197265625,0.39451223611831665,0.28578969836235046,0.021435394883155823
1782811465729268200,4.662268310546875,0.4052155017852783,0.36026525497436523,0.04880336672067642
1782811465739340300,4.67234033203125,0.42855221033096313,0.4194610118865967,0.07585396617650986
1782811465749411300,4.682411376953125,0.4735300540924072,0.4464372396469116,0.10268931090831757
1782811465759482400,4.692482421875,0.5320718884468079,0.4388073980808258,0.12613366544246674
1782811465769554400,4.702554443359375,0.5906922817230225,0.39827194809913635,0.1335684210062027
1782811465779625500,4.71262548828125,0.6491586565971375,0.3495384156703949,0.13256284594535828
1782811465789696500,4.722696533203125,0.7062253952026367,0.2857453227043152,0.11987235397100449
1782811465799768300,4.732768310546875,0.7524873614311218,0.17796654999256134,0.09466251730918884
1782811465809839400,4.74283935546875,0.7922707200050354,0.04834436625242233,0.0710970088839531
1782811465819911200,4.7529111328125,0.82392817735672,-0.08982604742050171,0.04551195725798607
1782811465829982200,4.762982177734375,0.8425984978675842,-0.231901153922081,0.009193364530801773
1782811465840053200,4.77305322265625,0.8560300469398499,-0.3727383613586426,-0.026145022362470627
1782811465850125300,4.783125244140625,0.8422985076904297,-0.4951595962047577,-0.07940851151943207
1782811465860196400,4.7931962890625,0.8146566152572632,-0.5883554816246033,-0.14326605200767517
1782811465870267400,4.803267333984375,0.7770503759384155,-0.6534324884414673,-0.1987583339214325
1782811465880339500,4.81333935546875,0.7290104031562805,-0.6975911259651184,-0.25700849294662476
1782811465890410500,4.823410400390625,0.6717833280563354,-0.715785801410675,-0.29931706190109253
1782811465900482300,4.833482421875,0.6008831858634949,-0.7034931778907776,-0.3113536834716797
1782811465910553300,4.84355322265625,0.5199254751205444,-0.6715229749679565,-0.2988632023334503
1782811465920624400,4.853624267578125,0.43021079897880554,-0.6086534857749939,-0.2705014646053314
1782811465930696200,4.8636962890625,0.34956762194633484,-0.5169126391410828,-0.2385600358247757
1782811465940767200,4.873767333984375,0.28203821182250977,-0.40026208758354187,-0.2093847543001175
1782811465950838300,4.88383837890625,0.24267111718654633,-0.2726242244243622,-0.18122954666614532
1782811465960910300,4.893910400390625,0.23727890849113464,-0.15259172022342682,-0.1579061597585678
1782811465970981400,4.9039814453125,0.26144975423812866,-0.05885777994990349,-0.1442611813545227
1782811465981053400,4.914053466796875,0.2960924208164215,-0.00953177735209465,-0.13616330921649933
1782811465991124500,4.92412451171875,0.33468562364578247,-0.0085060503333807,-0.13653366267681122
1782811466001195500,4.934195556640625,0.3669683039188385,-0.0338076576590538,-0.1447434425354004
1782811466011267300,4.944267333984375,0.39599862694740295,-0.06620128452777863,-0.14988760650157928
1782811466021338400,4.95433837890625,0.4126570522785187,-0.0971440002322197,-0.1618628352880478
1782811466031409200,4.9644091796875,0.41219499707221985,-0.1426350474357605,-0.18606457114219666
1782811466041481200,4.974481201171875,0.39949533343315125,-0.18344183266162872,-0.20781885087490082
1782811466051552300,4.98455224609375,0.3913530111312866,-0.2023681104183197,-0.20140835642814636
1782811466061624300,4.994624267578125,0.3706790506839752,-0.20846498012542725,-0.16912676393985748
1782811466071695400,5.0046953125,0.3447875380516052,-0.20380151271820068,-0.12125217914581299
1782811466081766400,5.014766357421875,0.3140709400177002,-0.19327853620052338,-0.08913040161132812
1782811466091838500,5.02483837890625,0.28232234716415405,-0.18566375970840454,-0.07252266258001328
1782811466101909500,5.034909423828125,0.23282034695148468,-0.18265245854854584,-0.08698724955320358
1782811466111980500,5.04498046875,0.1895780712366104,-0.18378643691539764,-0.12673865258693695
1782811466122052400,5.05505224609375,0.14873571693897247,-0.18904460966587067,-0.17957332730293274
1782811466132123400,5.065123291015625,0.10986529290676117,-0.2033894658088684,-0.23502114415168762
1782811466142195500,5.075195556640625,0.06939142942428589,-0.2229606807231903,-0.28188660740852356
1782811466152266200,5.085266357421875,0.0379866361618042,-0.24720343947410583,-0.31245705485343933
1782811466162337300,5.095337158203125,-0.0030915692914277315,-0.25922808051109314,-0.3295953571796417
1782811466172409300,5.105409423828125,-0.04754718393087387,-0.25400641560554504,-0.3274107575416565
1782811466182480400,5.11548046875,-0.10381963104009628,-0.23384112119674683,-0.3319043219089508
1782811466192551400,5.125551513671875,-0.16681216657161713,-0.21993090212345123,-0.35794126987457275
1782811466202623500,5.13562353515625,-0.24382950365543365,-0.20945902168750763,-0.40215447545051575
1782811466212694500,5.145694580078125,-0.3265286386013031,-0.1942843347787857,-0.4493797719478607
1782811466222766300,5.155766357421875,-0.40590330958366394,-0.14311061799526215,-0.46768778562545776
1782811466232837400,5.16583740234375,-0.4615522027015686,-0.06937088817358017,-0.4534763693809509
1782811466242908200,5.175908203125,-0.4809402823448181,0.0009910903172567487,-0.4205596446990967
1782811466252980500,5.18598046875,-0.459281325340271,0.07165434211492538,-0.348554402589798
1782811466263051300,5.19605126953125,-0.4084950387477875,0.12509921193122864,-0.24304097890853882
1782811466273122300,5.206122314453125,-0.3586837947368622,0.15947368741035461,-0.1366434395313263
1782811466283194400,5.2161943359375,-0.33875128626823425,0.16204839944839478,-0.04351802170276642
1782811466293265400,5.226265380859375,-0.3625596761703491,0.12793277204036713,0.0029046039562672377
1782811466303337200,5.236337158203125,-0.4175281822681427,0.07750526070594788,0.012420812621712685
1782811466313408300,5.246408203125,-0.49741289019584656,0.06830830127000809,-0.012345253489911556
1782811466323479300,5.256479248046875,-0.5666677355766296,0.10125338286161423,-0.06467192620038986
1782811466333551400,5.26655126953125,-0.6172073483467102,0.1623649299144745,-0.12344576418399811
1782811466343622400,5.276622314453125,-0.6380051970481873,0.22723649442195892,-0.15791356563568115
1782811466353693200,5.286693115234375,-0.6348714828491211,0.31006908416748047,-0.14073431491851807
1782811466363765200,5.29676513671875,-0.6149803400039673,0.3921361565589905,-0.08431032299995422
1782811466373836300,5.306836181640625,-0.5939200520515442,0.42688748240470886,-0.0029685962945222855
1782811466383908400,5.316908447265625,-0.577006995677948,0.40955379605293274,0.09151916205883026
1782811466393979400,5.3269794921875,-0.5776283144950867,0.3631783127784729,0.17689929902553558
1782811466404050400,5.337050537109375,-0.5927941203117371,0.3162340521812439,0.24149109423160553
1782811466414122200,5.347122314453125,-0.6184704303741455,0.2811439633369446,0.2753443717956543
1782811466424193300,5.357193359375,-0.6445452570915222,0.25368818640708923,0.2756277024745941
1782811466434264300,5.367264404296875,-0.6696375608444214,0.2442970871925354,0.24688608944416046
1782811466444336400,5.37733642578125,-0.6872309446334839,0.2556094527244568,0.19942504167556763
1782811466454407400,5.387407470703125,-0.6853501796722412,0.2631712257862091,0.1373070776462555
1782811466464478200,5.397478271484375,-0.6718202829360962,0.2585107088088989,0.07295551896095276
1782811466474550300,5.40755029296875,-0.6425731778144836,0.25747179985046387,0.018498403951525688
1782811466484621300,5.417621337890625,-0.6002163290977478,0.25527772307395935,-0.0047749425284564495
1782811466494693400,5.427693359375,-0.544013261795044,0.26183387637138367,0.005472901277244091
1782811466504764400,5.437764404296875,-0.4791520833969116,0.2700977623462677,0.05033301189541817
1782811466514835500,5.44783544921875,-0.42072632908821106,0.2539083957672119,0.11822071671485901
1782811466524907300,5.4579072265625,-0.3674888014793396,0.23419919610023499,0.1959553211927414
1782811466534978300,5.467978271484375,-0.3249349594116211,0.20998413860797882,0.26506540179252625
1782811466545049300,5.47804931640625,-0.29600170254707336,0.17395152151584625,0.32099542021751404
1782811466555121400,5.488121337890625,-0.2735494077205658,0.1343172937631607,0.3507775366306305
1782811466565192400,5.4981923828125,-0.25298887491226196,0.10329721868038177,0.3504241704940796
1782811466575264500,5.508264404296875,-0.2289024442434311,0.0987836942076683,0.3266780972480774
1782811466585335300,5.518335205078125,-0.19676287472248077,0.10893113911151886,0.29189106822013855
1782811466595406300,5.52840625,-0.17250894010066986,0.11175408959388733,0.2460452914237976
1782811466605478400,5.538478515625,-0.15714821219444275,0.10665743798017502,0.21701841056346893
1782811466615549400,5.548549560546875,-0.1529870182275772,0.08826778084039688,0.1991451382637024
1782811466625620500,5.558620361328125,-0.1552150547504425,0.05548618733882904,0.18235690891742706
1782811466635692300,5.5686923828125,-0.1621432602405548,0.007264593616127968,0.1625078320503235
1782811466645763300,5.578763427734375,-0.16287118196487427,-0.04054901748895645,0.14096517860889435
1782811466655835400,5.58883544921875,-0.16992349922657013,-0.0745549201965332,0.12619049847126007
1782811466665906400,5.598906494140625,-0.1812131553888321,-0.07592524588108063,0.11982164531946182
1782811466675977500,5.6089775390625,-0.1971963793039322,-0.053043898195028305,0.12423823028802872
1782811466686049500,5.619049560546875,-0.22285641729831696,-0.035169947892427444,0.12716449797153473
1782811466696120300,5.629120361328125,-0.24641633033752441,-0.027293384075164795,0.12302087247371674
1782811466706191400,5.63919140625,-0.26320016384124756,-0.006393305025994778,0.13100798428058624
1782811466716263200,5.64926318359375,-0.27500540018081665,0.053767502307891846,0.13396701216697693
1782811466726334200,5.659334228515625,-0.2762514650821686,0.121426522731781,0.14710868895053864
1782811466736407300,5.6694072265625,-0.28309497237205505,0.16517533361911774,0.18563076853752136
1782811466746479400,5.679479248046875,-0.28929516673088074,0.18448856472969055,0.22122837603092194
1782811466756550400,5.68955029296875,-0.2743156850337982,0.1896553635597229,0.23882707953453064
1782811466766621400,5.699621337890625,-0.24123291671276093,0.2019919753074646,0.2289680689573288
1782811466776693200,5.709693359375,-0.19224540889263153,0.24556048214435577,0.196413055062294
1782811466786764300,5.719764404296875,-0.13656313717365265,0.3623259961605072,0.16851425170898438
1782811466796836400,5.72983642578125,-0.051983542740345,0.5294936895370483,0.12451457232236862
1782811466806907400,5.739907470703125,0.07320556789636612,0.641742467880249,0.07105020433664322
1782811466816978400,5.749978515625,0.16138789057731628,0.6723373532295227,0.15325027704238892
1782811466827050500,5.760050537109375,0.05025467649102211,0.16984763741493225,0.1662100851535797
1782811466837121300,5.770121337890625,-0.09754783660173416,-0.3870614469051361,0.1720903515815735
1782811466847192300,5.7801923828125,-0.09579935669898987,-0.6218396425247192,0.19256259500980377
1782811466857264400,5.790264404296875,-0.06769874691963196,-0.5126151442527771,0.23445039987564087
1782811466867335400,5.80033544921875,-0.041959282010793686,-0.34960025548934937,0.19520001113414764
1782811466877407200,5.8104072265625,-0.033471256494522095,-0.27155977487564087,0.06768227368593216
1782811466887478300,5.820478271484375,-0.032076530158519745,-0.18299421668052673,-0.04918162152171135
1782811466897549300,5.83054931640625,-0.007289957255125046,0.021243354305624962,-0.06827569007873535
1782811466907621400,5.840621337890625,0.03338887542486191,0.2096480429172516,-0.005004535429179668
