time,seconds_elapsed,z,y,x
1782811404103691500,0.07269140625,-0.7960732210457324,-0.34468021032325924,-0.3232131324678659
1782811404113762600,0.082762451171875,-0.8540209676235914,-0.29496684280112384,-0.31237273563221096
1782811404123834600,0.092834716796875,-0.6095329968243837,-0.27024375882446766,-0.20621172389686107
1782811404133905700,0.10290576171875,-0.32435470371842384,-0.24053368021547794,-0.07057473456934094
1782811404143976400,0.1129765625,-0.1140980883449316,-0.2349727581527084,0.030123189454525707
1782811404154048500,0.123048583984375,0.006084288349747657,-0.23090967343226074,0.030632600281387565
1782811404164119600,0.13311962890625,0.09103928431868552,-0.26020503376051785,0.00598155862763524
1782811404174191400,0.14319140625,0.13820494011938572,-0.3007918956927955,0.013261194241791964
1782811404184262400,0.153262451171875,0.15036767159998415,-0.28984109728522595,0.03859904911592602
1782811404194333400,0.16333349609375,0.16547463983893393,-0.25379187878258525,0.07597863943949341
1782811404204405500,0.173405517578125,0.1968073512136936,-0.20831066893748937,0.11450608462393283
1782811404214476300,0.183476318359375,0.10796470015645027,-0.19510018196962772,0.07818769379109143
1782811404224547300,0.19354736328125,0.011926000115275382,-0.1847691228955984,0.04653948672637343
1782811404234619400,0.203619384765625,-0.0862350989073515,-0.14561901576817035,0.0148019939430058
1782811404244690400,0.2136904296875,-0.20294015488028525,-0.0955749549869448,0.034497020624578
1782811404254761500,0.223761474609375,-0.17625439252853392,-0.057601709619164464,0.05018661105707287
1782811404264833500,0.23383349609375,-0.040164252606034276,-0.015556173311173914,0.07519698754251003
1782811404274904600,0.243904541015625,0.09936813672482966,-0.04447195973731577,0.08892375346943736
1782811404284976400,0.253976318359375,0.2425654783040285,-0.10456000627949834,0.06163871005028486
1782811404295047400,0.26404736328125,0.32418811497986316,-0.19809015756584702,0.03341828547716141
1782811404305118500,0.274118408203125,0.32771219745278357,-0.26341807752288876,-0.009862930105626583
1782811404315190500,0.2841904296875,0.30722938139438627,-0.26600093362294136,-0.022426351341605186
1782811404325261300,0.29426123046875,0.27310499347448347,-0.2770521967303008,0.009268179082870483
1782811404335332400,0.304332275390625,0.23276830691099165,-0.2616333860632032,0.03519742397889495
1782811404345404400,0.314404296875,0.1585614994496107,-0.27041129741109904,0.024980273608118293
1782811404355475500,0.324475341796875,0.07879764238297939,-0.26168694288134575,0.009145575616508722
1782811404365547500,0.334547607421875,0.009781389302015305,-0.2807126189339906,-0.0029893910743296146
1782811404375618600,0.34461865234375,-0.12455518495142459,-0.33021395114064217,-0.03208352974206209
1782811404385689600,0.354689697265625,-0.3425783426731825,-0.34103951573334634,-0.07478197700083256
1782811404395761400,0.364761474609375,-0.5082990662276744,-0.3059941405110061,-0.12954583284556864
1782811404405832400,0.37483251953125,-0.474664507651329,-0.26167824811823664,-0.13286241004765034
1782811404415903500,0.384903564453125,-0.2980582329452038,-0.2531353145699948,-0.104865565097332
1782811404425975600,0.3949755859375,-0.14835048655867575,-0.25530527902022004,-0.09151756935492157
1782811404436046300,0.40504638671875,-0.01338438223004341,-0.28024872774928805,-0.09027341451272368
1782811404446118400,0.415118408203125,0.09169336431324482,-0.2877383528523147,-0.09777809105440974
1782811404456189400,0.425189453125,0.22700082942545413,-0.293231616506353,-0.06465966530665755
1782811404466260500,0.435260498046875,0.3200771725296974,-0.30131884217634797,-0.03447480879276991
1782811404476332500,0.44533251953125,0.4044774572253227,-0.30834713337793945,-0.028967005156725643
1782811404486403600,0.455403564453125,0.46235096952319144,-0.320563275546208,-0.05217866165712475
1782811404496474600,0.465474609375,0.45240708313584327,-0.2989988747961819,-0.04608838195800781
1782811404506546400,0.47554638671875,0.3201215961933136,-0.2547209763262421,-0.053734074405580756
1782811404516617500,0.485617431640625,0.19643208816051483,-0.1652043715301901,-0.06564356177747249
1782811404526689500,0.495689453125,0.16204524991214275,-0.15004976475723086,-0.00223623461946845
1782811404536760600,0.505760498046875,0.09009645051062107,-0.16479031083658335,-0.025252076286822557
1782811404546831400,0.515831298828125,-0.02377718142867088,-0.15352014428153632,-0.06747735307589173
1782811404556903400,0.5259033203125,-0.02626081493794918,-0.19114435701593754,-0.11451470632180571
1782811404566974500,0.535974365234375,0.09647007719576359,-0.22531609120890497,-0.12128025493398308
1782811404577045500,0.54604541015625,0.17290800471007822,-0.2700887143932283,-0.11664192760884762
1782811404587117300,0.556117431640625,0.23638942001760005,-0.3177102242026478,-0.12405015803873538
1782811404597188400,0.566188232421875,0.20811375812590122,-0.3197969673488289,-0.11141615578457713
1782811404607259400,0.57625927734375,0.18826982449293136,-0.3155723353911191,-0.09850275206714867
1782811404617331500,0.58633154296875,0.17966566227674483,-0.2838013787295669,-0.08373276069760321
1782811404627402500,0.596402587890625,0.11509060651361942,-0.24432664275765417,-0.058105129096657035
1782811404637474600,0.606474609375,0.06396598395407199,-0.2502759065508842,-0.05727013957723975
1782811404647545600,0.616545654296875,0.109453477409482,-0.27573234630338844,-0.0603819879874587
1782811404657616400,0.626616455078125,0.1579296312868595,-0.30136962251551447,-0.06692322632446884
1782811404667688400,0.6366884765625,0.10680208611786365,-0.32001009864285584,-0.11571326845660805
1782811404677759500,0.646759521484375,0.09372048622667789,-0.3562780744627118,-0.15518252453580497
1782811404687830500,0.65683056640625,0.12017185530066489,-0.412915176833421,-0.16672785477042198
1782811404697902300,0.66690234375,0.1360661745250225,-0.4420169142857194,-0.15476429912373424
1782811404707973400,0.676973388671875,0.07597907783091068,-0.47002566886954006,-0.21472309326305986
1782811404718045400,0.68704541015625,-0.018881810602545738,-0.4959484109595418,-0.26382541621476413
1782811404728116500,0.697116455078125,-0.02870587000250816,-0.5191523956101387,-0.2602032801948488
1782811404738187500,0.7071875,-0.02011164465844631,-0.5369307019501924,-0.2498664489671588
1782811404748259600,0.717259521484375,-0.05189619145393371,-0.4934418349660933,-0.22495208020210264
1782811404758330400,0.727330322265625,-0.07395487852692603,-0.45134376475326715,-0.2134860988140106
1782811404768401400,0.7374013671875,-0.013901684102416038,-0.39702955237217247,-0.13468787190914153
1782811404778473500,0.747473388671875,0.06540449232459068,-0.3644094315353781,-0.07455825124755501
1782811404788544500,0.75754443359375,0.031101240706443784,-0.35361243545003235,-0.033805385098606346
1782811404798616300,0.7676162109375,-0.04964110600352287,-0.3679138594597578,-0.07275982352346182
1782811404808687400,0.777687255859375,-0.12780804926753042,-0.42705490747541186,-0.12067381347343326
1782811404818758400,0.78775830078125,-0.16447744549512863,-0.46208574271574615,-0.167031806153059
1782811404828830500,0.79783056640625,-0.10755261222422122,-0.49775472972914575,-0.13093041907176375
1782811404838901500,0.807901611328125,0.029257658666372297,-0.5396502631071954,-0.02401961188241839
1782811404848972500,0.81797265625,0.17261515924334525,-0.5611226016595959,0.08077668737098574
1782811404859044600,0.828044677734375,0.328311916911602,-0.5548761815506965,0.16271628104150293
1782811404869115400,0.838115478515625,0.3765922559559345,-0.532601513639465,0.217251734957844
1782811404879186400,0.8481865234375,0.28781156421899795,-0.49853470112569626,0.30622005822136994
1782811404889258500,0.858258544921875,0.1466015970647335,-0.46711190031468863,0.3743012224093079
1782811404899329500,0.86832958984375,-0.031014146944880482,-0.47174314031191167,0.36587417032569647
1782811404909401300,0.8784013671875,-0.21088263831734655,-0.48867630106471477,0.3512371576860547
1782811404919472400,0.888472412109375,-0.2770084306538105,-0.4916427496548742,0.3568864156194031
1782811404929543400,0.89854345703125,-0.15141455030441284,-0.5132573462221771,0.37213834528699513
1782811404939615500,0.908615478515625,0.13725041587352751,-0.5614989606913179,0.4509370836485177
1782811404949686500,0.9186865234375,0.48130642988383765,-0.6328199835833161,0.5119475787978619
1782811404959757600,0.928757568359375,0.8285439965397119,-0.7460386587452142,0.5669331876344978
1782811404969829600,0.93882958984375,1.0112842439562082,-0.9147817988608032,0.578756531092897
1782811404979900400,0.948900390625,1.1273276211500167,-1.007402945543453,0.6384224797654897
1782811404989972500,0.958972412109375,1.0742822596609591,-1.0406324304502457,0.769195077927038
1782811405000043500,0.96904345703125,0.8744441624492406,-1.0315925071652978,0.8992999328948557
1782811405010114300,0.9791142578125,0.6379015976965428,-0.9963364848669618,1.0058383265752344
1782811405020186400,0.989186279296875,0.2667249370485544,-0.9828294261053204,0.9987501949451864
1782811405030257400,0.99925732421875,-0.16207973670363426,-0.9419735379733145,0.9311983153283595
1782811405040328400,1.009328369140625,-0.5255132358789444,-0.878314793337509,0.8664479029983282
1782811405050400500,1.019400390625,-0.8134867126613855,-0.8418484454013406,0.7810390257820486
1782811405060471600,1.029471435546875,-0.9668442137271165,-0.799771710237488,0.7512807241171598
1782811405070543600,1.039543701171875,-0.9864648599982261,-0.792710612744838,0.7383946467980742
1782811405080614700,1.04961474609375,-0.9169061706036329,-0.8131364379189908,0.7079349188655615
1782811405090685400,1.059685546875,-0.7476993584990501,-0.8021714648555964,0.6816805336683989
1782811405100757200,1.06975732421875,-0.5219383000016212,-0.839811751941964,0.6482539187543094
1782811405110828300,1.079828369140625,-0.33948622187674043,-0.8799752008303999,0.6036290334776043
1782811405120899300,1.0898994140625,-0.1984369982421398,-0.9247361335769295,0.5740494493804872
1782811405130971400,1.099971435546875,-0.05187573318779468,-0.9642898530691861,0.5276961328759789
1782811405141042400,1.11004248046875,0.06526888324618339,-0.9602696576423942,0.5024507785908877
1782811405151113500,1.120113525390625,0.1553285088777542,-0.9038512395236641,0.5075508782088757
1782811405161185500,1.130185546875,0.20518530345857142,-0.8275044974241406,0.5682099295720457
1782811405171256600,1.140256591796875,0.22825112174749373,-0.7992990512244403,0.6067628014586866
1782811405181329000,1.150328857421875,0.18258944076895714,-0.7717199932947755,0.5956333585485816
1782811405191399700,1.160399658203125,0.08721592663824558,-0.7369801768902688,0.5977477203540503
1782811405201470700,1.170470703125,0.10893559101521968,-0.747091455733776,0.5985884089618921
1782811405211542500,1.18054248046875,0.1704220331132412,-0.7651479944933205,0.6293642171062529
1782811405221613600,1.190613525390625,0.14748305607438086,-0.7898015934303403,0.6002426059097051
1782811405231684600,1.2006845703125,0.13372867148816583,-0.8810080510094761,0.564122221866995
1782811405241756700,1.210756591796875,0.1931564274907112,-0.9911673386007547,0.5808011155977845
1782811405251827700,1.22082763671875,0.2794868034660816,-1.1060882876358926,0.5574044579192996
1782811405261898800,1.230898681640625,0.3704711427271366,-1.2253646554015576,0.5612113028563559
1782811405271970800,1.240970703125,0.45394612927138805,-1.3292293728932738,0.6159438867799938
1782811405282041600,1.25104150390625,0.5326508326739072,-1.398697607525438,0.6159861184865236
1782811405292113700,1.26111376953125,0.49771571289300914,-1.402607328315079,0.6149892164036631
1782811405302184700,1.271184814453125,0.3918640593677759,-1.3681710979670285,0.6579476297728717
1782811405312255700,1.281255859375,0.2717489026904106,-1.2773122847817837,0.7294843412421643
1782811405322327600,1.29132763671875,0.23770927044451234,-1.2006626142129302,0.8066551130756735
1782811405332398600,1.301398681640625,0.20865151826441286,-1.1866650685206055,0.8485552495636045
1782811405342469600,1.3114697265625,0.12421207060217856,-1.1459528997082262,0.860986568852514
1782811405352541700,1.321541748046875,0.031224574825167654,-1.0819459992218763,0.8677382350698113
1782811405362612700,1.33161279296875,-0.08206804235577583,-0.9930086556185036,0.9062868691727518
1782811405372684800,1.341684814453125,-0.27996026619672776,-0.8999836773753166,0.8835606581017375
1782811405382755800,1.351755859375,-0.47989539404213427,-0.7885697135478258,0.8656129134789109
1782811405392826600,1.36182666015625,-0.5450117170751094,-0.7093431782282889,0.8196072413682937
1782811405402898400,1.3718984375,-0.42133331495821474,-0.6770303697749972,0.7787349866233766
1782811405412969500,1.381969482421875,-0.23399580287933347,-0.6438949928924441,0.7307151982113719
1782811405423040500,1.39204052734375,-0.10939619426429271,-0.5966599251173437,0.644375323755294
1782811405433112600,1.402112548828125,-0.05540566087961197,-0.5652394989265128,0.5156399305097759
1782811405443183600,1.41218359375,0.029234277790784833,-0.5735549438618123,0.34888562612384555
1782811405453254700,1.422254638671875,0.04576455683112144,-0.5992698153547942,0.19797347238361834
1782811405463326700,1.43232666015625,-0.04304243839085102,-0.6884915288574993,0.09129574329778552
1782811405473397800,1.442397705078125,-0.29910394260585305,-0.7325241473294795,-0.014495704472810029
1782811405483469800,1.4524697265625,-0.6786380972325802,-0.7219234044685959,-0.11981325112134218
1782811405493540900,1.462540771484375,-1.088415414431691,-0.7094122979417443,-0.22875731770396232
1782811405503611600,1.472611572265625,-1.4283289218097925,-0.6117955714615062,-0.33880086996108294
1782811405513683500,1.482683349609375,-1.5913094067454336,-0.4537415831426158,-0.44443011290729045
1782811405523754500,1.49275439453125,-1.5708306823402642,-0.33845384662169964,-0.5330250728137791
1782811405533825500,1.502825439453125,-1.3944856889188288,-0.3035820744005963,-0.5978538110770285
1782811405543897600,1.512897705078125,-1.128815229359269,-0.3407720969688147,-0.6343450742587446
1782811405553968600,1.52296875,-0.9446025713026523,-0.44124242278188464,-0.6997678328923881
1782811405564040700,1.533040771484375,-0.7884598234325647,-0.5699403335612266,-0.7753311695292592
1782811405574111700,1.54311181640625,-0.6797399209946393,-0.6582600567229092,-0.803580527935922
1782811405584182800,1.553182861328125,-0.672832625824213,-0.6771539230894297,-0.7840574968203902
1782811405594254800,1.5632548828125,-0.8451134385466575,-0.6132222797963768,-0.7575264866389334
1782811405604326000,1.573325927734375,-1.1795289330303669,-0.47551403715275226,-0.7280335579119622
1782811405614396700,1.583396728515625,-1.5711796419084072,-0.3757487543364987,-0.7405581084422767
1782811405624468500,1.593468505859375,-1.8219827872037886,-0.28428707988727836,-0.7470749429903925
1782811405634539500,1.60353955078125,-1.9005898754507302,-0.21503601340344175,-0.7574592666216194
1782811405644611600,1.613611572265625,-1.757024285081029,-0.22319787521222606,-0.8058299142979085
1782811405654682600,1.6236826171875,-1.3641525099754332,-0.24912014237819238,-0.8374377893522381
1782811405664753700,1.633753662109375,-0.8485778997868298,-0.2945580976034514,-0.7790043050840496
1782811405674825700,1.64382568359375,-0.3282692468136549,-0.31313761905748394,-0.756063136088103
1782811405684896800,1.653896728515625,0.16982698982954025,-0.3549584797641262,-0.8099684754073619
1782811405694967800,1.6639677734375,0.6689531540423631,-0.35667222487945105,-0.8864261305354535
1782811405705039600,1.67403955078125,1.1240665735274553,-0.35930933191739023,-0.868573370719701
1782811405715110700,1.684110595703125,1.5079899030238388,-0.3481525626089424,-0.7784390724167227
1782811405725181700,1.694181640625,1.7473925333827733,-0.3538120131427422,-0.6606171412430704
1782811405735253500,1.70425341796875,1.8522838174432514,-0.32779695312678814,-0.5280135282620787
1782811405745324500,1.714324462890625,1.7539081988871097,-0.2998823430998251,-0.40112800066694615
1782811405755396600,1.724396728515625,1.4814999555051327,-0.22624668658990413,-0.30017843996956944
1782811405765467600,1.734467529296875,1.2061176647484302,-0.16415084388926623,-0.21486600886508822
1782811405775538700,1.74453857421875,0.8578466633915901,-0.10437288620956242,-0.13285437287166713
1782811405785610800,1.75461083984375,0.5157084657013415,-0.08092069895155728,-0.13651377216205
1782811405795681800,1.764681884765625,0.24943770216107367,-0.08435239043328911,-0.1306736678317189
1782811405805752800,1.7747529296875,0.1048129581272602,-0.1110048715699464,-0.13655746517330408
1782811405815824600,1.78482470703125,0.0728501321554184,-0.19624726964551956,-0.18171981832757592
1782811405825895700,1.794895751953125,0.11441489920914172,-0.28540896005667743,-0.24295345470830798
1782811405835967700,1.8049677734375,0.26058453459739683,-0.39009500386863943,-0.2526452660307288
1782811405846038500,1.81503857421875,0.4362269327074289,-0.45691922679804264,-0.22739318974390624
1782811405856109600,1.825109619140625,0.6826490864396095,-0.477628727751784,-0.16578326739668844
1782811405866181600,1.835181640625,0.9480033196568488,-0.5085762026686221,-0.07325988200008869
1782811405876252700,1.845252685546875,1.156518059799075,-0.5545400083988905,-0.03143573335781693
1782811405886323700,1.85532373046875,1.2785831815004347,-0.6016412571938708,-0.05520502374097704
1782811405896395800,1.865395751953125,1.3714292229801415,-0.6237639128811657,-0.042780280323326585
1782811405906466800,1.875466796875,1.5374825394898652,-0.6264671074252576,0.019636939818784595
1782811405916537900,1.885537841796875,1.7190239325106142,-0.6685957189068198,0.0945125133872032
1782811405926609700,1.895609619140625,1.7359639613956213,-0.7548376128811389,0.1226825229473412
1782811405936680400,1.905680419921875,1.6809066755622624,-0.841367530016601,0.09877484700679778
1782811405946752500,1.91575244140625,1.6104565902858972,-0.9288372122202068,0.04272818480990827
1782811405956823600,1.925823486328125,1.5372019689828156,-1.0110417404372245,0.03722929513268172
1782811405966894600,1.93589453125,1.50379186681211,-1.0958990481853486,0.03987418361827731
1782811405976966700,1.945966552734375,1.453061796528101,-1.214247852777317,0.0656692807406187
1782811405987037700,1.95603759765625,1.339133804053068,-1.3430734815895558,0.0928752675741911
1782811405997108700,1.966108642578125,1.1064233648091555,-1.4928380727298556,0.05327478633075952
1782811406007180800,1.976180908203125,0.7899304805070161,-1.6177525925129652,-0.025967969471216202
1782811406017251800,1.986251953125,0.4189905512243509,-1.7284809121638536,-0.09168167387545108
1782811406027323000,1.996322998046875,-0.07395078687369823,-1.778317686869949,-0.12676292412877083
1782811406037394700,2.006394775390625,-0.5701631094664334,-1.785722848559916,-0.1033830714546144
1782811406047465500,2.016465576171875,-0.9694523503988981,-1.7283175382956861,-0.08760477982535958
1782811406057537500,2.02653759765625,-1.2393161699950694,-1.60912738750875,-0.05661912832260132
1782811406067608600,2.036608642578125,-1.3686030596435068,-1.4767283571891485,0.019194822074472904
1782811406077679600,2.0466796875,-1.4382652094125747,-1.3781310587063431,0.07363543731421232
1782811406087751700,2.056751708984375,-1.5528607258856295,-1.2655953973725438,0.11529869630634784
1782811406097822700,2.06682275390625,-1.6859329792916773,-1.1789915382180363,0.1435582838460803
1782811406107893800,2.076893798828125,-1.7924673543840646,-1.1724486193805932,0.13052052309662102
1782811406117965800,2.0869658203125,-1.6817004562884568,-1.1782980760611592,0.02649959212988615
1782811406128036900,2.097036865234375,-1.2283259894251823,-1.1352367868393658,-0.07284837858974934
1782811406138108700,2.107108642578125,-0.6181102710336447,-1.1680709888182579,0.05104030527696013
1782811406148179700,2.1171796875,-0.17314590511918068,-1.24388420856297,0.2909545384198427
1782811406158250500,2.12725048828125,-0.05775485435426235,-1.22325971901156,0.45570700146406884
1782811406168322600,2.137322509765625,-0.2802887674987316,-1.1835793043997138,0.42844606957286596
1782811406178393000,2.14739306640625,-0.6703162590891122,-1.1370461012836546,0.3410129930526018
1782811406188463900,2.1574638671875,-1.0807815585523843,-0.995444139137119,0.27694150289744135
1782811406198536200,2.1675361328125,-1.484348915195465,-0.856836755696684,0.21882760597243903
1782811406208607000,2.17760693359375,-1.892188542330265,-0.6665463851615786,0.1912621381767094
1782811406218679000,2.187678955078125,-2.1961703201055527,-0.4225937633480876,0.24009645784199238
1782811406228750000,2.19775,-2.331722115367651,-0.14814605002775788,0.38221608718708155
1782811406238821000,2.207821044921875,-2.363945638102293,0.1371186792526394,0.553380901491642
1782811406248893000,2.217892822265625,-2.228786057028174,0.26310755026899274,0.7033727255165576
1782811406258964000,2.2279638671875,-1.970108232834935,0.3200001617707312,0.7912139444462954
1782811406269035000,2.238034912109375,-1.581262059983611,0.39189467370174824,0.8576748139560222
1782811406279107000,2.248107177734375,-0.9535948560535907,0.5205044678062201,0.8716194604173302
1782811406289178000,2.25817822265625,-0.16270283703804014,0.6023027533099055,0.9238387463457882
1782811406299249000,2.268248779296875,0.6346826356500387,0.6448394341357052,1.0013448876135052
1782811406309321000,2.278321044921875,1.298769644960761,0.6410562623351812,1.080857692528516
1782811406319392000,2.28839208984375,1.7467746937453745,0.5955158696487546,1.137021332168579
1782811406329464000,2.298464111328125,2.0562316880613563,0.5710149039901793,1.1672726780474185
1782811406339535000,2.30853515625,2.307487837821245,0.4991295252136886,1.1100418475672602
1782811406349606100,2.318606201171875,2.4976526822805405,0.372931249230355,1.037329662577808
1782811406359678000,2.328677978515625,2.5490064374208448,0.24560966830551623,0.9655290394753218
1782811406369749000,2.3387490234375,2.3071119902461765,0.14141776468604803,0.9014452743604778
1782811406379820000,2.348820068359375,1.740142123863101,0.11592311181500553,0.8041139041602611
1782811406389892000,2.35889208984375,1.0860095223337412,0.1269531860038638,0.6575334960140288
1782811406399963100,2.368963134765625,0.41814182544052597,0.12622574851214885,0.48004605455920096
1782811406410035200,2.37903515625,-0.22344518277049064,0.18588614422678945,0.4181966243676841
1782811406420106000,2.38910595703125,-0.6740823336243629,0.2692097396016121,0.39190702172666786
1782811406430177000,2.399177001953125,-0.8951391599535942,0.32759806955382226,0.3734868372865021
1782811406440249000,2.4092490234375,-0.9541355388015508,0.41813137711174786,0.43033992049545045
1782811406450320100,2.419320068359375,-0.8113660672456026,0.5207943906635045,0.5409281010232866
1782811406460391200,2.42939111328125,-0.4325140496641397,0.6252200299736111,0.721912006291747
1782811406470463000,2.439462890625,0.024640520259737966,0.7031489266980439,0.9207181301072239
1782811406480534000,2.449533935546875,0.40768706692159173,0.8024355226192623,1.0491901962414383
1782811406490605000,2.45960498046875,0.6837742910772562,0.8801114674959332,1.0939895613022148
1782811406500677000,2.469677001953125,0.9051379913985729,0.9649842650741338,1.1041361306548119
1782811406510748200,2.479748046875,1.158189207881689,1.0394811415232716,1.090440344388038
1782811406520820200,2.4898203125,1.4084031551122664,1.0515163011014461,1.091698089364171
1782811406530891000,2.49989111328125,1.5987714131891726,0.9687253512986004,1.1301542228780685
1782811406540962000,2.509962158203125,1.7713240285903213,0.9187401080325245,1.1270375521622598
1782811406551033900,2.520033935546875,1.919171241801977,0.8461538875102996,1.1268915678203106
1782811406561105000,2.53010498046875,1.8917039736837147,0.7985295281566679,1.0894343822158872
1782811406571176000,2.540176025390625,1.7242004583656787,0.7619717756099998,1.0431269506797194
1782811406581248000,2.550248046875,1.4448802436381578,0.7637073672309518,1.0271255178190768
1782811406591319000,2.560319091796875,1.1577554926395415,0.7959921186335385,1.0082223721675574
1782811406601391000,2.57039111328125,0.9699509475708007,0.7800262685429304,1.0329235365733505
1782811406611462100,2.580462158203125,0.8315075225204229,0.6969476609051227,1.0596515306316316
1782811406621533200,2.590533203125,0.6236813491642474,0.6576750233765691,1.0982952956721186
1782811406631605200,2.600605224609375,0.41313773354291916,0.6161582601830363,1.159940727724135
1782811406641676000,2.610676025390625,-0.014756255105137825,0.49775684862099584,1.1019757377505301
1782811406651747000,2.6207470703125,-0.5758744728505611,0.3511872541297227,0.9074956604406237
1782811406661819000,2.63081884765625,-1.1374924568116664,0.16425898043885825,0.6703413935303688
1782811406671890000,2.640889892578125,-1.5817676714181899,0.07859269439540803,0.47299262891635296
1782811406681961000,2.6509609375,-1.737023699581623,0.002846767733246088,0.3300558379694819
1782811406692033000,2.661032958984375,-1.662956592851877,-0.16165822335593402,0.2838167954944074
1782811406702104000,2.67110400390625,-1.4862100328922272,-0.33915684379190203,0.1758504879027605
1782811406712176000,2.681176025390625,-1.4574562320947646,-0.4928606740772724,0.06158522629737854
1782811406722247200,2.6912470703125,-1.4875462499320506,-0.5771398896764963,-0.18408172515332696
1782811406732318000,2.70131787109375,-1.4628952082782982,-0.6455540852110833,-0.5068297243274748
1782811406742390300,2.711390380859375,-1.4797072268694638,-0.7782907499872147,-0.7683562159501016
1782811406752461000,2.7214609375,-1.5502461594730614,-1.0299391870003194,-0.8082407748319208
1782811406762532000,2.731531982421875,-1.7605851924329996,-1.2104646079115569,-0.7625969217710197
1782811406772604000,2.74160400390625,-2.222279743874073,-1.1141684259779752,-0.6605312165252863
1782811406782675000,2.751675048828125,-2.7081951288580894,-0.7206405981164425,-0.5313039481095969
1782811406792747000,2.7617470703125,-2.875975123029947,-0.22169081338383256,-0.36878026703074573
1782811406802818000,2.771818115234375,-2.6823276971518992,0.21061580407470462,-0.21947321039959786
1782811406812889000,2.78188916015625,-2.26497497626245,0.5203049997113645,-0.20451222650259732
1782811406822961200,2.791961181640625,-1.764512010487914,0.6197006089650094,-0.28433219767063855
1782811406833032200,2.8020322265625,-1.2790993143290281,0.46138694679662584,-0.4538397462874651
1782811406843103000,2.81210302734375,-0.8255968371719121,0.16855908878557382,-0.6181307292997836
1782811406853175000,2.822175048828125,-0.40541795294582844,-0.16847674426436424,-0.7875316026717424
1782811406863246000,2.83224609375,-0.09421440722346305,-0.43762079821862276,-0.9281573401972651
1782811406873317000,2.842317138671875,0.17366963673233984,-0.5659625890366733,-1.0274072573699056
1782811406883389000,2.852388916015625,0.37471301808059215,-0.5519962422002107,-1.099847055158764
1782811406893460000,2.8624599609375,0.4709527936518192,-0.4466908974461257,-1.1507710405796765
1782811406903532000,2.872531982421875,0.4406482562810182,-0.27401947797089815,-1.1790610232576728
1782811406913603000,2.88260302734375,0.43734453856050964,-0.022507307623326776,-1.2192683843530714
1782811406923674000,2.892674072265625,0.5375993949919938,0.15758702839426694,-1.1808585741989315
1782811406933746200,2.90274609375,0.7000017877787351,0.23480353906564413,-1.096929268015921
1782811406943817200,2.912817138671875,0.8470189799070358,0.2427341859344393,-1.0708737663917243
1782811406953888000,2.922887939453125,0.9240969588905572,0.21774887082502245,-1.0782970482602714
1782811406963959800,2.932959716796875,0.9676800800293683,0.18417144926339388,-1.0960001704722642
1782811406974030800,2.94303076171875,1.0731547169357538,0.19262772744148968,-1.1020734990365804
1782811406984103000,2.95310302734375,1.1470792003244161,0.2702152633823454,-0.9841454771399497
1782811406994174000,2.963174072265625,1.0794628771692514,0.3456589191623032,-0.8331938681721687
1782811407004245000,2.973244873046875,0.9534785361975431,0.4608453872658312,-0.7356827574908733
1782811407014317000,2.983317138671875,0.8303115907341241,0.551836229332909,-0.7077698644969612
1782811407024388000,2.99338818359375,0.651556613561511,0.543062117377296,-0.643601416773349
1782811407034459100,3.003459228515625,0.45640696642696854,0.5187038481250404,-0.5553150844246149
1782811407044531200,3.01353125,0.398939696842432,0.5382222030654549,-0.48419433334507045
1782811407054602200,3.023602294921875,0.5414069705814123,0.5622335585761815,-0.40445524539351463
1782811407064674000,3.033674072265625,0.7400134801715612,0.6066274846412241,-0.30256014747433363
1782811407074744800,3.043744873046875,0.9787216985255479,0.6454314817447215,-0.18340733302310108
1782811407084816000,3.05381591796875,1.1130091729402543,0.6385235289871692,-0.1390487705323845
1782811407094888000,3.063887939453125,1.1953320668399334,0.6226116741061211,-0.13831417264752088
1782811407104959000,3.073958984375,1.2907879985570907,0.5529439713791012,-0.1721760371737182
1782811407115030000,3.084030029296875,1.3194699031621218,0.4707793367810547,-0.2187592169113457
1782811407125102000,3.09410205078125,1.2831839532941578,0.36315702032148833,-0.2710475494880229
1782811407135173000,3.104173095703125,1.1199597227305174,0.24521730798706412,-0.32103337727598846
1782811407145244200,3.114244140625,0.894080006289482,0.16886413614675402,-0.41253487227894364
1782811407155316200,3.124316162109375,0.8284124791145324,0.13566636155247688,-0.5025485398769378
1782811407165387300,3.13438720703125,1.0328542707294226,0.008541179982572793,-0.46364802359640594
1782811407175459000,3.144458984375,1.2445569932579994,-0.16080577124506235,-0.3983523984737694
1782811407185530600,3.154530517578125,1.5775632054656743,-0.38106574810817834,-0.4198888152383268
1782811407195601700,3.1646015625,1.9694827944129705,-0.7144784952901303,-0.48469453795216977
1782811407205673700,3.174673828125,2.231869409996271,-1.1129594885796308,-0.5523273738507181
1782811407215744800,3.184744873046875,2.260253208437562,-1.4119582172453402,-0.5897215772215276
1782811407225815800,3.19481591796875,2.0666759251862765,-1.6089299652405082,-0.6172035314522684
1782811407235887900,3.204887939453125,1.7374930706590412,-1.721516041587293,-0.6029124827060848
1782811407245958700,3.214958740234375,1.2101508657872677,-1.7860175937227905,-0.6180181357707828
1782811407256030500,3.225030517578125,0.6620405981749296,-1.839769642176479,-0.6363895856983959
1782811407266101500,3.2351015625,0.192006088411808,-1.9160241759479044,-0.5895385488048196
1782811407276172500,3.245172607421875,-0.27694939394295215,-1.9798656567394732,-0.518677690770477
1782811407286244600,3.25524462890625,-0.7253647770941257,-1.9285937346637247,-0.42983226323425766
1782811407296315600,3.265315673828125,-1.1063163973033427,-1.8138158473610877,-0.254910872875154
1782811407306386700,3.27538671875,-1.5114678082674742,-1.7335789659552274,-0.15243147226199508
1782811407316458800,3.285458740234375,-1.862728639090061,-1.6508121276803314,-0.08716448871195316
1782811407326529800,3.29552978515625,-2.10010823918879,-1.5892464828662574,-0.09155804749578236
1782811407336600800,3.305600830078125,-2.2694237723648545,-1.5594645080648362,-0.11631006530597805
1782811407346673000,3.3156728515625,-2.1124334677547214,-1.5273174115672707,-0.22688334052562711
1782811407356743700,3.32574365234375,-1.446754220816493,-1.492953223542124,-0.25256314070522784
1782811407366815500,3.3358154296875,-0.575576366686821,-1.5376048506952822,-0.030048297587409612
1782811407376886500,3.345886474609375,0.0078080434024333945,-1.6117245643950997,0.21797939164526758
1782811407386957600,3.35595751953125,-0.09669278003573417,-1.6659296173132956,0.2022504921156913
1782811407397029600,3.366029541015625,-0.5443979690909385,-1.5344938790678977,0.019572934671863912
1782811407407100700,3.3761005859375,-0.8760323084235191,-1.2532311519704757,0.07144048455320298
1782811407417171700,3.386171630859375,-1.3088035477191209,-0.9370962873257697,0.2948284572437405
1782811407427243800,3.396243896484375,-1.999836431622505,-0.8385835983864962,0.27864984118528663
1782811407437314800,3.406314697265625,-2.872963666254282,-0.6440870083332061,0.05186937651224434
1782811407447386600,3.41638671875,-3.328734088343382,-0.19942673993185162,-0.11708346083126961
1782811407457457700,3.426457763671875,-3.2032068434894083,0.2576444625575095,-0.22616642442792653
1782811407467528700,3.43652880859375,-2.5827245826274154,0.48861675289720297,-0.19429441854469476
1782811407477600500,3.4466005859375,-1.70651750215888,0.43828678784668446,-0.1587682010028511
1782811407487671600,3.456671630859375,-0.8509574883997439,0.24251710911765692,-0.2050817700188607
1782811407497742600,3.46674267578125,-0.1668745697647333,0.05664221693724394,-0.27274916577413677
1782811407507814700,3.476814697265625,0.3548112167805433,0.09897957579866051,-0.2654273715186864
1782811407517885700,3.4868857421875,0.8232529043942689,0.3440893317580223,-0.12732486886046826
1782811407527957800,3.496957763671875,1.3815958122074603,0.6287965002208947,0.18168408942706882
1782811407538028800,3.50702880859375,1.7510235833615064,0.8257998123981058,0.44184141158834095
1782811407548099800,3.517099853515625,1.6960335175454615,0.8363865267336368,0.48211087813451886
1782811407558171600,3.527171630859375,1.3333745098739862,0.8917499559067189,0.4110463142216205
1782811407568242400,3.537242431640625,0.9844523511320352,0.986148779786378,0.34288251325152813
1782811407578313500,3.5473134765625,0.7486848624050617,1.018640159676969,0.3947426835440099
1782811407588385500,3.557385498046875,0.5057604876607656,0.9703001993998884,0.4310004302307963
1782811407598456600,3.56745654296875,0.21620178751349448,0.9011492140233516,0.3234365659601986
1782811407608527600,3.577527587890625,-0.148474989721179,0.8351369650639593,0.18130363874211905
1782811407618599700,3.587599609375,-0.4413707253366709,0.8248851817712187,0.11823548041060566
1782811407628670700,3.597670654296875,-0.5557780257612467,0.8215154130771756,0.13320596278831362
1782811407638742800,3.60774267578125,-0.5039928934663533,0.8017965671285986,0.1642098806001246
1782811407648813800,3.617813720703125,-0.3016565496981144,0.7458202667541801,0.12493950809389352
1782811407658884900,3.627884765625,0.0021785130828619,0.741057290136069,0.0961893605582416
1782811407668956700,3.637956787109375,0.39870121191143987,0.7530125163458288,0.13466960560008884
1782811407679027500,3.64802734375,0.7832897273182868,0.7366185770362615,0.25275910166874527
1782811407689098500,3.658098388671875,1.1925310379445553,0.6965804350279271,0.3588882569611072
1782811407699170600,3.668170654296875,1.5738631819039581,0.6468596879169345,0.41277255349233744
1782811407709241600,3.67824169921875,1.7994956455856561,0.6016906127609312,0.40926352245807646
1782811407719312600,3.688312744140625,1.9165537527799605,0.6074214114978909,0.40127296209558844
1782811407729384700,3.698384765625,1.9982412713855504,0.613226152253896,0.4196710808344185
1782811407739455700,3.708455810546875,2.004649969384074,0.5514519792556762,0.4277954967096448
1782811407749527800,3.71852783203125,1.9297592713117597,0.38842166382893917,0.4247464844025671
1782811407759598800,3.728598876953125,1.8150579563766718,0.24952786466255783,0.38784269489720463
1782811407769670000,3.738669921875,1.7045003171175717,0.16322393830269574,0.4179696837440133
1782811407779741700,3.74874169921875,1.5601158115804195,0.050696752536296845,0.4426876531541347
1782811407789812500,3.7588125,1.4348580313175916,-0.07939414697140455,0.4943079502761364
1782811407799883500,3.768883544921875,1.2879524828702211,-0.19331351774856448,0.47583793534487484
1782811407809955600,3.77895556640625,1.1277069758564233,-0.31313115278407927,0.4518634777784347
1782811407820026600,3.789026611328125,0.9113046973347664,-0.41372810065150256,0.44995048376396296
1782811407830098700,3.7990986328125,0.7021078201472759,-0.45013066263645884,0.40587607197687026
1782811407840169700,3.809169677734375,0.550221560677886,-0.44961219172030686,0.3795503751091659
1782811407850240800,3.81924072265625,0.35221593959033487,-0.38959611443579195,0.3516983454570174
1782811407860312600,3.8293125,0.058286184751987456,-0.34819486738070843,0.2713470438912511
1782811407870383600,3.839383544921875,-0.2615934193789959,-0.33754809342101216,0.23977424015030263
1782811407880454700,3.84945458984375,-0.6025456221550702,-0.36952187917828555,0.1740164043433964
1782811407890526700,3.859526611328125,-0.8530950849503278,-0.41696752096414563,0.07532353653162717
1782811407900597500,3.869597412109375,-1.0897720897376537,-0.4319422411255538,0.02641878197863698
1782811407910669600,3.879669677734375,-1.328389707198739,-0.3947723480299115,-0.008374152852594852
1782811407920740600,3.88974072265625,-1.550094183781743,-0.32299335223734377,0.022971418003737924
1782811407930811600,3.899811767578125,-1.817925620767474,-0.20610709447860717,0.018593787441402672
1782811407940883700,3.9098837890625,-2.151120633545518,-0.05724909678921103,-0.03312923940271139
1782811407950954800,3.919954833984375,-2.4097230544149872,0.09995938061624765,-0.12698299662023782
1782811407961025800,3.93002587890625,-2.277047106850147,0.12090206927135586,-0.44479763104543085
1782811407971097600,3.94009765625,-1.67074710059762,-0.01746770602092147,-0.8227665821820497
1782811407981168600,3.950168701171875,-0.9136971454292535,-0.37211262632384895,-0.8988352379925548
1782811407991240700,3.96024072265625,-0.4742985969483852,-0.7663315782546997,-0.7618639313213527
1782811408001311700,3.970311767578125,-0.5799135191082954,-0.9872582023330032,-0.6459060404539108
1782811408011382500,3.980382568359375,-1.1419412529140711,-0.851396610469371,-0.5427275516606866
1782811408021454600,3.99045458984375,-1.7393039194732904,-0.4772175531350076,-0.39223376946300265
1782811408031525600,4.000525634765625,-2.1731308053016662,-0.11200886098071933,-0.20381386897489429
1782811408041596700,4.0105966796875,-2.480205872917175,0.28426263956576586,-0.07465805836021899
1782811408051668700,4.020668701171875,-2.514117494869232,0.6432949081074446,-0.06958689257577061
1782811408061739800,4.03073974609375,-2.1899977689504624,0.8212043013013899,-0.043419308879226445
1782811408071810800,4.040810791015625,-1.624369964826107,0.7775304331392049,-0.024255904856324194
1782811408081882600,4.050882568359375,-1.0020283398330212,0.5710547976091503,-0.04631050027608871
1782811408091953700,4.06095361328125,-0.5265560229301453,0.36829306803569195,-0.2194073055565357
1782811408102025700,4.071025634765625,-0.22576222754120825,0.20017244373261928,-0.4334105601124465
1782811408112096800,4.0810966796875,-0.0064805941909551615,0.1420556241981685,-0.5727927273176611
1782811408122167600,4.09116748046875,0.21749767254292965,0.1283390874043107,-0.6149937464483082
1782811408132239600,4.101239501953125,0.3443126191198826,0.1714347172871232,-0.6187083830572664
1782811408142310700,4.111310546875,0.3419529042512178,0.30276889485418795,-0.6565485766299068
1782811408152381700,4.121381591796875,0.2977390839934349,0.441992510496825,-0.6771814686834812
1782811408162453800,4.131453857421875,0.26118425405621526,0.5352177605524658,-0.6065493048384786
1782811408172524800,4.14152490234375,0.2634703191667795,0.613397709428519,-0.5185217695564032
1782811408182596000,4.15159619140625,0.24236381825208664,0.6769061588734387,-0.42228798533454537
1782811408192667100,4.161667236328125,0.17843173656761646,0.6819578893050551,-0.35077918478548525
1782811408202738200,4.17173828125,0.16860417003631592,0.6573100625216961,-0.3308392434321344
1782811408212810200,4.181810302734375,0.16980127086639404,0.5785583051070571,-0.2876667489208281
1782811408222881000,4.191881103515625,0.17156594245135784,0.5312254760459065,-0.23872005492225287
1782811408232952000,4.2019521484375,0.14323942715525625,0.48903380926549433,-0.19178674657270312
1782811408243024100,4.212024169921875,0.1320627841025591,0.46503129464834925,-0.1831469285212457
1782811408253095200,4.22209521484375,0.12511749500930308,0.41662995957285165,-0.21783815654367208
1782811408263166200,4.232166259765625,0.19381109200716018,0.36081045719534155,-0.22399565626010298
1782811408273238300,4.24223828125,0.3728443015992641,0.29777444756776095,-0.23205139081329107
1782811408283309300,4.252309326171875,0.670092971727252,0.20148659507110714,-0.22246552408337592
1782811408293381000,4.262381103515625,1.0206465310633182,0.09873831438869238,-0.19791355888992546
1782811408303452200,4.2724521484375,1.366180216410756,0.0037242812201380726,-0.15966624582111835
1782811408313523000,4.28252294921875,1.7596955501168965,-0.10613865377306937,-0.10720979013592004
1782811408323595300,4.29259521484375,2.111028277131915,-0.1961234606027603,-0.03570391219630837
1782811408333666000,4.302666015625,2.336975798112154,-0.31793080815076824,0.018261779008060693
1782811408343737000,4.312737060546875,2.4357564903378486,-0.4174859918802976,0.03842632289752364
1782811408353809200,4.32280908203125,2.4632389560252426,-0.5212881655298173,0.02018544054701924
1782811408363880200,4.332880126953125,2.445554246252775,-0.704989951454848,-0.03835062731280923
1782811408373952300,4.3429521484375,2.408050737288594,-0.8880369267329573,-0.16716580779626963
1782811408384023300,4.353023193359375,2.3207062158346177,-1.073954342880845,-0.2446475452750921
1782811408394094300,4.36309423828125,2.1864333544671535,-1.2295793504871426,-0.3191084736280143
1782811408404166100,4.373166259765625,1.9555103831619023,-1.3792007337644696,-0.4593538335338235
1782811408414237200,4.3832373046875,1.614668070501089,-1.4732630191661416,-0.6183366271354258
1782811408424308000,4.393307861328125,1.1636620863348246,-1.5509104686006903,-0.7453855285987258
1782811408434380000,4.403380126953125,0.6933341465830802,-1.5740812085688114,-0.8313326043449342
1782811408444451000,4.413451171875,0.27901275621354577,-1.495084682612866,-0.8659962137080729
1782811408454522000,4.423522216796875,-0.05152852718532085,-1.2969377533584832,-0.7781085252881049
1782811408464594200,4.43359423828125,-0.2042407160848379,-1.1260706068262458,-0.6837529560282826
1782811408474665200,4.443665283203125,-0.27720249192118646,-1.0623173888400197,-0.5620655815981328
1782811408484737300,4.4537373046875,-0.3530471297174692,-0.9952151526868342,-0.4038080335311591
1782811408494808300,4.463808349609375,-0.418024336540699,-0.9037196490332484,-0.2891220622956753
1782811408504879400,4.47387939453125,-0.5109580563038587,-0.7562916841469705,-0.1961249219074845
1782811408514951200,4.483951171875,-0.5585416452556848,-0.620890257140994,-0.05334843608886003
1782811408525022200,4.494022216796875,-0.626414573520422,-0.5197115638628602,0.11107581791430711
1782811408535093000,4.504093017578125,-0.7693664159059524,-0.46109410132989287,0.18129472478330133
1782811408545165000,4.5141650390625,-1.0863023678004742,-0.4027990026190877,0.14501228204667568
1782811408555236000,4.524236083984375,-1.3219488604962826,-0.3792505153797567,-0.0002586509361863136
1782811408565308200,4.53430810546875,-1.029561658924818,-0.3707932142883539,-0.08071034413650631
1782811408575379200,4.544379150390625,-0.4856716393560171,-0.4928504449442029,0.024281331558525562
1782811408585450200,4.5544501953125,-0.12778583743572233,-0.6453130429968238,0.21901465297713874
1782811408595522000,4.56452197265625,-0.18835984086394308,-0.7479964417494833,0.3572672316305339
1782811408605593000,4.574593017578125,-0.5982400339156388,-0.7751277559116482,0.32455563311800356
1782811408615664000,4.5846640625,-1.1695423765450714,-0.6974591175585985,0.15561901625692842
1782811408625736200,4.594736083984375,-1.6431196734815836,-0.5064567993618547,0.04569076094254851
1782811408635807200,4.60480712890625,-2.0590549287885427,-0.3019061405450105,0.06288666428476572
1782811408645878000,4.6148779296875,-2.3636165522783994,-0.10703925587460399,0.04388458830341697
1782811408655950000,4.6249501953125,-2.3480139094769954,0.0365391939766705,0.06566869621872902
1782811408666021000,4.635021240234375,-1.9348440272301435,0.004435790490359068,0.2183386534117162
1782811408676093200,4.64509326171875,-1.4262754964113236,-0.06520224775075913,0.3895033215858042
1782811408686164200,4.655164306640625,-1.1221703845173119,0.03410582934990525,0.5489839817069471
1782811408696235300,4.6652353515625,-1.0799182197213173,0.24012831428498027,0.6445239384457468
1782811408706307000,4.67530712890625,-1.0716209314972163,0.511141157785803,0.6613476474747061
1782811408716378000,4.685378173828125,-0.8251479243606329,0.7546814724713563,0.7037145246915519
1782811408726449200,4.69544921875,-0.35804654543995856,0.9363407927833497,0.8580648361869155
1782811408736521200,4.705521240234375,0.23959143092930316,1.0310795161418616,1.0141682749599217
1782811408746592300,4.71559228515625,0.7081839251905679,1.0190855653569102,1.0825639119245112
1782811408756664300,4.725664306640625,0.9670125560313463,0.9512241813994944,1.0895116852357982
1782811408766735000,4.735735107421875,1.0422691648066043,0.9185923701249062,1.0779812603093684
1782811408776806100,4.74580615234375,1.0193214199393987,0.9329391676463186,1.0513988122016191
1782811408786878200,4.755878173828125,0.89119305267632,0.9390392380870878,0.9920720323555171
1782811408796949200,4.76594921875,0.7286912911683321,0.9525069146864116,0.8807717580355703
1782811408807020300,4.776020263671875,0.533104421660304,0.9111335785515606,0.7170023146793246
1782811408817092000,4.786092041015625,0.3156161014676094,0.8160306980557739,0.5044133108355104
1782811408827163100,4.7961630859375,0.13828560414016247,0.7285222182117402,0.3109833271004259
1782811408837235200,4.806235107421875,0.051158524829149246,0.6767810711890458,0.19452070158123969
1782811408847306200,4.81630615234375,0.04138064265847206,0.6524152762174606,0.15477935056239367
1782811408857377000,4.826376953125,0.10970832895338535,0.6263222190618515,0.12615838236436247
1782811408867449300,4.836449462890625,0.2566390118420124,0.5707727657973766,0.12864946852773426
1782811408877520100,4.84652001953125,0.39652445239424705,0.5057474820487201,0.17823884434401988
1782811408887591200,4.856591064453125,0.5466664985448122,0.4863084759548306,0.1881736706420779
1782811408897663200,4.866663330078125,0.6537608456075191,0.5392882248617709,0.2544187054440379
1782811408907734300,4.876734375,0.7949865948528051,0.6100416769988835,0.3600231062099337
1782811408917806000,4.88680615234375,0.9693956517755985,0.6428076360471546,0.4496010858044028
1782811408927877000,4.896877197265625,1.1506775170773267,0.6204997965186834,0.5092462839499116
1782811408937948200,4.9069482421875,1.2633411887049675,0.5651128403395415,0.5431044221490621
1782811408948020200,4.917020263671875,1.287919165122509,0.546608923138678,0.6123457161575555
1782811408958091300,4.92709130859375,1.171714459887147,0.5502725602127612,0.6515040065914393
1782811408968162000,4.937162109375,1.0821984396129847,0.508572037950158,0.6672276454240084
1782811408978234000,4.947234130859375,1.0629799444019794,0.38025940016135573,0.6353560048669576
1782811408988305200,4.95730517578125,1.0603110174536705,0.3140877228565514,0.6591790712639689
1782811408998376200,4.967376220703125,0.994561072692275,0.31019816807210443,0.7600269251525401
1782811409008448000,4.977447998046875,0.7369125915467739,0.2760007149159908,0.8791524862706661
1782811409018519000,4.98751904296875,0.5266968927055597,0.19824469054043292,0.8925254703238606
1782811409028591000,4.997591064453125,0.4754372455894947,0.09544950197637081,0.8821493299990892
1782811409038662100,5.007662109375,0.44106151325702664,-0.027406477841734885,0.9046645286679267
1782811409048733200,5.017733154296875,0.4145844252198934,-0.03713204530328512,0.9664484924077987
1782811409058805200,5.02780517578125,0.30582185268402096,0.023889994153380393,1.0459989989846945
1782811409068876300,5.037876220703125,0.0006558335602283477,0.07341361125707625,1.089801315832138
1782811409078947000,5.047947021484375,-0.5633715496301651,0.05770765421167016,0.9797662391424179
1782811409089019100,5.05801904296875,-1.1022767665237188,-0.031058862869441508,0.7883928956761955
1782811409099090200,5.068090087890625,-1.4358265840888023,-0.18896102162748574,0.46824733408540486
1782811409109162000,5.078161865234375,-1.564808937832713,-0.35451164931207896,0.21758885795772073
1782811409119233000,5.08823291015625,-1.5843220320761202,-0.43475291463211174,0.1534948637098074
1782811409129304000,5.098303955078125,-1.5502134262472391,-0.4535790495246649,0.20251871459782123
1782811409139376000,5.108376220703125,-1.4577508311271667,-0.4124436137989163,0.22852058633863925
1782811409149447200,5.118447265625,-1.4062655585616826,-0.3295461348816752,0.1815834785968065
1782811409159518200,5.128518310546875,-1.4696686479359864,-0.19144567805007098,0.1484001709192991
1782811409169590300,5.13859033203125,-1.5795038181394339,-0.07975640441253781,0.11454670889526605
1782811409179661600,5.14866162109375,-1.445588684168458,0.012358546313643455,-0.05146276847273111
1782811409189732600,5.158732666015625,-1.089807161051035,0.10098346296697855,-0.3205260853409767
1782811409199804700,5.1688046875,-0.7750240032762289,-0.039812370428442954,-0.4515305925622582
1782811409209875500,5.17887548828125,-0.5958668750435113,-0.36097105458453294,-0.455867160461843
1782811409219947500,5.188947509765625,-0.6219856511622667,-0.6517303626932204,-0.41750031266659493
1782811409230018600,5.1990185546875,-0.7820195612519979,-0.7541668009474873,-0.45313890454173084
1782811409240089600,5.209089599609375,-1.0622791026562453,-0.6438757036700844,-0.4675429852083325
1782811409250161700,5.21916162109375,-1.3639911819338797,-0.3921436069615185,-0.38772272177934647
1782811409260232700,5.229232666015625,-1.5898066009670495,-0.03226677735447883,-0.2877215478479862
1782811409270303500,5.239303466796875,-1.6551877124160528,0.31967049142494797,-0.2635635504081845
1782811409280375600,5.24937548828125,-1.3670710277706384,0.5253763116262853,-0.27031068658083673
1782811409290446600,5.259446533203125,-0.820600928580761,0.513772967594117,-0.16614771679490803
1782811409300518400,5.269518310546875,-0.3289233268082142,0.47648076329305766,-0.00258066414296627
1782811409310589400,5.27958935546875,-0.014269932892918585,0.4663621048606932,0.0821712104693055
1782811409320660500,5.289660400390625,0.0663666153550148,0.4972920806534588,0.07142623683214187
1782811409330732500,5.299732666015625,0.002302431723475456,0.5702898045860231,0.0023266893818974493
1782811409340803600,5.309803466796875,0.029637597894668577,0.6124089906521141,-0.10107874003499746
1782811409350873300,5.319873291015625,0.2604471719533205,0.6008664368964731,-0.18105653211325407
1782811409360945700,5.329945556640625,0.5706663828134536,0.5644722043484449,-0.27872575596570964
1782811409371016400,5.340016357421875,0.83253861913383,0.49721010145843025,-0.3793611361473799
1782811409381087500,5.35008740234375,0.988925112631917,0.4594878351770341,-0.44466392166316504
1782811409391159600,5.36015966796875,0.973137760913372,0.4267420421339571,-0.4915989835783839
1782811409401230600,5.370230712890625,0.7959189072668552,0.42906785473302006,-0.4705377831101417
1782811409411302700,5.380302734375,0.48688335323333737,0.48784576852470635,-0.41954380119293927
1782811409421373700,5.390373779296875,0.13029168277680872,0.5558635120876133,-0.3541042375549674
1782811409431444700,5.40044482421875,-0.09260638750493526,0.5454283350519835,-0.3699292909353971
1782811409441516500,5.4105166015625,-0.18130875330865381,0.5127130832776426,-0.5072080561205744
1782811409451587600,5.420587646484375,-0.33850539414584635,0.5052727041438222,-0.5909577679529786
1782811409461658400,5.430658447265625,-0.5639724381327629,0.5397624182447791,-0.5705509397402405
1782811409471730400,5.44073046875,-0.6061433543860912,0.5594879861950874,-0.508001544585824
1782811409481801500,5.450801513671875,-0.5083201090157031,0.5551904351316392,-0.4444885650962591
1782811409491873500,5.46087353515625,-0.3267074043244123,0.5497824386082589,-0.4122328936576843
1782811409501944600,5.470944580078125,-0.03864566473662853,0.46313408272489903,-0.3839168997555971
1782811409512015600,5.481015625,0.33601357733011245,0.28980872938558455,-0.36907968836873767
1782811409522087700,5.491087646484375,0.7142009935230016,0.12701689888983964,-0.32500498432070013
1782811409532158700,5.50115869140625,1.0823246963411568,-0.004771598315984011,-0.30201661518216133
1782811409542229800,5.511229736328125,1.4402134208709,-0.1348632284760475,-0.30036884797513486
1782811409552301600,5.521301513671875,1.8581518326938151,-0.23927885784879324,-0.2495823713287711
1782811409562372600,5.53137255859375,2.1496815406531096,-0.34937560159787534,-0.159423523106426
1782811409572444700,5.541444580078125,2.311849540162086,-0.4651436689816415,-0.017694792775064704
1782811409582515500,5.551515380859375,2.3458009096026418,-0.5312019490398466,0.10013035326898097
1782811409592586500,5.56158642578125,2.1612878072947264,-0.5504115302920342,0.14579671042263506
1782811409602658600,5.571658447265625,1.833528263568878,-0.4991336168669164,0.16126710514649747
1782811409612729600,5.5817294921875,1.420263688775897,-0.4570858886018395,0.11720730640664696
1782811409622800600,5.591800537109375,1.0837485916644334,-0.4440395061545074,-0.015067805272340773
1782811409632872700,5.601872802734375,0.8277309265911579,-0.5269150655008852,-0.16710560204163194
1782811409642943700,5.61194384765625,0.6670522888571023,-0.6204100724086165,-0.2270965448848903
1782811409653015600,5.622015625,0.5225532170295715,-0.6698562403619289,-0.2711284327045083
1782811409663086600,5.632086669921875,0.2924760488986969,-0.7496012465976178,-0.34526962758377194
1782811409673157600,5.64215771484375,0.19003508059978483,-0.8611863292083144,-0.4666559732407331
1782811409683229700,5.652229736328125,0.2038221984118223,-1.05760760371387,-0.6750428492195903
1782811409693300500,5.662300537109375,0.21119418848454952,-1.0649076975941658,-0.7104585921242833
1782811409703371500,5.67237158203125,0.1645440809905529,-0.8862342612251639,-0.4535603448241949
1782811409713443600,5.682443603515625,0.06106909346878528,-0.7540173094742,-0.08792728977799415
1782811409723514600,5.6925146484375,0.29029987390339373,-0.6163762868478894,0.051004357180744406
1782811409733585700,5.702585693359375,0.5055243408173322,-0.71011503938362,0.060780485785752535
1782811409743658500,5.712658447265625,-0.008240589600801467,-0.9685670919969678,-0.0017810381978750228
1782811409753729500,5.7227294921875,-1.0384007989406585,-1.2257754281595348,-0.32252602698653937
1782811409763800600,5.732800537109375,-1.2037515201389788,-1.348721716609597,-0.3484285300061106
1782811409773872600,5.74287255859375,-1.1604454623758793,-1.1891617076419294,-0.24878654477596282
1782811409783943700,5.752943603515625,-0.6081576168179512,-0.8832929470762609,-0.12576412234976886
1782811409794015700,5.763015625,-0.019768530309200286,-0.8631310335353016,0.07290478495210409
1782811409804086800,5.773086669921875,0.5097270532041788,-1.0097830456130206,0.2577154089018702
1782811409814157600,5.783157470703125,1.0588836149990557,-1.1575909497275947,0.3678168288260698
1782811409824229400,5.7932294921875,0.8288789275825024,-1.2048622578598558,0.3661867434062063
1782811409834300400,5.803300537109375,-0.12185118668973445,-1.0845661916576326,0.29828897296115753
1782811409844371500,5.813371337890625,-0.5300169770389795,-0.8900140720248222,0.40103023938089605
