time,seconds_elapsed,z,y,x
1782811404103691500,0.07269140625,0.02708737924695015,0.00046228605788201094,-0.006209771614521742
1782811404113762600,0.082762451171875,0.0010474490700289607,0.06323889642953873,0.05451871454715729
1782811404123834600,0.092834716796875,-0.017290545627474785,0.07342895120382309,0.10425084829330444
1782811404133905700,0.10290576171875,-0.027814293280243874,0.06811061501502991,0.12925100326538086
1782811404143976400,0.1129765625,-0.03325165808200836,0.06104918196797371,0.13621681928634644
1782811404154048500,0.123048583984375,-0.03999238461256027,0.0507826954126358,0.13273818790912628
1782811404164119600,0.13311962890625,-0.05279647931456566,0.04030165821313858,0.11346551775932312
1782811404174191400,0.14319140625,-0.06795678287744522,0.034869078546762466,0.08725468814373016
1782811404184262400,0.153262451171875,-0.07190132886171341,0.02728063054382801,0.059319861233234406
1782811404194333400,0.16333349609375,-0.07146963477134705,0.015326233580708504,0.03190155327320099
1782811404204405500,0.173405517578125,-0.06301405280828476,0.0004806596552953124,0.006103432271629572
1782811404214476300,0.183476318359375,-0.05899721011519432,0.0018399370601400733,-0.003668770659714937
1782811404224547300,0.19354736328125,-0.05924459546804428,-0.003028458682820201,-0.0022864940110594034
1782811404234619400,0.203619384765625,-0.05496649444103241,0.001113289501518011,0.027466075494885445
1782811404244690400,0.2136904296875,-0.04250863566994667,0.01460549421608448,0.05600166320800781
1782811404254761500,0.223761474609375,-0.035603057593107224,0.019915571436285973,0.07904386520385742
1782811404264833500,0.23383349609375,-0.021141743287444115,0.021518616005778313,0.08440470695495605
1782811404274904600,0.243904541015625,-0.005389943718910217,0.014773627743124962,0.07326363772153854
1782811404284976400,0.253976318359375,0.0009209489217028022,0.006710907444357872,0.048074398189783096
1782811404295047400,0.26404736328125,0.0013385326601564884,-0.011283805593848228,0.020907223224639893
1782811404305118500,0.274118408203125,0.00031599286012351513,-0.010844755917787552,-0.007407201454043388
1782811404315190500,0.2841904296875,0.004669728688895702,-0.012710033915936947,-0.03267660364508629
1782811404325261300,0.29426123046875,0.01423803810030222,-0.011087143793702126,-0.061083756387233734
1782811404335332400,0.304332275390625,0.022608885541558266,-0.012120183557271957,-0.08189742267131805
1782811404345404400,0.314404296875,0.02706075832247734,-0.015127977356314659,-0.08903563022613525
1782811404355475500,0.324475341796875,0.028224825859069824,-0.023327317088842392,-0.09014669805765152
1782811404365547500,0.334547607421875,0.02572004869580269,-0.032483696937561035,-0.08319009840488434
1782811404375618600,0.34461865234375,0.012864703312516212,-0.03444511443376541,-0.0594371035695076
1782811404385689600,0.354689697265625,0.00038045045221224427,-0.01928970403969288,-0.020147185772657394
1782811404395761400,0.364761474609375,-0.007119277026504278,0.01117685902863741,0.02428046613931656
1782811404405832400,0.37483251953125,-0.014116276055574417,0.04039551690220833,0.05614108219742775
1782811404415903500,0.384903564453125,-0.014080323278903961,0.05226708948612213,0.0701378583908081
1782811404425975600,0.3949755859375,-0.02083483338356018,0.060564182698726654,0.07241465896368027
1782811404436046300,0.40504638671875,-0.022770950570702553,0.06422309577465057,0.06892245262861252
1782811404446118400,0.415118408203125,-0.024676861241459846,0.06214013323187828,0.06647691130638123
1782811404456189400,0.425189453125,-0.024437177926301956,0.052373256534338,0.0533781573176384
1782811404466260500,0.435260498046875,-0.02428363636136055,0.041343677788972855,0.03785210847854614
1782811404476332500,0.44533251953125,-0.02812710963189602,0.024179872125387192,0.01797480694949627
1782811404486403600,0.455403564453125,-0.032721132040023804,0.0025864210911095142,-0.0049857040867209435
1782811404496474600,0.465474609375,-0.03768100216984749,-0.010459605604410172,-0.032514799386262894
1782811404506546400,0.47554638671875,-0.03674125671386719,-0.000023307744413614273,-0.05168093368411064
1782811404516617500,0.485617431640625,-0.026031620800495148,0.007473224774003029,-0.07172414660453796
1782811404526689500,0.495689453125,-0.015196502208709717,0.004613135475665331,-0.07746621966362
1782811404536760600,0.505760498046875,-0.006954550743103027,0.011261183768510818,-0.0719343051314354
1782811404546831400,0.515831298828125,-0.0038130111061036587,0.03426685556769371,-0.05747802183032036
1782811404556903400,0.5259033203125,-0.0022284304723143578,0.04287019744515419,-0.04382559284567833
1782811404566974500,0.535974365234375,-0.005207870155572891,0.04209065064787865,-0.04174034297466278
1782811404577045500,0.54604541015625,-0.006594045087695122,0.033350955694913864,-0.04398432374000549
1782811404587117300,0.556117431640625,-0.011863508261740208,0.0216913353651762,-0.050574444234371185
1782811404597188400,0.566188232421875,-0.013886977918446064,0.02253103069961071,-0.05711650103330612
1782811404607259400,0.57625927734375,-0.013386162929236889,0.021473994478583336,-0.06316036731004715
1782811404617331500,0.58633154296875,-0.005769256502389908,0.018835067749023438,-0.07092801481485367
1782811404627402500,0.596402587890625,0.0021617524325847626,0.026510128751397133,-0.0837889090180397
1782811404637474600,0.606474609375,0.013918809592723846,0.03286949172616005,-0.08068951964378357
1782811404647545600,0.616545654296875,0.020172836259007454,0.020561780780553818,-0.08238453418016434
1782811404657616400,0.626616455078125,0.029795901849865913,0.01161595806479454,-0.08595450222492218
1782811404667688400,0.6366884765625,0.033897921442985535,0.005385080352425575,-0.08307346701622009
1782811404677759500,0.646759521484375,0.03208217769861221,-0.004719485528767109,-0.08155892789363861
1782811404687830500,0.65683056640625,0.02970731258392334,-0.015293925069272518,-0.08628905564546585
1782811404697902300,0.66690234375,0.023302678018808365,-0.0269460529088974,-0.09910764545202255
1782811404707973400,0.676973388671875,0.008045218884944916,-0.020163701847195625,-0.10724145174026489
1782811404718045400,0.68704541015625,-0.005485503934323788,0.00008191447705030441,-0.11325407028198242
1782811404728116500,0.697116455078125,-0.02066713012754917,0.009840872138738632,-0.11122958362102509
1782811404738187500,0.7071875,-0.03630680963397026,0.012257956899702549,-0.09725624322891235
1782811404748259600,0.717259521484375,-0.04995507374405861,0.011956456117331982,-0.07903643697500229
1782811404758330400,0.727330322265625,-0.05664173886179924,0.012462989427149296,-0.06183188408613205
1782811404768401400,0.7374013671875,-0.05636587366461754,-0.001718022394925356,-0.05586845800280571
1782811404778473500,0.747473388671875,-0.051531970500946045,-0.01575847528874874,-0.0618232861161232
1782811404788544500,0.75754443359375,-0.042637284845113754,-0.015112858265638351,-0.06530515104532242
1782811404798616300,0.7676162109375,-0.0424274280667305,-0.003999487496912479,-0.06660370528697968
1782811404808687400,0.777687255859375,-0.05158231034874916,0.015609899535775185,-0.06115248426795006
1782811404818758400,0.78775830078125,-0.06382513046264648,0.04112058877944946,-0.048186350613832474
1782811404828830500,0.79783056640625,-0.07074066996574402,0.058310866355895996,-0.045999668538570404
1782811404838901500,0.807901611328125,-0.07500865310430527,0.06310482323169708,-0.04822101071476936
1782811404848972500,0.81797265625,-0.06876096874475479,0.04239492490887642,-0.06436259299516678
1782811404859044600,0.828044677734375,-0.059211667627096176,0.008122173137962818,-0.08222388476133347
1782811404869115400,0.838115478515625,-0.04817705601453781,-0.024824362248182297,-0.10481749475002289
1782811404879186400,0.8481865234375,-0.027683762833476067,-0.03557341545820236,-0.11921641230583191
1782811404889258500,0.858258544921875,-0.0077284472063183784,-0.03982716053724289,-0.11556823551654816
1782811404899329500,0.86832958984375,0.0018512094393372536,-0.02406098134815693,-0.09622782468795776
1782811404909401300,0.8784013671875,0.015137226320803165,0.016244571655988693,-0.05945684015750885
1782811404919472400,0.888472412109375,0.028303096070885658,0.06856077164411545,-0.00995586533099413
1782811404929543400,0.89854345703125,0.03789231926202774,0.11364582926034927,0.018984077498316765
1782811404939615500,0.908615478515625,0.056813545525074005,0.13999514281749725,0.04258687421679497
1782811404949686500,0.9186865234375,0.06810206174850464,0.1332855522632599,0.037780459970235825
1782811404959757600,0.928757568359375,0.06522371619939804,0.10849045217037201,0.008786626160144806
1782811404969829600,0.93882958984375,0.05153176560997963,0.056640077382326126,-0.035792019218206406
1782811404979900400,0.948900390625,0.041279394179582596,-0.017759054899215698,-0.09440845996141434
1782811404989972500,0.958972412109375,0.03824121505022049,-0.10057978332042694,-0.14242975413799286
1782811405000043500,0.96904345703125,0.05185289680957794,-0.18692879378795624,-0.17898111045360565
1782811405010114300,0.9791142578125,0.06662783771753311,-0.2692102789878845,-0.19847789406776428
1782811405020186400,0.989186279296875,0.07921766489744186,-0.3172798156738281,-0.2044830620288849
1782811405030257400,0.99925732421875,0.09117307513952255,-0.3211875557899475,-0.20075836777687073
1782811405040328400,1.009328369140625,0.09748796373605728,-0.2916219234466553,-0.18551763892173767
1782811405050400500,1.019400390625,0.10978686809539795,-0.23664259910583496,-0.15994323790073395
1782811405060471600,1.029471435546875,0.12730062007904053,-0.17619310319423676,-0.1220880001783371
1782811405070543600,1.039543701171875,0.1413109302520752,-0.12194324284791946,-0.08208974450826645
1782811405080614700,1.04961474609375,0.15212282538414001,-0.07774648815393448,-0.041370540857315063
1782811405090685400,1.059685546875,0.16176719963550568,-0.053969789296388626,-0.0035656385589390993
1782811405100757200,1.06975732421875,0.16313207149505615,-0.052571896463632584,0.019467242062091827
1782811405110828300,1.079828369140625,0.15765491127967834,-0.04745033383369446,0.03522384539246559
1782811405120899300,1.0898994140625,0.15946824848651886,-0.04019615054130554,0.039579976350069046
1782811405130971400,1.099971435546875,0.14803868532180786,-0.03224894776940346,0.0260227732360363
1782811405141042400,1.11004248046875,0.13866861164569855,-0.02485175058245659,-0.0039495076052844524
1782811405151113500,1.120113525390625,0.1373189091682434,-0.011086691170930862,-0.03510863333940506
1782811405161185500,1.130185546875,0.14762799441814423,-0.01462843082845211,-0.0559886135160923
1782811405171256600,1.140256591796875,0.1580146700143814,-0.023663371801376343,-0.07207901030778885
1782811405181329000,1.150328857421875,0.17085963487625122,-0.02292674034833908,-0.06404345482587814
1782811405191399700,1.160399658203125,0.18521755933761597,-0.02374686673283577,-0.05070624127984047
1782811405201470700,1.170470703125,0.19910940527915955,-0.041600700467824936,-0.031975165009498596
1782811405211542500,1.18054248046875,0.2091778963804245,-0.05689406022429466,-0.015826594084501266
1782811405221613600,1.190613525390625,0.21634313464164734,-0.056293781846761703,-0.0038423698861151934
1782811405231684600,1.2006845703125,0.217960923910141,-0.04921412467956543,-0.0031514426227658987
1782811405241756700,1.210756591796875,0.21023616194725037,-0.033907074481248856,-0.015404646284878254
1782811405251827700,1.22082763671875,0.19648045301437378,-0.022413384169340134,-0.040561869740486145
1782811405261898800,1.230898681640625,0.18231536448001862,-0.009228074923157692,-0.07111497968435287
1782811405271970800,1.240970703125,0.1562841236591339,-0.005876868963241577,-0.10558069497346878
1782811405282041600,1.25104150390625,0.12701091170310974,-0.020440099760890007,-0.1341441571712494
1782811405292113700,1.26111376953125,0.09354457259178162,-0.02412278577685356,-0.15210208296775818
1782811405302184700,1.271184814453125,0.06696862727403641,-0.019748011603951454,-0.16202102601528168
1782811405312255700,1.281255859375,0.05667561665177345,-0.013767749071121216,-0.1660359799861908
1782811405322327600,1.29132763671875,0.04857534542679787,-0.015862857922911644,-0.1755402684211731
1782811405332398600,1.301398681640625,0.03963542729616165,-0.025131750851869583,-0.1800205558538437
1782811405342469600,1.3114697265625,0.033521074801683426,-0.035974010825157166,-0.1808357536792755
1782811405352541700,1.321541748046875,0.033966269344091415,-0.04072704538702965,-0.18318617343902588
1782811405362612700,1.33161279296875,0.037931449711322784,-0.04168657958507538,-0.17517724633216858
1782811405372684800,1.341684814453125,0.04759842902421951,-0.02098696306347847,-0.15896378457546234
1782811405382755800,1.351755859375,0.060915566980838776,0.015788093209266663,-0.12466147541999817
1782811405392826600,1.36182666015625,0.0762966126203537,0.04469043388962746,-0.08797427266836166
1782811405402898400,1.3718984375,0.09709350019693375,0.0420863963663578,-0.05996314436197281
1782811405412969500,1.381969482421875,0.11479968577623367,0.02091537043452263,-0.041146837174892426
1782811405423040500,1.39204052734375,0.1330985277891159,-0.00022799824364483356,-0.036924928426742554
1782811405433112600,1.402112548828125,0.14998294413089752,-0.037154801189899445,-0.038970425724983215
1782811405443183600,1.41218359375,0.15639370679855347,-0.08315025269985199,-0.05565992370247841
1782811405453254700,1.422254638671875,0.1480134278535843,-0.1437271237373352,-0.0918106809258461
1782811405463326700,1.43232666015625,0.1326616406440735,-0.20325729250907898,-0.1321626454591751
1782811405473397800,1.442397705078125,0.11256171762943268,-0.23627476394176483,-0.1629505455493927
1782811405483469800,1.4524697265625,0.08090392500162125,-0.23554080724716187,-0.1834355741739273
1782811405493540900,1.462540771484375,0.05825629457831383,-0.19282899796962738,-0.17789138853549957
1782811405503611600,1.472611572265625,0.038746509701013565,-0.11801893264055252,-0.15919972956180573
1782811405513683500,1.482683349609375,0.02216721884906292,-0.04749378189444542,-0.1274644136428833
1782811405523754500,1.49275439453125,0.013723934069275856,-0.00763105321675539,-0.08952901512384415
1782811405533825500,1.502825439453125,-0.0034335958771407604,0.0024669626727700233,-0.05100589618086815
1782811405543897600,1.512897705078125,-0.02852882817387581,-0.02063489332795143,-0.0290521290153265
1782811405553968600,1.52296875,-0.0642162635922432,-0.05747459456324577,-0.019816335290670395
1782811405564040700,1.533040771484375,-0.10763484239578247,-0.10527407377958298,-0.03423149138689041
1782811405574111700,1.54311181640625,-0.15493477880954742,-0.16406990587711334,-0.0675317719578743
1782811405584182800,1.553182861328125,-0.2016756534576416,-0.21738958358764648,-0.11265024542808533
1782811405594254800,1.5632548828125,-0.23224666714668274,-0.2376539260149002,-0.14091013371944427
1782811405604326000,1.573325927734375,-0.2495521605014801,-0.21625329554080963,-0.14677441120147705
1782811405614396700,1.583396728515625,-0.2699890434741974,-0.15472564101219177,-0.11378607898950577
1782811405624468500,1.593468505859375,-0.28329765796661377,-0.07182196527719498,-0.04590769484639168
1782811405634539500,1.60353955078125,-0.2904605269432068,0.030676910653710365,0.04555656388401985
1782811405644611600,1.613611572265625,-0.3082629442214966,0.13027939200401306,0.14559102058410645
1782811405654682600,1.6236826171875,-0.3337019681930542,0.214525043964386,0.23378631472587585
1782811405664753700,1.633753662109375,-0.354120671749115,0.2719995081424713,0.2953926920890808
1782811405674825700,1.64382568359375,-0.382378488779068,0.32306328415870667,0.33370986580848694
1782811405684896800,1.653896728515625,-0.4237211346626282,0.36647891998291016,0.34542298316955566
1782811405694967800,1.6639677734375,-0.4714055061340332,0.3870687186717987,0.327117383480072
1782811405705039600,1.67403955078125,-0.5207416415214539,0.37352415919303894,0.2864815592765808
1782811405715110700,1.684110595703125,-0.5608013272285461,0.33309614658355713,0.2195180356502533
1782811405725181700,1.694181640625,-0.5887008905410767,0.27045938372612,0.14513620734214783
1782811405735253500,1.70425341796875,-0.6090341806411743,0.18166184425354004,0.07927842438220978
1782811405745324500,1.714324462890625,-0.6173024773597717,0.08548710495233536,0.03573174774646759
1782811405755396600,1.724396728515625,-0.617146909236908,0.0038263583555817604,0.013756883330643177
1782811405765467600,1.734467529296875,-0.6033186912536621,-0.06494764238595963,0.008479030802845955
1782811405775538700,1.74453857421875,-0.5838297605514526,-0.09840070456266403,0.017716262489557266
1782811405785610800,1.75461083984375,-0.5536563992500305,-0.09581530839204788,0.04143889993429184
1782811405795681800,1.764681884765625,-0.5293635725975037,-0.06578490138053894,0.0680113434791565
1782811405805752800,1.7747529296875,-0.5124037861824036,-0.017636548727750778,0.0965561643242836
1782811405815824600,1.78482470703125,-0.4997932016849518,0.048496782779693604,0.12345865368843079
1782811405825895700,1.794895751953125,-0.4911419451236725,0.11076228320598602,0.1450803130865097
1782811405835967700,1.8049677734375,-0.4905701279640198,0.17092910408973694,0.16322548687458038
1782811405846038500,1.81503857421875,-0.4903743863105774,0.23490116000175476,0.1748264729976654
1782811405856109600,1.825109619140625,-0.4804946482181549,0.27434083819389343,0.17976544797420502
1782811405866181600,1.835181640625,-0.46562036871910095,0.29194673895835876,0.18019793927669525
1782811405876252700,1.845252685546875,-0.44856974482536316,0.3001493215560913,0.18227264285087585
1782811405886323700,1.85532373046875,-0.4312237799167633,0.31488990783691406,0.17663180828094482
1782811405896395800,1.865395751953125,-0.40188848972320557,0.3298720121383667,0.16730599105358124
1782811405906466800,1.875466796875,-0.36349716782569885,0.3085983991622925,0.15594308078289032
1782811405916537900,1.885537841796875,-0.3227965235710144,0.2571014165878296,0.14530238509178162
1782811405926609700,1.895609619140625,-0.2802160382270813,0.19601115584373474,0.14644594490528107
1782811405936680400,1.905680419921875,-0.24550636112689972,0.13918307423591614,0.14957675337791443
1782811405946752500,1.91575244140625,-0.20187339186668396,0.08053680509328842,0.15149076282978058
1782811405956823600,1.925823486328125,-0.158630833029747,0.01592286117374897,0.1453695297241211
1782811405966894600,1.93589453125,-0.11223138123750687,-0.056135084480047226,0.13029390573501587
1782811405976966700,1.945966552734375,-0.06923762708902359,-0.1329415887594223,0.10132408142089844
1782811405987037700,1.95603759765625,-0.03154723346233368,-0.20838788151741028,0.06274020671844482
1782811405997108700,1.966108642578125,-0.007350553758442402,-0.273114413022995,0.023398658260703087
1782811406007180800,1.976180908203125,0.0010543826501816511,-0.3217775821685791,-0.008159801363945007
1782811406017251800,1.986251953125,0.0014301453484222293,-0.35410961508750916,-0.021687373518943787
1782811406027323000,1.996322998046875,-0.003331054002046585,-0.3641563951969147,-0.016557592898607254
1782811406037394700,2.006394775390625,-0.0013844657223671675,-0.33490118384361267,0.007280253805220127
1782811406047465500,2.016465576171875,0.007992524653673172,-0.2782059609889984,0.03654972463846207
1782811406057537500,2.02653759765625,0.03599649295210838,-0.20762865245342255,0.066130131483078
1782811406067608600,2.036608642578125,0.07519315928220749,-0.16143426299095154,0.0994207113981247
1782811406077679600,2.0466796875,0.12130312621593475,-0.14162054657936096,0.15440721809864044
1782811406087751700,2.056751708984375,0.1626470983028412,-0.12985976040363312,0.2324194610118866
1782811406097822700,2.06682275390625,0.20626889169216156,-0.09378750622272491,0.33294421434402466
1782811406107893800,2.076893798828125,0.24293474853038788,-0.014272711239755154,0.42127594351768494
1782811406117965800,2.0869658203125,0.26579228043556213,0.06285666674375534,0.4826376140117645
1782811406128036900,2.097036865234375,0.27112525701522827,0.07783934473991394,0.47448328137397766
1782811406138108700,2.107108642578125,0.2883206605911255,0.0030033625662326813,0.41407153010368347
1782811406148179700,2.1171796875,0.31136685609817505,-0.13407273590564728,0.32250991463661194
1782811406158250500,2.12725048828125,0.33499112725257874,-0.2789101004600525,0.23691371083259583
1782811406168322600,2.137322509765625,0.3435486853122711,-0.39794859290122986,0.1676797866821289
1782811406178393000,2.14739306640625,0.3474773168563843,-0.48177674412727356,0.11920449882745743
1782811406188463900,2.1574638671875,0.3440093398094177,-0.5301927328109741,0.08438899368047714
1782811406198536200,2.1675361328125,0.3370684087276459,-0.5199165940284729,0.061817657202482224
1782811406208607000,2.17760693359375,0.33426037430763245,-0.44516193866729736,0.05475069209933281
1782811406218679000,2.187678955078125,0.3445926308631897,-0.3363901674747467,0.06644317507743835
1782811406228750000,2.19775,0.3718777894973755,-0.20231811702251434,0.10695997625589371
1782811406238821000,2.207821044921875,0.4158960282802582,-0.0592968724668026,0.16241668164730072
1782811406248893000,2.217892822265625,0.46676748991012573,0.07056019455194473,0.22548246383666992
1782811406258964000,2.2279638671875,0.5119218230247498,0.21417027711868286,0.2906268239021301
1782811406269035000,2.238034912109375,0.5570123195648193,0.35538601875305176,0.35044142603874207
1782811406279107000,2.248107177734375,0.5999243259429932,0.4602036774158478,0.4024878442287445
1782811406289178000,2.25817822265625,0.6436697244644165,0.5057381391525269,0.4337128698825836
1782811406299249000,2.268248779296875,0.6842347383499146,0.48396894335746765,0.43938127160072327
1782811406309321000,2.278321044921875,0.7189275026321411,0.4117070138454437,0.4241040349006653
1782811406319392000,2.28839208984375,0.7507140040397644,0.3170919418334961,0.39276573061943054
1782811406329464000,2.298464111328125,0.7874101996421814,0.20001406967639923,0.35197967290878296
1782811406339535000,2.30853515625,0.8026706576347351,0.05119854956865311,0.2864125967025757
1782811406349606100,2.318606201171875,0.7988945841789246,-0.13165462017059326,0.20536011457443237
1782811406359678000,2.328677978515625,0.7751356959342957,-0.34233638644218445,0.11373548209667206
1782811406369749000,2.3387490234375,0.7440656423568726,-0.5240440964698792,0.025745967403054237
1782811406379820000,2.348820068359375,0.6967865824699402,-0.6339089870452881,-0.042980995029211044
1782811406389892000,2.35889208984375,0.6394330263137817,-0.6841098070144653,-0.08350791037082672
1782811406399963100,2.368963134765625,0.5635700821876526,-0.6526477336883545,-0.09864797443151474
1782811406410035200,2.37903515625,0.48276257514953613,-0.544931948184967,-0.09874464571475983
1782811406420106000,2.38910595703125,0.40135830640792847,-0.3923201560974121,-0.07919462770223618
1782811406430177000,2.399177001953125,0.32973313331604004,-0.20490847527980804,-0.05094674602150917
1782811406440249000,2.4092490234375,0.27195048332214355,-0.004432783927768469,-0.02240082621574402
1782811406450320100,2.419320068359375,0.2254202663898468,0.16519112884998322,-0.006487905979156494
1782811406460391200,2.42939111328125,0.1933297961950302,0.2806762158870697,0.012911301106214523
1782811406470463000,2.439462890625,0.17744244635105133,0.34658756852149963,0.03303734213113785
1782811406480534000,2.449533935546875,0.17467913031578064,0.3776622712612152,0.059528812766075134
1782811406490605000,2.45960498046875,0.17796388268470764,0.3977859318256378,0.0884384885430336
1782811406500677000,2.469677001953125,0.19224107265472412,0.41759705543518066,0.11413177847862244
1782811406510748200,2.479748046875,0.21598368883132935,0.4180958569049835,0.1301131397485733
1782811406520820200,2.4898203125,0.24205133318901062,0.4140537977218628,0.12663735449314117
1782811406530891000,2.49989111328125,0.2686975598335266,0.39576372504234314,0.11841830611228943
1782811406540962000,2.509962158203125,0.2913356423377991,0.3597091734409332,0.09653986245393753
1782811406551033900,2.520033935546875,0.3056671917438507,0.31303834915161133,0.06320880353450775
1782811406561105000,2.53010498046875,0.31961706280708313,0.27497950196266174,0.024999268352985382
1782811406571176000,2.540176025390625,0.32825902104377747,0.258333683013916,-0.004208151716738939
1782811406581248000,2.550248046875,0.351629376411438,0.2727714776992798,-0.02428952045738697
1782811406591319000,2.560319091796875,0.3763429820537567,0.3055286407470703,-0.041474636644124985
1782811406601391000,2.57039111328125,0.40452641248703003,0.3107835650444031,-0.06911227107048035
1782811406611462100,2.580462158203125,0.4359298646450043,0.2972336709499359,-0.09405623376369476
1782811406621533200,2.590533203125,0.4755226969718933,0.2428300678730011,-0.09289055317640305
1782811406631605200,2.600605224609375,0.514473557472229,0.1371249407529831,-0.05659273639321327
1782811406641676000,2.610676025390625,0.5270712375640869,0.03708767145872116,0.011700794100761414
1782811406651747000,2.6207470703125,0.4995051324367523,-0.035396914929151535,0.10412313789129257
1782811406661819000,2.63081884765625,0.4550769329071045,-0.04818551242351532,0.18356141448020935
1782811406671890000,2.640889892578125,0.413234144449234,-0.0232790969312191,0.23638787865638733
1782811406681961000,2.6509609375,0.3729724884033203,0.012029094621539116,0.22878535091876984
1782811406692033000,2.661032958984375,0.3234451413154602,0.021995509043335915,0.1565939337015152
1782811406702104000,2.67110400390625,0.26818057894706726,0.013676932081580162,0.05460565164685249
1782811406712176000,2.681176025390625,0.20439520478248596,0.005920742638409138,-0.057432737201452255
1782811406722247200,2.6912470703125,0.1249089390039444,-0.012626837939023972,-0.16811703145503998
1782811406732318000,2.70131787109375,0.02204247936606407,-0.0367651991546154,-0.2839996814727783
1782811406742390300,2.711390380859375,-0.1042034924030304,-0.08369286358356476,-0.39579570293426514
1782811406752461000,2.7214609375,-0.2548640966415405,-0.15271347761154175,-0.49813032150268555
1782811406762532000,2.731531982421875,-0.4072072207927704,-0.18612714111804962,-0.5596679449081421
1782811406772604000,2.74160400390625,-0.5252829790115356,-0.1394807994365692,-0.5733446478843689
1782811406782675000,2.751675048828125,-0.5759296417236328,-0.028599558398127556,-0.5333804488182068
1782811406792747000,2.7617470703125,-0.5610542893409729,0.09584969282150269,-0.4645206928253174
1782811406802818000,2.771818115234375,-0.4972091615200043,0.169978067278862,-0.36427968740463257
1782811406812889000,2.78188916015625,-0.41191983222961426,0.20160789787769318,-0.24174605309963226
1782811406822961200,2.791961181640625,-0.3409540057182312,0.1981242448091507,-0.11254032701253891
1782811406833032200,2.8020322265625,-0.30253177881240845,0.18496263027191162,-0.0023701456375420094
1782811406843103000,2.81210302734375,-0.29416903853416443,0.15892501175403595,0.08652772754430771
1782811406853175000,2.822175048828125,-0.31721922755241394,0.1382618099451065,0.13575252890586853
1782811406863246000,2.83224609375,-0.3664679229259491,0.13609659671783447,0.1512506604194641
1782811406873317000,2.842317138671875,-0.4279520511627197,0.1358763575553894,0.13585412502288818
1782811406883389000,2.852388916015625,-0.48894208669662476,0.13792727887630463,0.10384739190340042
1782811406893460000,2.8624599609375,-0.5376566052436829,0.15137891471385956,0.06719829887151718
1782811406903532000,2.872531982421875,-0.5675608515739441,0.18697082996368408,0.038660746067762375
1782811406913603000,2.88260302734375,-0.5847611427307129,0.20835494995117188,0.03611370176076889
1782811406923674000,2.892674072265625,-0.5912860035896301,0.2094293236732483,0.05733099207282066
1782811406933746200,2.90274609375,-0.592487096786499,0.17563726007938385,0.09011823683977127
1782811406943817200,2.912817138671875,-0.6023473143577576,0.12220482528209686,0.13022732734680176
1782811406953888000,2.922887939453125,-0.6307669878005981,0.07520615309476852,0.16068750619888306
1782811406963959800,2.932959716796875,-0.6674081683158875,0.04387184977531433,0.16034628450870514
1782811406974030800,2.94303076171875,-0.706068217754364,0.012185291387140751,0.12090671807527542
1782811406984103000,2.95310302734375,-0.7267943620681763,-0.011694304645061493,0.05553208291530609
1782811406994174000,2.963174072265625,-0.7323795557022095,-0.016460830345749855,-0.014503461308777332
1782811407004245000,2.973244873046875,-0.7301072478294373,-0.007459585554897785,-0.07133164256811142
1782811407014317000,2.983317138671875,-0.7229316234588623,0.006458360701799393,-0.1135382205247879
1782811407024388000,2.99338818359375,-0.7199212312698364,0.035826101899147034,-0.12073008716106415
1782811407034459100,3.003459228515625,-0.7106890678405762,0.08530230820178986,-0.09574830532073975
1782811407044531200,3.01353125,-0.6964690089225769,0.12547852098941803,-0.05543556064367294
1782811407054602200,3.023602294921875,-0.6755922436714172,0.15249522030353546,-0.010967962443828583
1782811407064674000,3.033674072265625,-0.650305986404419,0.16127647459506989,0.029210416600108147
1782811407074744800,3.043744873046875,-0.6208513975143433,0.14279013872146606,0.0719088762998581
1782811407084816000,3.05381591796875,-0.5895859599113464,0.13359564542770386,0.11853305995464325
1782811407094888000,3.063887939453125,-0.5598996877670288,0.12702509760856628,0.16130128502845764
1782811407104959000,3.073958984375,-0.5325379371643066,0.1273288130760193,0.20783227682113647
1782811407115030000,3.084030029296875,-0.503806471824646,0.13656091690063477,0.25655534863471985
1782811407125102000,3.09410205078125,-0.4753340184688568,0.15533533692359924,0.31339335441589355
1782811407135173000,3.104173095703125,-0.44059816002845764,0.18745866417884827,0.397869348526001
1782811407145244200,3.114244140625,-0.41467005014419556,0.23920589685440063,0.49155595898628235
1782811407155316200,3.124316162109375,-0.39491552114486694,0.27109643816947937,0.5657564401626587
1782811407165387300,3.13438720703125,-0.36121368408203125,0.3023378252983093,0.5928493142127991
1782811407175459000,3.144458984375,-0.3128663897514343,0.32401859760284424,0.5702632665634155
1782811407185530600,3.154530517578125,-0.26078394055366516,0.29125308990478516,0.49826282262802124
1782811407195601700,3.1646015625,-0.23103298246860504,0.21377693116664886,0.38544148206710815
1782811407205673700,3.174673828125,-0.22676248848438263,0.1033078283071518,0.2555173635482788
1782811407215744800,3.184744873046875,-0.23186004161834717,-0.009505266323685646,0.1263878494501114
1782811407225815800,3.19481591796875,-0.23867160081863403,-0.12415994703769684,0.017907990142703056
1782811407235887900,3.204887939453125,-0.2376505434513092,-0.22266201674938202,-0.07220166176557541
1782811407245958700,3.214958740234375,-0.23915104568004608,-0.27804699540138245,-0.1437227874994278
1782811407256030500,3.225030517578125,-0.24325843155384064,-0.31386706233024597,-0.19565442204475403
1782811407266101500,3.2351015625,-0.2570694386959076,-0.3274259567260742,-0.23234237730503082
1782811407276172500,3.245172607421875,-0.2635675370693207,-0.3252061903476715,-0.25476565957069397
1782811407286244600,3.25524462890625,-0.2502303421497345,-0.3128875494003296,-0.2597929537296295
1782811407296315600,3.265315673828125,-0.22045299410820007,-0.3016703128814697,-0.24151113629341125
1782811407306386700,3.27538671875,-0.1808069348335266,-0.2593807280063629,-0.1899046152830124
1782811407316458800,3.285458740234375,-0.13768503069877625,-0.19457191228866577,-0.11537685990333557
1782811407326529800,3.29552978515625,-0.09299441426992416,-0.1048780158162117,-0.013623874634504318
1782811407336600800,3.305600830078125,-0.05789129063487053,0.03687911480665207,0.09036724269390106
1782811407346673000,3.3156728515625,-0.039317503571510315,0.18388237059116364,0.1523198038339615
1782811407356743700,3.32574365234375,-0.0208162572234869,0.24180452525615692,0.12808451056480408
1782811407366815500,3.3358154296875,0.01741991564631462,0.2100723832845688,0.024602852761745453
1782811407376886500,3.345886474609375,0.07970672845840454,0.1762790083885193,-0.16934557259082794
1782811407386957600,3.35595751953125,0.17307725548744202,0.26428958773612976,-0.49660125374794006
1782811407397029600,3.366029541015625,0.28619715571403503,0.3365272879600525,-0.8513031601905823
1782811407407100700,3.3761005859375,0.4082271158695221,0.25939908623695374,-1.0671515464782715
1782811407417171700,3.386171630859375,0.4767971336841583,0.0184080321341753,-1.0092390775680542
1782811407427243800,3.396243896484375,0.4567956030368805,-0.21847233176231384,-0.6828477382659912
1782811407437314800,3.406314697265625,0.4143434762954712,-0.3690645098686218,-0.22516672313213348
1782811407447386600,3.41638671875,0.39390408992767334,-0.43097203969955444,0.22139447927474976
1782811407457457700,3.426457763671875,0.40738898515701294,-0.4161779284477234,0.5489717721939087
1782811407467528700,3.43652880859375,0.43224433064460754,-0.35348594188690186,0.7249324917793274
1782811407477600500,3.4466005859375,0.43621376156806946,-0.27973368763923645,0.7676067352294922
1782811407487671600,3.456671630859375,0.39687368273735046,-0.21036779880523682,0.7313331365585327
1782811407497742600,3.46674267578125,0.3315604329109192,-0.1351737082004547,0.656367301940918
1782811407507814700,3.476814697265625,0.2884630560874939,-0.04382941871881485,0.5578529834747314
1782811407517885700,3.4868857421875,0.3005404770374298,0.02494458667933941,0.4234405755996704
1782811407527957800,3.496957763671875,0.36215201020240784,0.03286105766892433,0.2615017294883728
1782811407538028800,3.50702880859375,0.42749932408332825,-0.01793021708726883,0.1158401370048523
1782811407548099800,3.517099853515625,0.4583889842033386,-0.08839301019906998,0.03230154886841774
1782811407558171600,3.527171630859375,0.4616391062736511,-0.16349175572395325,0.02260497771203518
1782811407568242400,3.537242431640625,0.4656764566898346,-0.2587200701236725,0.04927217215299606
1782811407578313500,3.5473134765625,0.4777373671531677,-0.37287166714668274,0.08520407229661942
1782811407588385500,3.557385498046875,0.47638848423957825,-0.46905314922332764,0.10017969459295273
1782811407598456600,3.56745654296875,0.45141175389289856,-0.5087456703186035,0.10023588687181473
1782811407608527600,3.577527587890625,0.4129283130168915,-0.4789595603942871,0.09214713424444199
1782811407618599700,3.587599609375,0.3780917823314667,-0.39582711458206177,0.08643198758363724
1782811407628670700,3.597670654296875,0.352398544549942,-0.2771359980106354,0.07577339559793472
1782811407638742800,3.60774267578125,0.32612407207489014,-0.1394236534833908,0.06474524736404419
1782811407648813800,3.617813720703125,0.29953062534332275,-0.0025288290344178677,0.05462459847331047
1782811407658884900,3.627884765625,0.268130898475647,0.09258090704679489,0.06166546419262886
1782811407668956700,3.637956787109375,0.2423715442419052,0.14596609771251678,0.07790229469537735
1782811407679027500,3.64802734375,0.2279561161994934,0.17288532853126526,0.10360925644636154
1782811407689098500,3.658098388671875,0.21678097546100616,0.15681575238704681,0.12352495640516281
1782811407699170600,3.668170654296875,0.20661941170692444,0.12096215784549713,0.12365997582674026
1782811407709241600,3.67824169921875,0.19750820100307465,0.08947400748729706,0.10884268581867218
1782811407719312600,3.688312744140625,0.2013266533613205,0.056238286197185516,0.08173862844705582
1782811407729384700,3.698384765625,0.21778504550457,0.013172655366361141,0.048664577305316925
1782811407739455700,3.708455810546875,0.22649410367012024,-0.03929295018315315,0.02150273509323597
1782811407749527800,3.71852783203125,0.2311355322599411,-0.08784619718790054,-0.0018043414456769824
1782811407759598800,3.728598876953125,0.22666142880916595,-0.13583342730998993,-0.013189354911446571
1782811407769670000,3.738669921875,0.22302763164043427,-0.17360436916351318,-0.024454893544316292
1782811407779741700,3.74874169921875,0.2177596390247345,-0.2003646194934845,-0.040845584124326706
1782811407789812500,3.7588125,0.20953895151615143,-0.211812362074852,-0.06222754716873169
1782811407799883500,3.768883544921875,0.19174183905124664,-0.2326532006263733,-0.07995647937059402
1782811407809955600,3.77895556640625,0.1652912050485611,-0.254714697599411,-0.09565531462430954
1782811407820026600,3.789026611328125,0.14119306206703186,-0.27828261256217957,-0.10745018720626831
1782811407830098700,3.7990986328125,0.12178658694028854,-0.31482556462287903,-0.1161273941397667
1782811407840169700,3.809169677734375,0.09303989261388779,-0.3685188889503479,-0.12810282409191132
1782811407850240800,3.81924072265625,0.07009375095367432,-0.4111783802509308,-0.14500096440315247
1782811407860312600,3.8293125,0.04466136172413826,-0.4464258551597595,-0.1636875718832016
1782811407870383600,3.839383544921875,0.022899122908711433,-0.46006080508232117,-0.18125540018081665
1782811407880454700,3.84945458984375,-0.006578607950359583,-0.46183475852012634,-0.19912602007389069
1782811407890526700,3.859526611328125,-0.04993591830134392,-0.4623667597770691,-0.21544897556304932
1782811407900597500,3.869597412109375,-0.09102316200733185,-0.4617590308189392,-0.22753334045410156
1782811407910669600,3.879669677734375,-0.13492093980312347,-0.4712439179420471,-0.23278290033340454
1782811407920740600,3.88974072265625,-0.16745011508464813,-0.47889676690101624,-0.22559183835983276
1782811407930811600,3.899811767578125,-0.1886906921863556,-0.45301350951194763,-0.20229876041412354
1782811407940883700,3.9098837890625,-0.19427800178527832,-0.37401509284973145,-0.14824937283992767
1782811407950954800,3.919954833984375,-0.19780093431472778,-0.2444906234741211,-0.08192040026187897
1782811407961025800,3.93002587890625,-0.2385779321193695,-0.11803574860095978,-0.05227809026837349
1782811407971097600,3.94009765625,-0.3311706483364105,-0.06659995764493942,-0.09676705300807953
1782811407981168600,3.950168701171875,-0.4510325789451599,-0.11460530012845993,-0.20660141110420227
1782811407991240700,3.96024072265625,-0.5796611309051514,-0.19897699356079102,-0.34635648131370544
1782811408001311700,3.970311767578125,-0.7000455856323242,-0.23395761847496033,-0.4579607844352722
1782811408011382500,3.980382568359375,-0.7804068326950073,-0.2033638209104538,-0.518727719783783
1782811408021454600,3.99045458984375,-0.8176844120025635,-0.14856822788715363,-0.5191159844398499
1782811408031525600,4.000525634765625,-0.8057250380516052,-0.07531332224607468,-0.4637693166732788
1782811408041596700,4.0105966796875,-0.7515534162521362,0.01672711968421936,-0.35757336020469666
1782811408051668700,4.020668701171875,-0.6743534803390503,0.10696598142385483,-0.22600992023944855
1782811408061739800,4.03073974609375,-0.5898628234863281,0.1454630345106125,-0.08373694121837616
1782811408071810800,4.040810791015625,-0.5224302411079407,0.12810549139976501,0.04082160070538521
1782811408081882600,4.050882568359375,-0.47976985573768616,0.07581618428230286,0.14164035022258759
1782811408091953700,4.06095361328125,-0.46536019444465637,0.023060521110892296,0.21321704983711243
1782811408102025700,4.071025634765625,-0.4813719391822815,0.004037294536828995,0.2529977858066559
1782811408112096800,4.0810966796875,-0.5045896172523499,0.009964905679225922,0.25282031297683716
1782811408122167600,4.09116748046875,-0.5262253880500793,0.010989423841238022,0.21132293343544006
1782811408132239600,4.101239501953125,-0.5413684844970703,0.017763212323188782,0.1600664258003235
1782811408142310700,4.111310546875,-0.5548113584518433,0.04319586977362633,0.1064109206199646
1782811408152381700,4.121381591796875,-0.5659228563308716,0.07269895076751709,0.06826280802488327
1782811408162453800,4.131453857421875,-0.5669642090797424,0.08106154203414917,0.03957923501729965
1782811408172524800,4.14152490234375,-0.557673454284668,0.06742749363183975,0.02559604123234749
1782811408182596000,4.15159619140625,-0.5391557216644287,0.04563724249601364,0.028932183980941772
1782811408192667100,4.161667236328125,-0.5159063339233398,0.02925640344619751,0.03912170231342316
1782811408202738200,4.17173828125,-0.49786096811294556,-0.00008364045061171055,0.054459914565086365
1782811408212810200,4.181810302734375,-0.480244904756546,-0.026816431432962418,0.06781759113073349
1782811408222881000,4.191881103515625,-0.4626432955265045,-0.03405357152223587,0.08401520550251007
1782811408232952000,4.2019521484375,-0.4426873028278351,-0.015343301929533482,0.10063692927360535
1782811408243024100,4.212024169921875,-0.4297938644886017,0.028006568551063538,0.11131753772497177
1782811408253095200,4.22209521484375,-0.4173899292945862,0.08826378732919693,0.1268048882484436
1782811408263166200,4.232166259765625,-0.406756192445755,0.16459158062934875,0.1415012776851654
1782811408273238300,4.24223828125,-0.3929344415664673,0.2447206825017929,0.15644371509552002
1782811408283309300,4.252309326171875,-0.3837212324142456,0.3086794316768646,0.16822606325149536
1782811408293381000,4.262381103515625,-0.3713480532169342,0.34677737951278687,0.1774337738752365
1782811408303452200,4.2724521484375,-0.35898539423942566,0.3679162263870239,0.18685443699359894
1782811408313523000,4.28252294921875,-0.3429788053035736,0.3547777533531189,0.18506580591201782
1782811408323595300,4.29259521484375,-0.3303660750389099,0.29966044425964355,0.1824854612350464
1782811408333666000,4.302666015625,-0.31609323620796204,0.21999529004096985,0.18094424903392792
1782811408343737000,4.312737060546875,-0.29538583755493164,0.1456475555896759,0.18231230974197388
1782811408353809200,4.32280908203125,-0.28279078006744385,0.06356565654277802,0.1892194002866745
1782811408363880200,4.332880126953125,-0.2800533175468445,-0.02786758914589882,0.19163328409194946
1782811408373952300,4.3429521484375,-0.2849985659122467,-0.1045539379119873,0.18974848091602325
1782811408384023300,4.353023193359375,-0.2877586781978607,-0.16835661232471466,0.17183393239974976
1782811408394094300,4.36309423828125,-0.3029995560646057,-0.23032641410827637,0.1456194370985031
1782811408404166100,4.373166259765625,-0.3341308534145355,-0.29281163215637207,0.12105497717857361
1782811408414237200,4.3832373046875,-0.3765948712825775,-0.32700806856155396,0.10748523473739624
1782811408424308000,4.393307861328125,-0.42198073863983154,-0.3285335302352905,0.11510559916496277
1782811408434380000,4.403380126953125,-0.465866357088089,-0.3147178888320923,0.136837899684906
1782811408444451000,4.413451171875,-0.49698886275291443,-0.27402347326278687,0.16517207026481628
1782811408454522000,4.423522216796875,-0.5020809173583984,-0.2244986742734909,0.18191799521446228
1782811408464594200,4.43359423828125,-0.48823168873786926,-0.1949908435344696,0.19012132287025452
1782811408474665200,4.443665283203125,-0.46778374910354614,-0.1694023460149765,0.18421459197998047
1782811408484737300,4.4537373046875,-0.44355058670043945,-0.17251478135585785,0.16437803208827972
1782811408494808300,4.463808349609375,-0.4106099605560303,-0.16831286251544952,0.14321881532669067
1782811408504879400,4.47387939453125,-0.3634618818759918,-0.16092391312122345,0.12450291216373444
1782811408514951200,4.483951171875,-0.2964406907558441,-0.14379583299160004,0.10631697624921799
1782811408525022200,4.494022216796875,-0.22395449876785278,-0.12881715595722198,0.09325417131185532
1782811408535093000,4.504093017578125,-0.147223100066185,-0.09010601043701172,0.0977925956249237
1782811408545165000,4.5141650390625,-0.07729781419038773,0.029489368200302124,0.1279478371143341
1782811408555236000,4.524236083984375,-0.022349543869495392,0.16183863580226898,0.14564594626426697
1782811408565308200,4.53430810546875,0.014291824772953987,0.19463571906089783,0.1266392320394516
1782811408575379200,4.544379150390625,0.03559998422861099,0.10656996816396713,0.0710529088973999
1782811408585450200,4.5544501953125,0.061310939490795135,-0.04329942166805267,-0.00135071633849293
1782811408595522000,4.56452197265625,0.0769779309630394,-0.19490362703800201,-0.06690505146980286
1782811408605593000,4.574593017578125,0.07720136642456055,-0.2856297791004181,-0.11919408291578293
1782811408615664000,4.5846640625,0.06787440925836563,-0.30290842056274414,-0.16474418342113495
1782811408625736200,4.594736083984375,0.07010853290557861,-0.2712210416793823,-0.19058535993099213
1782811408635807200,4.60480712890625,0.09872724860906601,-0.18460743129253387,-0.19211317598819733
1782811408645878000,4.6148779296875,0.13318802416324615,-0.05186882242560387,-0.16926085948944092
1782811408655950000,4.6249501953125,0.16108232736587524,0.0390629805624485,-0.13149036467075348
1782811408666021000,4.635021240234375,0.17192858457565308,0.04428330808877945,-0.09008567780256271
1782811408676093200,4.64509326171875,0.180917888879776,-0.0083420779556036,-0.03693690150976181
1782811408686164200,4.655164306640625,0.19439055025577545,-0.05137902870774269,0.03245016187429428
1782811408696235300,4.6652353515625,0.21928240358829498,-0.04086989536881447,0.12018981575965881
1782811408706307000,4.67530712890625,0.25933289527893066,0.023964758962392807,0.20872633159160614
1782811408716378000,4.685378173828125,0.31402409076690674,0.09492142498493195,0.2742246985435486
1782811408726449200,4.69544921875,0.39989933371543884,0.1262284815311432,0.29710525274276733
1782811408736521200,4.705521240234375,0.48062554001808167,0.09942801296710968,0.27938079833984375
1782811408746592300,4.71559228515625,0.5474013686180115,0.05641476809978485,0.23317520320415497
1782811408756664300,4.725664306640625,0.6016935110092163,0.0004147699801251292,0.17735512554645538
1782811408766735000,4.735735107421875,0.6461086273193359,-0.07459741830825806,0.13207046687602997
1782811408776806100,4.74580615234375,0.6914676427841187,-0.15490980446338654,0.10482732206583023
1782811408786878200,4.755878173828125,0.7213424444198608,-0.25194981694221497,0.09934253990650177
1782811408796949200,4.76594921875,0.743161141872406,-0.3382260501384735,0.10109711438417435
1782811408807020300,4.776020263671875,0.7437601089477539,-0.39043891429901123,0.11181207746267319
1782811408817092000,4.786092041015625,0.7236846685409546,-0.4051608741283417,0.11748221516609192
1782811408827163100,4.7961630859375,0.6869029402732849,-0.3881208896636963,0.1189674586057663
1782811408837235200,4.806235107421875,0.6392378211021423,-0.35495156049728394,0.11274710297584534
1782811408847306200,4.81630615234375,0.5903845429420471,-0.3072495460510254,0.10981283336877823
1782811408857377000,4.826376953125,0.5393214821815491,-0.25908976793289185,0.10450354218482971
1782811408867449300,4.836449462890625,0.48603108525276184,-0.23733921349048615,0.10605749487876892
1782811408877520100,4.84652001953125,0.42958375811576843,-0.21619297564029694,0.100712850689888
1782811408887591200,4.856591064453125,0.3861050009727478,-0.19669358432292938,0.09998580813407898
1782811408897663200,4.866663330078125,0.3477393090724945,-0.17839710414409637,0.10450072586536407
1782811408907734300,4.876734375,0.324757844209671,-0.1513572335243225,0.09946468472480774
1782811408917806000,4.88680615234375,0.30902186036109924,-0.1325417160987854,0.07814469933509827
1782811408927877000,4.896877197265625,0.2949552834033966,-0.14141057431697845,0.04156351834535599
1782811408937948200,4.9069482421875,0.2835833430290222,-0.16971172392368317,-0.003841513767838478
1782811408948020200,4.917020263671875,0.28205734491348267,-0.1915067583322525,-0.03947221115231514
1782811408958091300,4.92709130859375,0.28553441166877747,-0.19477377831935883,-0.07764199376106262
1782811408968162000,4.937162109375,0.28543347120285034,-0.20539340376853943,-0.12075191736221313
1782811408978234000,4.947234130859375,0.2746541500091553,-0.23866531252861023,-0.16570799052715302
1782811408988305200,4.95730517578125,0.25631001591682434,-0.2942441403865814,-0.20449426770210266
1782811408998376200,4.967376220703125,0.249414324760437,-0.33201682567596436,-0.21137668192386627
1782811409008448000,4.977447998046875,0.25100207328796387,-0.33610981702804565,-0.20388254523277283
1782811409018519000,4.98751904296875,0.24888968467712402,-0.34849411249160767,-0.1898242086172104
1782811409028591000,4.997591064453125,0.22923369705677032,-0.3923971354961395,-0.18887238204479218
1782811409038662100,5.007662109375,0.196788027882576,-0.456817626953125,-0.1984696090221405
1782811409048733200,5.017733154296875,0.1669049710035324,-0.5430148243904114,-0.22286123037338257
1782811409058805200,5.02780517578125,0.16035939753055573,-0.6169134378433228,-0.25444576144218445
1782811409068876300,5.037876220703125,0.17531278729438782,-0.6467717289924622,-0.2565760314464569
1782811409078947000,5.047947021484375,0.1963343322277069,-0.6175796389579773,-0.22374887764453888
1782811409089019100,5.05801904296875,0.18379271030426025,-0.555055558681488,-0.16654923558235168
1782811409099090200,5.068090087890625,0.1269100308418274,-0.4821319580078125,-0.09889006614685059
1782811409109162000,5.078161865234375,0.0474623404443264,-0.42491260170936584,-0.04480765387415886
1782811409119233000,5.08823291015625,-0.03200657665729523,-0.37722209095954895,-0.004729099106043577
1782811409129304000,5.098303955078125,-0.09803539514541626,-0.3306815028190613,0.009150763973593712
1782811409139376000,5.108376220703125,-0.15450315177440643,-0.2944023609161377,-0.005581917706876993
1782811409149447200,5.118447265625,-0.19496242702007294,-0.2520786225795746,-0.027199329808354378
1782811409159518200,5.128518310546875,-0.22140106558799744,-0.1667943000793457,-0.03591104969382286
1782811409169590300,5.13859033203125,-0.23184332251548767,-0.049345970153808594,-0.028535425662994385
1782811409179661600,5.14866162109375,-0.2388806939125061,0.04335995018482208,-0.036324452608823776
1782811409189732600,5.158732666015625,-0.27744433283805847,0.08673219382762909,-0.08025116473436356
1782811409199804700,5.1688046875,-0.3350182771682739,0.08693301677703857,-0.15649466216564178
1782811409209875500,5.17887548828125,-0.4105953276157379,0.06501813232898712,-0.24293208122253418
1782811409219947500,5.188947509765625,-0.49759575724601746,0.050149302929639816,-0.3263402581214905
1782811409230018600,5.1990185546875,-0.5827199816703796,0.062238723039627075,-0.38911256194114685
1782811409240089600,5.209089599609375,-0.6491542458534241,0.10692645609378815,-0.41652417182922363
1782811409250161700,5.21916162109375,-0.6788748502731323,0.19468481838703156,-0.4096100628376007
1782811409260232700,5.229232666015625,-0.6551399827003479,0.3193526864051819,-0.360900342464447
1782811409270303500,5.239303466796875,-0.6031519770622253,0.45363694429397583,-0.28928449749946594
1782811409280375600,5.24937548828125,-0.5580167770385742,0.528938353061676,-0.20316822826862335
1782811409290446600,5.259446533203125,-0.5303212404251099,0.5058740973472595,-0.11797211319208145
1782811409300518400,5.269518310546875,-0.505058228969574,0.4278740882873535,-0.03782128170132637
1782811409310589400,5.27958935546875,-0.47543102502822876,0.3413408100605011,0.030582277104258537
1782811409320660500,5.289660400390625,-0.4412737190723419,0.2898537516593933,0.09991976618766785
1782811409330732500,5.299732666015625,-0.40689817070961,0.2849588394165039,0.1596486121416092
1782811409340803600,5.309803466796875,-0.3687421381473541,0.30250924825668335,0.19974254071712494
1782811409350873300,5.319873291015625,-0.34439924359321594,0.2989283800125122,0.20585769414901733
1782811409360945700,5.329945556640625,-0.3306085765361786,0.2649460434913635,0.18772484362125397
1782811409371016400,5.340016357421875,-0.32554590702056885,0.21062740683555603,0.14150382578372955
1782811409381087500,5.35008740234375,-0.32685720920562744,0.142319917678833,0.0781218484044075
1782811409391159600,5.36015966796875,-0.3405458629131317,0.0702396109700203,0.004562679212540388
1782811409401230600,5.370230712890625,-0.3480880856513977,0.017942210659384727,-0.06107035651803017
1782811409411302700,5.380302734375,-0.3324334919452667,0.010541019029915333,-0.10833507776260376
1782811409421373700,5.390373779296875,-0.2999984323978424,0.02907354012131691,-0.13732773065567017
1782811409431444700,5.40044482421875,-0.2778923213481903,0.04790129140019417,-0.14306923747062683
1782811409441516500,5.4105166015625,-0.27456918358802795,0.046131432056427,-0.13353298604488373
1782811409451587600,5.420587646484375,-0.27593138813972473,0.06861303746700287,-0.09414135664701462
1782811409461658400,5.430658447265625,-0.25916019082069397,0.11943379044532776,-0.04354972019791603
1782811409471730400,5.44073046875,-0.2361571490764618,0.1667347103357315,0.010269034653902054
1782811409481801500,5.450801513671875,-0.19903035461902618,0.20339824259281158,0.07190032303333282
1782811409491873500,5.46087353515625,-0.1609109342098236,0.24108463525772095,0.1375456601381302
1782811409501944600,5.470944580078125,-0.1311178356409073,0.2759135365486145,0.19651098549365997
1782811409512015600,5.481015625,-0.11503074318170547,0.3016314208507538,0.23037095367908478
1782811409522087700,5.491087646484375,-0.10475386679172516,0.33237943053245544,0.24638643860816956
1782811409532158700,5.50115869140625,-0.0995684266090393,0.38167667388916016,0.23404642939567566
1782811409542229800,5.511229736328125,-0.09732749313116074,0.41189971566200256,0.1942259520292282
1782811409552301600,5.521301513671875,-0.0947924330830574,0.40645673871040344,0.14246448874473572
1782811409562372600,5.53137255859375,-0.09272073209285736,0.36801275610923767,0.08597952127456665
1782811409572444700,5.541444580078125,-0.09656580537557602,0.27158820629119873,0.02777133695781231
1782811409582515500,5.551515380859375,-0.10734964907169342,0.14933182299137115,-0.005084135103970766
1782811409592586500,5.56158642578125,-0.10621806979179382,0.030984675511717796,-0.015649428591132164
1782811409602658600,5.571658447265625,-0.08068288862705231,-0.04604186490178108,-0.004113726783543825
1782811409612729600,5.5817294921875,-0.04615607485175133,-0.0813836082816124,0.013007735833525658
1782811409622800600,5.591800537109375,-0.01928105019032955,-0.08342332392930984,0.04118291661143303
1782811409632872700,5.601872802734375,-0.0060776290483772755,-0.07945042103528976,0.06887206435203552
1782811409642943700,5.61194384765625,0.006479555740952492,-0.07890830934047699,0.09901376068592072
1782811409653015600,5.622015625,0.018245402723550797,-0.05646025761961937,0.1242634579539299
1782811409663086600,5.632086669921875,0.03296991437673569,0.00546493474394083,0.13410943746566772
1782811409673157600,5.64215771484375,0.028347197920084,0.07595587521791458,0.10149450600147247
1782811409683229700,5.652229736328125,0.014999921433627605,0.1548934280872345,0.032070450484752655
1782811409693300500,5.662300537109375,0.011985222809016705,0.2381523698568344,-0.06364089250564575
1782811409703371500,5.67237158203125,0.0502810999751091,0.38376957178115845,-0.16564346849918365
1782811409713443600,5.682443603515625,0.14503291249275208,0.5665420889854431,-0.2804635167121887
1782811409723514600,5.6925146484375,0.25599735975265503,0.624855637550354,-0.40195754170417786
1782811409733585700,5.702585693359375,0.2843683063983917,0.500679075717926,-0.4679701030254364
1782811409743658500,5.712658447265625,0.20961466431617737,0.5188965201377869,-0.2938494086265564
1782811409753729500,5.7227294921875,0.08249559253454208,0.42289119958877563,-0.12259671837091446
1782811409763800600,5.732800537109375,0.013066493906080723,0.38898319005966187,0.09901740401983261
1782811409773872600,5.74287255859375,0.0370626375079155,0.31953752040863037,0.2644364535808563
1782811409783943700,5.752943603515625,0.10651612281799316,0.1916586011648178,0.3391847312450409
1782811409794015700,5.763015625,0.18889088928699493,0.08845312893390656,0.32429900765419006
1782811409804086800,5.773086669921875,0.2547228932380676,-0.09864044934511185,0.20901276171207428
1782811409814157600,5.783157470703125,0.2868874669075012,-0.37348586320877075,0.04204588755965233
1782811409824229400,5.7932294921875,0.30518215894699097,-0.5164992809295654,-0.053726669400930405
1782811409834300400,5.803300537109375,0.30532199144363403,-0.6379721760749817,-0.0945526659488678
1782811409844371500,5.813371337890625,0.31169968843460083,-0.9141324758529663,-0.11312636733055115
