time,seconds_elapsed,z,y,x
1782811444156722400,0.059722412109375,0.1901543230652809,-0.09008739042133092,0.2013904412202537
1782811444166793500,0.06979345703125,0.26971710460186005,-0.11919511922299861,0.2278757125638425
1782811444176865300,0.079865234375,0.1912871264874935,-0.11821326857879758,0.1991283415071666
1782811444186936300,0.089936279296875,0.0633861382395029,-0.08992503946647047,0.16841463881358504
1782811444197007400,0.10000732421875,-0.05684066211879253,-0.16489757060334084,0.08322174243554473
1782811444207079400,0.110079345703125,-0.10748480768501759,-0.18449542052075266,0.00961143956258893
1782811444217150500,0.120150390625,-0.16642273434400556,-0.2386532732963562,-0.021266367651522157
1782811444227221500,0.130221435546875,-0.2202957788288593,-0.21552096564248202,-0.06135229432433843
1782811444237293600,0.14029345703125,-0.09119944331645966,-0.17876915182843803,-0.0733409844122827
1782811444247364600,0.150364501953125,0.1271463704884052,-0.18267799583524463,-0.03432327149286866
1782811444257435600,0.160435546875,0.13964812466502188,-0.20991028615385293,-0.019846417851001025
1782811444267507500,0.170507568359375,0.09934358680546283,-0.20540844468995928,-0.012977116603404283
1782811444277578500,0.18057861328125,0.1332160457909107,-0.13351663617268203,0.00731309949234128
1782811444287650600,0.190650634765625,0.14601473708748816,-0.07731763295829296,0.04507350582703948
1782811444297721300,0.200721435546875,0.19736673866212368,-0.04692717086970806,0.09545534719526767
1782811444307792400,0.21079248046875,0.200633631503582,0.01372778884023428,0.10343407098948955
1782811444317864400,0.220864501953125,0.1446452022999525,0.059108168659359216,0.10714008590057492
1782811444327935500,0.230935546875,0.030747020441293713,0.06554375466480851,0.0612305676408112
1782811444338006500,0.241006591796875,-0.038138884258270264,0.08815160005316137,0.0064461073994636535
1782811444348078600,0.25107861328125,-0.055154316467046736,0.07321224346607923,-0.03552475623711943
1782811444358149600,0.261149658203125,-0.034893034204840655,0.046817719145864245,-0.04813669278994202
1782811444368221400,0.271221435546875,0.03629471769630909,0.03365282488539815,-0.05741086322218179
1782811444378292500,0.28129248046875,0.07762158434092999,0.018694032945483923,-0.081205141916126
1782811444388363500,0.291363525390625,0.06277881999611855,0.014690642523020506,-0.07749298952519894
1782811444398435600,0.301435546875,0.1144464633911848,-0.027007103260606527,-0.07218231589645147
1782811444408506400,0.31150634765625,0.1834223844617605,-0.04310045218840241,-0.09271145531460642
1782811444418577400,0.321577392578125,0.25277473762929437,-0.06695026046186685,-0.10745002863258123
1782811444428649500,0.3316494140625,0.2972626986533403,-0.07341185769140719,-0.1047710186816752
1782811444438720500,0.341720458984375,0.31965982390046116,-0.07241656304374337,-0.08578034087717533
1782811444448792600,0.35179248046875,0.3718436001241207,-0.07024097257032991,-0.07210048283189535
1782811444458863600,0.361863525390625,0.3317185104846954,-0.08798603422790766,-0.08374708148390055
1782811444468934700,0.3719345703125,0.2065805572092533,-0.1278133099645376,-0.12922244611009956
1782811444479006500,0.38200634765625,-0.02932195607423782,-0.16837854458689688,-0.2171416987121105
1782811444489077500,0.392077392578125,-0.20711597926020622,-0.1336728496477008,-0.2438211774535477
1782811444499148300,0.402148193359375,-0.21345395011007784,-0.12110066058337687,-0.18397841090932487
1782811444509220600,0.412220703125,-0.19918810887038707,-0.12510595070198177,-0.11535627171248197
1782811444519291400,0.42229150390625,-0.17736439959704875,-0.1109684120170772,-0.12551263180673122
1782811444529362400,0.432362548828125,-0.03984744174182415,-0.11046937645375728,-0.13171046353355048
1782811444539434500,0.4424345703125,0.1874707830697298,-0.16833908935934305,-0.12418781294375657
1782811444549505500,0.452505615234375,0.33608664256632326,-0.23385785571336745,-0.13298428286164998
1782811444559577300,0.462577392578125,0.4112520659267902,-0.25472104939147827,-0.12187427530437707
1782811444569648400,0.4726484375,0.43497605586349963,-0.2682166369110346,-0.06842062527537346
1782811444579719400,0.482719482421875,0.3711889356076717,-0.27746055833548305,-0.025158991175889968
1782811444589791500,0.49279150390625,0.2315899107813835,-0.27451646770760413,-0.030110768364369867
1782811444599862500,0.502862548828125,0.1365717859596014,-0.22103183801844714,-0.010757394727319479
1782811444609933300,0.512933349609375,0.14169336675703526,-0.19683796554766594,0.02968655160292983
1782811444620005400,0.52300537109375,0.15741408298015594,-0.18284955300986766,0.054084787539392706
1782811444630076400,0.533076416015625,0.1435954009860754,-0.20613683202974498,0.06499795735031366
1782811444640148500,0.5431484375,0.04797814122736454,-0.20289375845529137,0.060692807502299544
1782811444650219500,0.553219482421875,-0.057719783040881156,-0.19874160721190273,0.06543591037616134
1782811444660290600,0.56329052734375,-0.1655681633412838,-0.21754852594733237,0.03890723828226328
1782811444670362400,0.5733623046875,-0.23127836061418056,-0.2314859389502555,0.022242080815881488
1782811444680433400,0.583433349609375,-0.26207038924098014,-0.20224471996203064,0.06379033512622118
1782811444690504400,0.59350439453125,-0.27952362834513184,-0.1483757671304047,0.0891224909119308
1782811444700576500,0.603576416015625,-0.24109832836091516,-0.0727672031123191,0.1556112713418901
1782811444710647600,0.6136474609375,-0.1303320147871971,-0.049101007777452466,0.21183380156233905
1782811444720719600,0.6237197265625,-0.04547112684249878,-0.05958572304323315,0.2157489291794598
1782811444730790400,0.633790283203125,-0.07015431720018386,-0.04611490463875234,0.22994696587994692
1782811444740861400,0.643861328125,-0.1239753392368555,-0.03955744581930339,0.23360724195316432
1782811444750933500,0.65393359375,-0.197561968973279,-0.05426708530373871,0.19661402059867977
1782811444761004500,0.664004638671875,-0.226195358261466,-0.0599404547650367,0.15101780607178805
1782811444771075600,0.67407568359375,-0.12651391780376434,-0.05577266756109893,0.1533525326296687
1782811444781147400,0.6841474609375,0.07678747160434722,-0.03042173400968313,0.18333543683066963
1782811444791218400,0.694218505859375,0.2436889293760061,-0.025652473781257866,0.19424816825017333
1782811444801290500,0.70429052734375,0.25053777235746383,-0.04306172761321068,0.15642302611619233
1782811444811361500,0.714361572265625,0.1493120250672102,-0.07330817812122405,0.10705474570468068
1782811444821432600,0.7244326171875,0.06833820768892765,-0.12382592082880436,0.04978139125704765
1782811444831504600,0.734504638671875,0.07582651761770248,-0.16034560638740658,-0.006522241375595331
1782811444841575400,0.744575439453125,0.03214928845465183,-0.17031550399884582,-0.03475450251698494
1782811444851646500,0.754646484375,-0.10024725764691829,-0.12208185364045201,-0.06422244293317199
1782811444861718500,0.764718505859375,-0.07807108167409896,-0.08588979260101914,-0.04232976007685065
1782811444871789600,0.77478955078125,0.11528992847800254,-0.09723448569700122,0.023578443986177443
1782811444881860600,0.784860595703125,0.3236316501408815,-0.15337101813443005,0.0669574208550155
1782811444891932400,0.794932373046875,0.5199567707955837,-0.169439086490497,0.06952975556105374
1782811444902003500,0.80500341796875,0.8214905708968638,-0.16900222944319246,0.11272329286038875
1782811444912075500,0.815075439453125,1.055699724265933,-0.1857161944873631,0.17638912482410668
1782811444922146600,0.825146484375,1.12899993827641,-0.19402590380162,0.1631662167660892
1782811444932217600,0.835217529296875,1.013138347390294,-0.2535544167649001,0.04672799503579735
1782811444942289700,0.84528955078125,0.6400152288496493,-0.3501342379454523,-0.184033209836483
1782811444952360400,0.8553603515625,0.13366729668974875,-0.42419162699878216,-0.42726694279089567
1782811444962431500,0.865431396484375,-0.4031225354850292,-0.42667160724624986,-0.5746155588306486
1782811444972503300,0.87550341796875,-0.7461801861077547,-0.436633833007887,-0.6574187835931777
1782811444982574300,0.88557421875,-0.9279594795376062,-0.4092333465155214,-0.6150087978869676
1782811444992646400,0.895646484375,-1.0901689801007508,-0.2719615225277841,-0.5072400586940348
1782811445002717400,0.905717529296875,-1.05415717099905,-0.14570610952973365,-0.2861559059664607
1782811445012788500,0.91578857421875,-0.8394950141429901,-0.07185717559531331,-0.12188567348122596
1782811445022860500,0.925860595703125,-0.5504238052517175,-0.08385982114337384,-0.047585342517495154
1782811445032931600,0.935931640625,-0.21837153276801108,-0.10495397403314709,0.014508417823910713
1782811445043002400,0.94600244140625,0.07834229983091354,-0.11416172816567122,0.11107888665422797
1782811445053074700,0.95607470703125,0.30562369976341724,-0.13769801351055502,0.19497297539338468
1782811445063145500,0.9661455078125,0.38437165778577326,-0.18527838759198784,0.2428423955492675
1782811445073216500,0.976216552734375,0.29708675756454467,-0.15898703138530254,0.2254438092418015
1782811445083288300,0.986288330078125,0.12284545842409134,-0.13501812677681446,0.23874694292917847
1782811445093359400,0.996359375,-0.02950900307893753,-0.17733415058925747,0.20258491170182824
1782811445103431400,1.006431396484375,-0.1171609830468893,-0.2520657856423408,0.16178864480257032
1782811445113502500,1.01650244140625,-0.18649638507962227,-0.274828675461933,0.13852993429005145
1782811445123573500,1.026573486328125,-0.21654607090651987,-0.27518070376999676,0.14622121944501995
1782811445133645600,1.0366455078125,-0.15695055712163447,-0.27424349598512054,0.1986841048710048
1782811445143716600,1.046716552734375,-0.14131401205062866,-0.248146493306756,0.2543495857305825
1782811445153787400,1.056787353515625,-0.08863865291774273,-0.2332026066750288,0.28037615352123973
1782811445163859500,1.066859375,0.04851297875642776,-0.24855456265099346,0.32767230383381246
1782811445173930500,1.076930419921875,0.09096095838546753,-0.28044308127760886,0.3205969586201012
1782811445184002300,1.087002197265625,0.09007131606936454,-0.303116173921898,0.32743469568565486
1782811445194073300,1.0970732421875,0.10226794981956482,-0.3440838518653065,0.30908158513233064
1782811445204144400,1.107144287109375,0.14902970099449156,-0.4266977646008134,0.28580650800690055
1782811445214216000,1.1172158203125,0.14590309340655802,-0.4850658554825932,0.2583141054473817
1782811445224287000,1.127286865234375,0.003156418204307556,-0.4903798901122063,0.2152515010513365
1782811445234358000,1.13735791015625,-0.18266776670217513,-0.49440965708494183,0.17624840117916463
1782811445244430000,1.14743017578125,-0.12140285840034484,-0.5006021550495178,0.18650310708135365
1782811445254500900,1.1575009765625,0.06353343775570393,-0.4941226568371057,0.2527706459760666
1782811445264572000,1.167572021484375,0.12921966963112352,-0.3831466460354626,0.32860680820494886
1782811445274644000,1.17764404296875,0.1565793857216835,-0.2551389825426042,0.42636210290566084
1782811445284715000,1.187715087890625,0.1531190161347389,-0.2245934029575437,0.4660219131208956
1782811445294786800,1.197786865234375,0.029971944415569305,-0.2293574024889618,0.4411280026219785
1782811445304857900,1.20785791015625,-0.22890344817638397,-0.23542466663867234,0.3842945008963346
1782811445314929000,1.217928955078125,-0.4169254353880882,-0.23598507700040935,0.3245398510269821
1782811445325001000,1.2280009765625,-0.4249854077249765,-0.27931510016098615,0.2827994351454079
1782811445335072000,1.238072021484375,-0.254690800383687,-0.3413587377503514,0.2356884321413934
1782811445345143000,1.24814306640625,0.012649638214707375,-0.4077719687260687,0.2120338541790843
1782811445355215000,1.258215087890625,0.2994371200829744,-0.46005430995337665,0.2107803469866514
1782811445365286000,1.268285888671875,0.5079226341307163,-0.565846049984917,0.22140242489650844
1782811445375357000,1.27835693359375,0.532214779344201,-0.6226422884400934,0.21690219086781143
1782811445385429000,1.288428955078125,0.45449090367257594,-0.6543822654414921,0.20548925484120845
1782811445395500000,1.2985,0.3700491179227829,-0.7026442651115358,0.17828253735527394
1782811445405571800,1.30857177734375,0.22176585138142108,-0.7017807801499962,0.1948712685845792
1782811445415643000,1.318642822265625,0.07790040128231047,-0.6977158687986433,0.2148221697233617
1782811445425714000,1.3287138671875,-0.01935878046452999,-0.7134776476845145,0.2426033260963857
1782811445435786000,1.338785888671875,-0.1024555813461542,-0.7251203008137643,0.25498218454569577
1782811445445857000,1.34885693359375,-0.1405278301090002,-0.7602399103160947,0.3034161067165434
1782811445455928000,1.358927978515625,-0.14130173709094523,-0.8322218082696199,0.33255788391828534
1782811445466000100,1.369000244140625,-0.15012860214710236,-0.8805854416832327,0.33988866519778965
1782811445476071000,1.37907080078125,-0.19255144733488558,-0.8548049576081335,0.3608648177310824
1782811445486143000,1.38914306640625,-0.1380705000847578,-0.8412432460498064,0.423109238589555
1782811445496214000,1.399214111328125,-0.023217209458351134,-0.8465763507060706,0.47222646684944625
1782811445506285000,1.40928515625,0.044569794088602066,-0.8376132920496165,0.5017693721979857
1782811445516356900,1.41935693359375,0.0012064531803131103,-0.8138469242759049,0.49781069770008324
1782811445526428000,1.429427978515625,-0.05016366857290268,-0.7963166013475507,0.5232077354155481
1782811445536499000,1.4394990234375,-0.10313304221630096,-0.7687630431853234,0.5728422655478119
1782811445546571000,1.449571044921875,-0.14129589187204836,-0.7578936394508927,0.5849966675914824
1782811445556642000,1.45964208984375,-0.1072270335316658,-0.7534345411501825,0.5739886591039598
1782811445566713000,1.469713134765625,-0.012132336342334746,-0.7814988983787595,0.5625517576798796
1782811445576785200,1.47978515625,0.043614100798964495,-0.8173029099486768,0.5331244415350258
1782811445586856000,1.48985595703125,0.07489712781310082,-0.8271626982491463,0.48101314602568745
1782811445596928000,1.499927978515625,0.1330120476514101,-0.8752974182777106,0.4244043929666281
1782811445606999000,1.5099990234375,0.14765899716317651,-0.9143732911251485,0.3830364636592567
1782811445617070000,1.520070068359375,0.09638882865309714,-0.9622359162140637,0.28896409525498745
1782811445627142000,1.530141845703125,0.07437807237505913,-0.9851220670871436,0.2310768466927111
1782811445637213000,1.540212890625,0.16575871747732163,-0.9938933294985443,0.2522996674634516
1782811445647284000,1.550283935546875,0.24828385595083236,-0.9708305068843066,0.2801435138091445
1782811445657356000,1.56035595703125,0.23590835850238798,-0.9770064921054988,0.26934330285340546
1782811445667427000,1.570427001953125,0.20624796425402164,-0.9892570480000227,0.24418065841570494
1782811445677497900,1.580497802734375,0.22607728483974932,-1.0389574099101127,0.22354849701449273
1782811445687570200,1.590570068359375,0.2674164264440536,-1.072473456673324,0.22685089956074952
1782811445697641000,1.600640869140625,0.219582077601552,-1.038607135167718,0.2107863383360207
1782811445707712800,1.610712646484375,0.11302490615546702,-0.9909921281643211,0.21007570584863422
1782811445717783800,1.62078369140625,-0.050042088019847865,-0.9397091001726686,0.2339499179109931
1782811445727854800,1.630854736328125,-0.14505086049139498,-0.8946352290194481,0.2781806893035769
1782811445737927000,1.640927001953125,-0.19611352373063562,-0.8824643872976302,0.30993601000458
1782811445747998000,1.650998046875,-0.24385668715834616,-0.8595454301334917,0.26655162630826235
1782811445758069000,1.661069091796875,-0.30117724174857136,-0.844449567810446,0.27004472912102934
1782811445768141000,1.67114111328125,-0.29183658195137974,-0.8162041549265384,0.2624615805156529
1782811445778212000,1.681212158203125,-0.222222947499156,-0.8280594278931617,0.24562340456992388
1782811445788284200,1.6912841796875,-0.13732348110973835,-0.8274349393192678,0.24210545957684515
1782811445798355000,1.70135498046875,-0.07479483648240566,-0.8606152513220906,0.24079919928386806
1782811445808426000,1.711426025390625,-0.11683481983244419,-0.8895815988916903,0.16549831297546624
1782811445818497800,1.721497802734375,-0.30850889981091023,-0.8718919206831603,0.0802620158471167
1782811445828568800,1.73156884765625,-0.49790685155093667,-0.8467600367099046,0.02733794265016913
1782811445838639900,1.741639892578125,-0.4988783269315958,-0.8395912410590797,0.02256356785520911
1782811445848712000,1.7517119140625,-0.44297348435819145,-0.8086978709496557,-0.005072188697755336
1782811445858783000,1.761782958984375,-0.46773909230232236,-0.7667454197525978,-0.05692322583571076
1782811445868854000,1.77185400390625,-0.4469143309384584,-0.7916075468737631,-0.12654387455061078
1782811445878926000,1.781926025390625,-0.36276071448028085,-0.8146795757077634,-0.2348072653926909
1782811445888997000,1.7919970703125,-0.256695710465312,-0.8702753523319959,-0.41166868390366435
1782811445899069200,1.802069091796875,-0.19100714050233364,-0.9531183245830237,-0.4655285766460001
1782811445909140000,1.812139892578125,-0.26483283969163895,-1.0184697715461253,-0.41688598016053435
1782811445919211000,1.8222109375,-0.5163181220322847,-0.9850484173290431,-0.29495076844915746
1782811445929282800,1.83228271484375,-0.900055573567748,-0.7909408265933394,-0.17377718876004217
1782811445939353900,1.842353759765625,-1.339497376668453,-0.4525910979332402,-0.04259703271090984
1782811445949425000,1.8524248046875,-1.7592659265279769,-0.0340231195025146,0.08742606225758791
1782811445959497000,1.8624970703125,-1.9211399115264414,0.3244168457018211,0.2529989017739892
1782811445969568000,1.872568115234375,-1.732073968219757,0.5136147813577204,0.34572014783024785
1782811445979640000,1.88264013671875,-1.2001362522512673,0.567022984809801,0.30981749819144605
1782811445989711000,1.892711181640625,-0.5175380192160606,0.4158755244763568,0.27414500404670833
1782811445999782100,1.9027822265625,0.10918868899345398,0.16093940756209194,0.289558992408216
1782811446009854000,1.91285400390625,0.5669517462044954,-0.04991108205132186,0.2692348740428686
1782811446019925000,1.922925048828125,0.9586778584063053,-0.2189927699388936,0.21811010535284875
1782811446029996000,1.93299609375,1.1603326496511697,-0.3571291748667136,0.2152608534015715
1782811446040067800,1.94306787109375,1.1531962218999863,-0.46271516319308426,0.25597294914871455
1782811446050139000,1.953138916015625,0.9761293439447879,-0.46255854785926637,0.24366847110986709
1782811446060210000,1.9632099609375,0.6296335355669259,-0.3677720398362726,0.26003449949920177
1782811446070282000,1.973281982421875,0.20291560496091843,-0.2585102125413716,0.2741122708208859
1782811446080353000,1.98335302734375,-0.24998306108415125,-0.13481610139869152,0.31252193484455343
1782811446090425000,1.993425048828125,-0.5526543407827615,-0.06313990839347243,0.30043577573150393
1782811446100496100,2.00349609375,-0.707374362373352,-0.01773464986141771,0.23834464573860167
1782811446110567200,2.013567138671875,-0.7042594452232122,-0.05791121395975351,0.16489055634066463
1782811446120639000,2.023638916015625,-0.4848901335895061,-0.15531400542836635,0.09721022803857922
1782811446130709800,2.033709716796875,-0.18618366586863994,-0.2101728095475584,0.06820376765429974
1782811446140780800,2.04378076171875,0.19181611879765986,-0.23149920029062776,0.059366819595545524
1782811446150852900,2.053852783203125,0.4797632920950651,-0.24600348992869256,0.06069967563450336
1782811446160924000,2.063923828125,0.6384545554041862,-0.2071923689646646,0.07640460976660252
1782811446170995000,2.073994873046875,0.7166793663352727,-0.10429408535230904,0.18259718568399547
1782811446181067000,2.08406689453125,0.7207423779904842,0.01650916318707168,0.2748870545856654
1782811446191138000,2.094137939453125,0.6011784254550934,0.1058310125960037,0.3460281908661127
1782811446201210000,2.104210205078125,0.2835106521546841,0.1715420135864988,0.3802081083655357
1782811446211281200,2.11428125,-0.058981181278824804,0.24339736255090683,0.3803112764790654
1782811446221352700,2.124352783203125,-0.2787929759830236,0.2569119104992598,0.3705331020474434
1782811446231424500,2.134424560546875,-0.3325204745173454,0.2341162143886089,0.31962855197936296
1782811446241495300,2.144495361328125,-0.29876491990983484,0.19902787680737674,0.21347747711613774
1782811446251566300,2.15456640625,-0.09309329423904418,0.16870123720262198,0.13050444874465464
1782811446261638400,2.164638427734375,0.15724983232915402,0.029334596360102293,0.015799626678228377
1782811446271709400,2.17470947265625,0.2811041755348444,-0.10180657938551158,-0.10005597285851836
1782811446281780500,2.184780517578125,0.41692777347564697,-0.2103710720660165,-0.23760654072239992
1782811446291852500,2.1948525390625,0.6791933930277824,-0.2796162750646472,-0.32659298416450616
1782811446301923600,2.204923583984375,0.9070756814628839,-0.39052250856570897,-0.3522445811629295
1782811446311995400,2.214995361328125,0.9906851080417632,-0.48228301983103156,-0.3690523619703948
1782811446322066400,2.22506640625,1.0744126080423593,-0.648057957790792,-0.44866789660751816
1782811446332137500,2.235137451171875,1.1695061361879109,-0.8328967849217355,-0.5515830582894384
1782811446342209500,2.24520947265625,1.208665595665574,-1.0546356752309947,-0.6771461051091552
1782811446352280300,2.2552802734375,1.2068483171105384,-1.2946331296779214,-0.8261730296246707
1782811446362351400,2.265351318359375,1.217498305940628,-1.5203236071571706,-0.9046488927073776
1782811446372423400,2.27542333984375,1.165153201675415,-1.7005507027089595,-0.9097036918789148
1782811446382494500,2.285494384765625,1.0463619870781897,-1.7679481224164366,-0.8950469516254961
1782811446392566500,2.29556640625,0.9842460149049759,-1.8021644264034926,-0.8231522204987705
1782811446402637600,2.305637451171875,0.8890145395934581,-1.8007861237876117,-0.7753155335687101
1782811446412708600,2.31570849609375,0.7730155860632657,-1.7682080885268747,-0.6334022404506802
1782811446422780400,2.325780517578125,0.6844429841190576,-1.7616633430585265,-0.4891019060656428
1782811446432851500,2.3358515625,0.5623164876192808,-1.7332305909089742,-0.3567825168535113
1782811446442922500,2.345922607421875,0.37179040863215923,-1.6412790140509605,-0.27996172750145193
1782811446452994600,2.35599462890625,0.2098614785760641,-1.610477340812981,-0.19610607107654213
1782811446463065300,2.3660654296875,0.14942717587947846,-1.6092207648806274,-0.12588424159809947
1782811446473136400,2.376136474609375,0.16804712067544458,-1.6617545235857367,-0.0674623016372323
1782811446483208400,2.38620849609375,0.24110008192658422,-1.734539481550455,-0.005609072053432464
1782811446493279500,2.396279541015625,0.33497254384458064,-1.7369944734871385,0.07187324994727969
1782811446503351600,2.4063515625,0.3551169217288494,-1.7159741895511746,0.18246186886653304
1782811446513422600,2.416422607421875,0.20754034215211867,-1.6625827911034226,0.25507336996048685
1782811446523493600,2.42649365234375,-0.06352525444924831,-1.550071971949935,0.32531478092223404
1782811446533565400,2.4365654296875,-0.22119594253897665,-1.4891747279167173,0.38643224357739087
1782811446543636500,2.446636474609375,-0.3181453276842832,-1.468043384821713,0.40289062642529605
1782811446553707500,2.45670751953125,-0.4917787240594625,-1.4349742050431669,0.39283275826945896
1782811446563779600,2.466779541015625,-0.7367471718519926,-1.340129537092149,0.3469666407600045
1782811446573850400,2.476850341796875,-1.0252601623386144,-1.289427523858845,0.21980273461490868
1782811446583921400,2.48692138671875,-1.1075853943258522,-1.23746908082366,0.06891615370735525
1782811446593993500,2.496993408203125,-0.8236141389220952,-1.1581374776944517,0.016585662489384412
1782811446604064500,2.507064453125,-0.43768823743164537,-1.1647041427336633,0.02408522446453571
1782811446614136600,2.517136474609375,-0.13088438797295093,-1.2076105336546896,0.05894055700749159
1782811446624207600,2.52720751953125,-0.021484686577320097,-1.2537529838874935,0.09918050519824027
1782811446634278700,2.537278564453125,-0.12016834816932677,-1.2342819752201437,0.09681991354674101
1782811446644350500,2.5473505859375,-0.46156186497211454,-1.083863888607174,0.09152794461846352
1782811446654421500,2.55742138671875,-0.9505366375267505,-0.7354338972963392,0.12686258511096238
1782811446664492300,2.5674921875,-1.3868196843355893,-0.29018720730915665,0.17202099274247884
1782811446674564600,2.577564697265625,-1.5047300244450568,0.1422987853042781,0.30369097813516854
1782811446684635400,2.587635498046875,-1.3932967713952065,0.5657540608525276,0.4686912784606218
1782811446694707500,2.59770751953125,-1.1965659925490617,0.8630562147334218,0.5414303514569997
1782811446704778500,2.607778564453125,-0.9440858539521694,1.0480718597359955,0.5277002245292067
1782811446714849500,2.617849609375,-0.6035334641486406,1.1628262200325727,0.5557365247070789
1782811446724921300,2.62792138671875,-0.21700784319937227,1.237129181344807,0.6328849385783076
1782811446734992400,2.637992431640625,0.025233225455880165,1.2841861160740256,0.6558735999777913
1782811446745063400,2.6480634765625,0.22087971619665622,1.2779288092449306,0.6199301799371838
1782811446755135500,2.658135498046875,0.40797056003808974,1.242492023552209,0.5319567129299044
1782811446765206500,2.66820654296875,0.5361515342712402,1.2283954013995826,0.3705298871770501
1782811446775277300,2.67827734375,0.6547761601299047,1.2780819539800286,0.22445172946453093
1782811446785349400,2.688349365234375,0.7468991480320691,1.3418556302323936,0.1574523691639304
1782811446795420400,2.69842041015625,0.7911638216942548,1.357830613477528,0.21030308486372232
1782811446805492500,2.708492431640625,0.8940852669864893,1.34152172210291,0.26059008755534885
1782811446815563500,2.7185634765625,0.9952654215693473,1.3062639462389052,0.31634558478593827
1782811446825634600,2.728634521484375,1.0603624553799629,1.2622940177395938,0.30023206985294815
1782811446835706400,2.738706298828125,1.164105153927207,1.1671516820162533,0.2349713699132204
1782811446845777400,2.74877734375,1.2412976992011069,1.0389084562018513,0.19664748447686434
1782811446855848400,2.758848388671875,1.1474831049501895,0.9734861359596252,0.20525252347588538
1782811446865920500,2.76892041015625,0.8376672141939401,1.0012745988562703,0.2256727956920862
1782811446875991600,2.778991455078125,0.31869945443570613,1.0282895931623874,0.2727978272214532
1782811446886062300,2.789062255859375,-0.25862346365749833,1.0419311650238932,0.32939825084358454
1782811446896134400,2.799134521484375,-0.7238187166959047,0.9865868789426981,0.34301293469816446
1782811446906205400,2.809205322265625,-1.0153887566655873,0.8961626577824353,0.3683352997422218
1782811446916277500,2.819277587890625,-1.1766121688008309,0.6851363732106983,0.38541882875114675
1782811446926348500,2.8293486328125,-1.2115361826658249,0.4317883657380938,0.3635699850365519
1782811446936419600,2.839419677734375,-1.043765540844202,0.29408275344297286,0.4035848922997713
1782811446946491400,2.849491455078125,-0.6537170064657927,0.18587255409285425,0.371318991728127
1782811446956562400,2.8595625,-0.14780980381071568,0.06882409150972962,0.3634557110071182
1782811446966633500,2.869633544921875,0.24681495244204996,-0.04134096823520958,0.3871244636252522
1782811446976705500,2.87970556640625,0.5668477013081312,-0.08233860292546451,0.4478910670161247
1782811446986776600,2.889776611328125,0.8298410506129265,-0.1555534036748111,0.5294198879286647
1782811446996848600,2.8998486328125,0.9161743491977453,-0.24918986487984657,0.5094587576568126
1782811447006919400,2.90991943359375,0.8760504286020994,-0.33314649746119973,0.4196466770455241
1782811447016990500,2.919990478515625,0.7839952452391385,-0.41823337618149814,0.3477057686895132
1782811447027062500,2.9300625,0.6190677178889513,-0.48006687815152105,0.2958352961987257
1782811447037133600,2.940133544921875,0.4582698376893997,-0.5095695976201444,0.24794980169087646
1782811447047204600,2.95020458984375,0.314656316524744,-0.5337620087862014,0.20184709894657135
1782811447057276400,2.9602763671875,0.1612766036272049,-0.592929871743545,0.16708236729651688
1782811447067347500,2.970347412109375,0.06507599102258682,-0.6130583214063197,0.13214432490617037
1782811447077418500,2.98041845703125,0.051420975157618516,-0.5787497360259294,0.17359657149612903
1782811447087490600,2.990490478515625,0.048096214649081225,-0.586007817395404,0.21026275285333393
1782811447097561600,3.0005615234375,0.03583879062235355,-0.5865687392137945,0.22372224614620206
1782811447107633700,3.010633544921875,-0.002113631153106689,-0.5690932152125984,0.2269081827059388
1782811447117704400,3.020704345703125,-0.12578560352921486,-0.5304908050958067,0.23649697204530237
1782811447127775500,3.030775390625,-0.2692038943827152,-0.5002900934256613,0.23504472741037605
1782811447137847300,3.040847412109375,-0.31664193738400936,-0.5438887774597853,0.2094678030833602
1782811447147918300,3.05091845703125,-0.42836920494437214,-0.5916315755613147,0.1277031275883317
1782811447157989400,3.0609892578125,-0.5610907452166081,-0.5927530538719147,0.06812924111336469
1782811447168061400,3.0710615234375,-0.6689210053384304,-0.5790810868721455,0.031281565709412096
1782811447178132500,3.081132568359375,-0.7916068892866372,-0.5090938698671758,0.03544336156398058
1782811447188203500,3.09120361328125,-0.9868126505225896,-0.4006706853535026,0.05152589683681726
1782811447198275600,3.101275634765625,-1.3198691316127775,-0.26459691204391417,0.061839785580337044
1782811447208346400,3.111346435546875,-1.600434377965331,-0.11215491838790476,0.05087620075643062
1782811447218418200,3.121418212890625,-1.7505360921055078,0.003677519468963146,-0.020275310787558554
1782811447228489000,3.131489013671875,-1.7121540467411278,0.01896466658040881,-0.14570961666107177
1782811447238560000,3.14156005859375,-1.3553905268490314,0.0028760668929666278,-0.3855757728785276
1782811447248632000,3.151632080078125,-0.8907587529122829,-0.01534092312529683,-0.5785477837130427
1782811447258703000,3.161703125,-0.5906108542114495,-0.15221724498942493,-0.5446408379361033
1782811447268774100,3.171774169921875,-0.4476905760079622,-0.43465508028082545,-0.3570800384953618
1782811447278846000,3.181845947265625,-0.6530979977846145,-0.5389551204498857,-0.23228169243782756
1782811447288917000,3.1919169921875,-1.2243366275280714,-0.39605741940438743,-0.15269173063337801
1782811447298988000,3.201988037109375,-1.801823211750388,-0.040795097855478524,0.013220716100931167
1782811447309060000,3.21206005859375,-2.1091905403107405,0.31118330665193494,0.2117740341991186
1782811447319131100,3.222131103515625,-2.1181699655801056,0.624456132929027,0.32424130647182464
1782811447329203200,3.232203125,-1.8512848695337771,0.8306923336800187,0.4035714482963085
1782811447339274000,3.24227392578125,-1.3280886784255503,0.8775380368113517,0.45783933731764553
1782811447349345000,3.252344970703125,-0.6135381408125162,0.7910157915256917,0.5615761906459927
1782811447359417000,3.2624169921875,0.004579144483804702,0.568702462329343,0.5990121873319149
1782811447369488100,3.272488037109375,0.427397729563713,0.3238954887088388,0.48011517427265643
1782811447379559200,3.28255908203125,0.7073907289862632,0.1521820275455713,0.27368600823283196
1782811447389631000,3.292630859375,0.8313947097957134,0.11203721029236913,0.12198504220247268
1782811447399702000,3.302701904296875,0.8849071042746305,0.15645612466819583,0.10193448008149862
1782811447409774000,3.312774169921875,0.9476981992304324,0.31397344882711764,0.15785481248497962
1782811447419845000,3.32284521484375,0.964196914088726,0.4591955742321908,0.19644085598886013
1782811447429916000,3.332916015625,0.8878560172080994,0.47429085203334687,0.11676935338079929
1782811447439988200,3.34298828125,0.7743190698772668,0.42462899550274014,-0.02240910794585943
1782811447450059000,3.35305908203125,0.6954442706048488,0.3699592476822436,-0.1539642347872257
1782811447460130000,3.363130126953125,0.5870984621763229,0.29958193538114425,-0.250899299146235
1782811447470201900,3.373201904296875,0.43383682270050045,0.19701880200728772,-0.32474779468923803
1782811447480273000,3.38327294921875,0.3610159166395664,0.13709551757276056,-0.35713381450921294
1782811447490344000,3.393343994140625,0.31272096454799175,0.07238879825398326,-0.3828159527763724
1782811447500416000,3.403416015625,0.1998620626091957,0.03602876023650169,-0.3462441717043519
1782811447510487000,3.413487060546875,-0.023849662142992018,0.07533771118745207,-0.2502157007962465
1782811447520559000,3.42355908203125,-0.27842414267063137,0.12440057891160249,-0.17384996173530817
1782811447530630100,3.433630126953125,-0.4701309558749199,0.21394465623646974,-0.10492430954724549
1782811447540701000,3.443700927734375,-0.6341472135990858,0.32364260992631316,-0.028326223035156726
1782811447550773000,3.45377294921875,-0.6056079323351383,0.4197225187607109,0.055340486688911915
1782811447560844000,3.463843994140625,-0.344295083463192,0.4360153357833624,0.13619769195020198
1782811447570915000,3.4739150390625,0.12717618110477924,0.3909421222172677,0.19728782820701599
1782811447580987000,3.48398681640625,0.6623293519884348,0.23871055644154549,0.17771204399093984
1782811447591058000,3.494057861328125,1.1772995665431023,0.05419906156882644,0.17363178893998263
1782811447601129000,3.50412890625,1.6596961297512054,-0.16482728184610604,0.20766499144509434
1782811447611201000,3.514200927734375,2.035410433828831,-0.35640009340718387,0.14180091878473758
1782811447621272000,3.52427197265625,2.2327251500427723,-0.5403597996160387,0.06465864239335059
1782811447631344000,3.53434423828125,2.281809206685424,-0.6655186495490372,0.05135945422872901
1782811447641415200,3.544415283203125,2.284696160298586,-0.8075216667771339,0.01698299124389887
1782811447651486000,3.55448583984375,2.17289991915524,-0.9487444934129714,-0.016800182022899388
1782811447661558000,3.56455810546875,1.939171827301383,-1.0348037973619997,-0.07768836596682667
1782811447671629000,3.574629150390625,1.6785574820876121,-1.0813722179219125,-0.13253580844178794
1782811447681700000,3.5847001953125,1.478908769968152,-1.1335117166124284,-0.1610166375167668
1782811447691772000,3.59477197265625,1.3115864564359188,-1.2061711485013364,-0.1629360612720251
1782811447701843000,3.604843017578125,1.078922778943181,-1.3270200262807308,-0.22569325395822523
1782811447711915000,3.6149150390625,0.7621633526593447,-1.3999635358080267,-0.3405249172747135
1782811447721986000,3.624986083984375,0.41024902636408805,-1.4570413676835596,-0.4478825914487242
1782811447732057000,3.63505712890625,0.07711305029690266,-1.5269007935903967,-0.5669578836843371
1782811447742129200,3.645129150390625,-0.19953297678530216,-1.5954443145930766,-0.6596747458264232
1782811447752200200,3.6552001953125,-0.37086101882755756,-1.6103770953088998,-0.7425349614731968
1782811447762271000,3.66527099609375,-0.4203951573252678,-1.6145559884287417,-0.7642397205419837
1782811447772343000,3.675343017578125,-0.4367939189404249,-1.5914594827406108,-0.744376059295237
1782811447782414000,3.6854140625,-0.47638007939755916,-1.5120134594514965,-0.634788434112072
1782811447792485000,3.695485107421875,-0.5362631779521704,-1.3257736794814468,-0.47070203376114367
1782811447802557000,3.705556884765625,-0.5191062914460897,-1.1707716260790824,-0.31992417392507194
1782811447812628000,3.7156279296875,-0.5307224949598313,-1.0934235979825258,-0.2697580211341381
1782811447822700000,3.725699951171875,-0.6216857914328575,-0.943568990471214,-0.2766178239010274
1782811447832771000,3.73577099609375,-0.6439110672444105,-0.8520543437257408,-0.33644890000745653
1782811447842842000,3.745842041015625,-0.518314848807454,-0.8751981956869364,-0.44633784622475503
1782811447852914200,3.7559140625,-0.17911153552532194,-0.8142933528691529,-0.5550483963124454
1782811447862985200,3.765985107421875,0.2043202110618353,-0.7712840860955417,-0.47222909719794987
1782811447873056000,3.776055908203125,0.5061866041183471,-0.779592187974602,-0.30319691100791096
1782811447883127800,3.7861279296875,0.3817962543398142,-0.985721786545962,-0.32952041591852904
1782811447893198800,3.79619873046875,-0.06694003132879733,-1.117331858444959,-0.640598727826029
1782811447903270000,3.806269775390625,-0.5549544344186782,-1.081412257671356,-0.8078386237718165
1782811447913342000,3.816342041015625,-1.2778045983433723,-0.7598302335366607,-0.7467628083012998
1782811447923413000,3.8264130859375,-1.8341706531256436,-0.32544527543410656,-0.5647311475455761
1782811447933485000,3.836485107421875,-2.531993927821517,-0.19265563836172223,-0.5691938260428607
1782811447943556000,3.84655615234375,-2.935625581872463,0.08090820479616523,-0.6177379305899143
1782811447953627100,3.856627197265625,-2.8217548725426194,0.4727453761570155,-0.5787661026388407
1782811447963699200,3.86669921875,-2.1786299872398374,0.8145340297572314,-0.36815044469460845
1782811447973770200,3.876770263671875,-1.430249076217413,0.9012840924493968,-0.11778013785853982
1782811447983841000,3.886841064453125,-0.8359247544407844,0.8115665582537651,-0.035262598169595004
1782811447993912800,3.896912841796875,-0.49927989346981044,0.7109229947656392,0.007632394574582577
1782811448003984000,3.90698388671875,-0.32946576312184334,0.7221247722595929,0.07567483418732882
1782811448014056000,3.917055908203125,-0.14534955117702483,0.780032040696591,0.16960677120760081
1782811448024127000,3.927126953125,0.23061901992261408,0.8642907249644398,0.28045111845359205
1782811448034198000,3.937197998046875,0.7125625786662101,1.0029365407191215,0.45204906347841023
1782811448044270000,3.94727001953125,1.1205734707146882,1.156820549876988,0.6586715601332486
1782811448054341000,3.957341064453125,1.4268454052537678,1.184742137634009,0.8587535491034388
1782811448064412200,3.967412109375,1.5537416003733873,1.1452698128148913,1.0468012552782893
1782811448074484200,3.977484130859375,1.4894921233028173,1.1604251502402125,1.1954029401190578
1782811448084555000,3.987554931640625,1.2314216173529624,1.2153424430809914,1.229309155243635
1782811448094626000,3.9976259765625,0.8842132767915725,1.249171793577075,1.1014663269236684
1782811448104697900,4.00769775390625,0.5030734405338764,1.2362884927369653,0.8950522123225033
1782811448114769000,4.017768798828125,0.0854892489761114,1.2014439738489686,0.7070370932430029
1782811448124841000,4.027841064453125,-0.330570509493351,1.1953358662322162,0.6169874044835567
1782811448134912000,4.037912109375,-0.5186871892511844,1.1122693143583833,0.5262300058461725
1782811448144983000,4.047983154296875,-0.433569111675024,0.9229768688194453,0.4631546871215105
1782811448155055000,4.05805517578125,-0.2958890722125769,0.7219669513493776,0.38130963986665006
1782811448165126100,4.068126220703125,-0.1206903262168169,0.590095305904746,0.39432504265382884
1782811448175197200,4.078197265625,0.20215280389487741,0.5000730896741151,0.4267256755210459
1782811448185269000,4.08826904296875,0.6079167937994003,0.43127544777989385,0.43590164627581834
1782811448195340000,4.098340087890625,1.0210843379586934,0.4163866523362696,0.45918972901329397
1782811448205411000,4.1084111328125,1.435056768760085,0.4422397632561624,0.5400174159191549
1782811448215483000,4.11848291015625,1.7307827593654392,0.5323524342492223,0.7101796290524304
1782811448225554400,4.128554443359375,1.7891671437948942,0.556157964989543,0.8373407587185502
1782811448235626500,4.13862646484375,1.6267629974424838,0.5566558315090835,0.8799458286054432
1782811448245697500,4.148697509765625,1.3246470135390758,0.5394961685240268,0.8715998789340257
1782811448255768600,4.1587685546875,1.0821060851544142,0.46850057819411156,0.7610068761005997
1782811448265840600,4.168840576171875,0.8785697179466485,0.38380101829096674,0.658987786475569
1782811448275911700,4.17891162109375,0.7234931380033492,0.33057869279980656,0.5763910440705716
1782811448285982700,4.188982666015625,0.5531026690721511,0.2690140708990395,0.5215718047767878
1782811448296054500,4.199054443359375,0.49661798078417774,0.17361761428415776,0.49521542050987477
1782811448306125600,4.20912548828125,0.5782780268609523,0.08766776205897331,0.5378364186182618
1782811448316196400,4.2191962890625,0.6841992384910583,0.057790802450478074,0.6195023099139333
1782811448326268400,4.229268310546875,0.7101783138781785,0.0717139677323401,0.6940887643426656
1782811448336339500,4.23933935546875,0.7342085932850837,0.11237521007508039,0.7703542578995227
1782811448346411500,4.24941162109375,0.7453174317985772,0.12918547510057687,0.7922147920519113
1782811448356482600,4.259482666015625,0.6825824509441852,0.15792027893662453,0.8227870404481887
1782811448366553600,4.2695537109375,0.5543932934045791,0.1900821346119046,0.8460448741778731
1782811448376625700,4.279625732421875,0.3647492579489946,0.18881474502459167,0.8666118613883852
1782811448386696700,4.28969677734375,0.0290396320015192,0.21284619347527622,0.7982491037800907
1782811448396767700,4.299767822265625,-0.3140010674864053,0.2021919668614864,0.6751885413005948
1782811448406839600,4.309839599609375,-0.6461135457247495,0.11324936256110668,0.5788356607437134
1782811448416910300,4.319910400390625,-1.0938438692212105,0.054837651733309026,0.4753025132939219
1782811448426982700,4.329982666015625,-1.5425491752296685,-0.03306903364807367,0.32996903646886344
1782811448437053400,4.340053466796875,-1.954229695701599,-0.07792597411498427,0.1991235192015767
1782811448447124500,4.35012451171875,-2.3372189592182635,-0.0889219999037683,0.06635054100304842
1782811448457196500,4.360196533203125,-2.6037866598784922,-0.1347813954114914,-0.20955606588870285
1782811448467267600,4.370267578125,-2.583635852253437,-0.14468962596356869,-0.5420046442136168
1782811448477338600,4.380338623046875,-2.3390222092479465,-0.19139891629889608,-0.788062056286633
1782811448487410400,4.390410400390625,-2.145452524781227,-0.3933947760663926,-0.8748194255024194
1782811448497481500,4.4004814453125,-2.172920377421379,-0.5352710981748998,-0.7923065619885921
1782811448507552500,4.410552490234375,-2.1861773338794706,-0.48265331444814796,-0.6178048583462834
1782811448517624600,4.42062451171875,-2.130905528512597,-0.26798838111311196,-0.3412169911921024
1782811448527695400,4.4306953125,-2.079916515031457,0.06704363783374429,-0.06993804410099982
1782811448537767400,4.440767333984375,-1.992184455564618,0.4123261248990893,0.14185381801575422
1782811448547838500,4.45083837890625,-1.7083488092392682,0.658211468340829,0.15784662917852402
1782811448557909500,4.460909423828125,-1.2349579747855663,0.7331317578338086,0.0670046209976077
1782811448567981600,4.470981689453125,-0.6825158154487609,0.5634634656973183,-0.0542103136152029
1782811448578052600,4.481052490234375,-0.14586276139616966,0.25936741389259693,-0.13288345283567904
1782811448588123600,4.49112353515625,0.24377193148434162,-0.04469415112063289,-0.19776625937372444
1782811448598195500,4.501195556640625,0.4420715670824051,-0.2920062394298613,-0.2786120664581656
1782811448608266500,4.5112666015625,0.45134383781850335,-0.39142186855822797,-0.3414505076870322
1782811448618337500,4.521337646484375,0.3316629809051752,-0.33651860424280167,-0.3794812553957104
1782811448628409600,4.53140966796875,0.14020166689455507,-0.14615458394959568,-0.40125820291787384
1782811448638480400,4.54148046875,-0.10013502944409847,0.0023068156376481056,-0.4402572111368179
1782811448648552400,4.551552490234375,-0.2423252398073673,0.16368191120326517,-0.4893558808267116
1782811448658623500,4.56162353515625,-0.2419517303198576,0.2936199582368135,-0.5511629331812262
1782811448668694500,4.571694580078125,-0.1228033728480339,0.3571469662517309,-0.5490133539319038
1782811448678766600,4.5817666015625,0.059784898877143854,0.3558053423844278,-0.4947647541329264
1782811448688837600,4.591837646484375,0.2805243298202753,0.32799817478731275,-0.4281172760099172
1782811448698908700,4.60190869140625,0.4031149367004633,0.34866833011135456,-0.3397831589967012
1782811448708980500,4.61198046875,0.46801790924370285,0.3963143167749047,-0.276089854504168
1782811448719051500,4.622051513671875,0.4886556236028671,0.4043133527047932,-0.21340134314000606
1782811448729123600,4.63212353515625,0.44224633912742134,0.3388723277620971,-0.13964461753368376
1782811448739194600,4.642194580078125,0.3399538393884897,0.3246408271834254,-0.0966761211618781
1782811448749265400,4.652265380859375,0.18593407502174375,0.30730536924004553,-0.027064824797213075
1782811448759337500,4.66233740234375,0.08959434620738028,0.29825244034305215,0.04597074692770838
1782811448769408500,4.672408447265625,0.14399813656806945,0.2685280409477651,0.05807371104508638
1782811448779479600,4.6824794921875,0.2842956650525331,0.3186979931309819,0.040717940966039895
1782811448789551600,4.692551513671875,0.4131061693608761,0.3376106372632086,0.027003449998795986
1782811448799622700,4.70262255859375,0.6108563543826341,0.2658858558759093,0.02321604041457176
1782811448809693700,4.712693603515625,0.8770914620876312,0.10508797567635773,-0.027689678697288035
1782811448819765500,4.722765625,1.197777706426382,-0.08503741355538368,-0.09104600632041693
1782811448829836500,4.73283642578125,1.4658756853938102,-0.26327421207278967,-0.13247501816526056
1782811448839908600,4.74290869140625,1.6357342394053935,-0.4088496809601784,-0.17487477473840116
1782811448849979600,4.752979736328125,1.661573029538989,-0.5450692924812436,-0.2424494507089257
1782811448860050400,4.763050537109375,1.593798885473609,-0.636835283639282,-0.2709633052706718
1782811448870122500,4.77312255859375,1.5698177059054375,-0.7618291522689163,-0.33576004096046086
1782811448880193500,4.783193603515625,1.6178864480257034,-0.8917856117419898,-0.41232802459523077
1782811448890264600,4.7932646484375,1.698546961671114,-0.9515756251856684,-0.3545511045396328
1782811448900336400,4.80333642578125,1.6141460924535989,-0.9143991562187671,-0.1950156454913318
1782811448910407400,4.813407470703125,1.305002401870489,-0.7968291539795697,-0.09012728404030203
1782811448920478500,4.823478515625,1.024145479094982,-0.7668288602523505,-0.08416472237408161
1782811448930550500,4.833550537109375,0.9415268171191215,-0.8021722685731947,-0.09999036027640104
1782811448940621600,4.84362158203125,0.9930348860383034,-0.8864492191500961,-0.14781228802874682
1782811448950693600,4.853693603515625,1.0456073693186043,-0.9912287133991717,-0.2117221578814089
1782811448960764400,4.863764404296875,0.972757237163186,-1.0597468076996506,-0.30062808343321085
1782811448970835500,4.87383544921875,0.7926818250417709,-1.088137035881728,-0.42851971933096644
1782811448980907500,4.883907470703125,0.6441027904242277,-1.1428835022002457,-0.47628041841536756
1782811448990978600,4.893978515625,0.5410276158750057,-1.1708601811453698,-0.41053617274239657
1782811449001049600,4.904049560546875,0.4090951801538467,-1.1486296446368098,-0.27790611014589667
1782811449011121400,4.914121337890625,0.15395838956832886,-1.1201667896099388,-0.1875194445170462
1782811449021192400,4.9241923828125,-0.20635493175983427,-1.0514994960971176,-0.14266294244155286
1782811449031263500,4.934263427734375,-0.501203555008769,-0.9551412087127565,-0.12636194211244584
1782811449041335600,4.94433544921875,-0.718454559314251,-0.8695296485312283,-0.08567395789325237
1782811449051406600,4.954406494140625,-0.8464373806267976,-0.8361227612309158,-0.07155906943157316
1782811449061478700,4.964478759765625,-0.9573357961475849,-0.8198340358614921,-0.08762538422197103
1782811449071549400,4.974549560546875,-1.0002169064968824,-0.8702874811612069,-0.16841756142303346
1782811449081620500,4.984620361328125,-0.8075503083497285,-0.8988874065712094,-0.30597032124400136
1782811449091692500,4.994692626953125,-0.36997254555523396,-0.9405587027393281,-0.38074893724396824
1782811449101763600,5.004763671875,0.08894085073471068,-1.051090623035282,-0.3554400162033737
1782811449111834600,5.014834716796875,0.21168518687188623,-1.1309385051235556,-0.2766122709430754
1782811449121906400,5.024906494140625,-0.03236789964139462,-1.2255470262311399,-0.31650983543694017
1782811449131977500,5.0349775390625,-0.603260492426157,-1.2496506631352007,-0.48747795812562106
1782811449142049500,5.045049560546875,-1.3027782960802317,-1.0848347794659434,-0.64251771318987
1782811449152120600,5.05512060546875,-2.0128157401829956,-0.7636256802968681,-0.6736452573813497
1782811449162191600,5.065191650390625,-2.599997204467654,-0.29052623000517486,-0.5374469809092581
1782811449172263700,5.075263671875,-2.9797996546417473,0.1973622086174786,-0.4434444628708064
1782811449182334500,5.08533447265625,-3.0276474474877118,0.47897521045729513,-0.3565045766949653
1782811449192405500,5.095405517578125,-2.629057294735312,0.5609076437346637,-0.3269825680039823
1782811449202477600,5.1054775390625,-1.874364716348052,0.5647397692434489,-0.22973010825887322
1782811449212548600,5.115548583984375,-1.1991624387830495,0.4725928159438073,-0.04096884698718786
1782811449222619400,5.125619384765625,-0.7180524082541465,0.5269704489499331,0.15434329723268747
1782811449232691200,5.135691162109375,-0.3125152128428221,0.7359475459069014,0.31207930564358827
1782811449242762200,5.14576220703125,0.03748305069804191,0.9182219293773174,0.43178646604195237
1782811449252834300,5.155834228515625,0.37402854294776916,0.9948626859873533,0.4848047933936119
1782811449262905300,5.1659052734375,0.6916016237020493,1.0091584839738905,0.41400794050619005
1782811449272976400,5.175976318359375,0.9180150086283684,0.9564208732597529,0.3005934505112469
1782811449283048400,5.18604833984375,1.0471130977064371,0.9143151311971247,0.2680610079579055
1782811449293119500,5.196119384765625,1.0537217021912335,0.8748740782991051,0.2548318162895739
1782811449303190500,5.2061904296875,0.9849299055159091,0.8233414594605565,0.23566110574305058
1782811449313262300,5.216262451171875,0.8732382937908172,0.7679355063199996,0.11178235874846577
1782811449323333400,5.22633349609375,0.7539853069007396,0.7032227956518531,-0.046389849122613666
1782811449333404400,5.236404296875,0.6482540648847818,0.6174957923971116,-0.14965806202590465
1782811449343476200,5.246476318359375,0.48085868611633775,0.57534036597386,-0.23466055039837955
1782811449353547300,5.25654736328125,0.22546470589935777,0.5924281327664852,-0.2944581626266241
1782811449363619300,5.266619384765625,-0.055123921328783035,0.6284066241204739,-0.28442849765196443
1782811449373690400,5.2766904296875,-0.27887013287246226,0.6411566539697349,-0.2079974382698536
1782811449383761400,5.286761474609375,-0.5759317559957504,0.6539281649984419,-0.21236454743817448
1782811449393833500,5.29683349609375,-0.8285287989705801,0.7270433778308332,-0.20600407249554992
1782811449403902200,5.306902099609375,-0.8524719846159219,0.829410111849755,-0.13990502203553914
1782811449413974300,5.316974365234375,-0.5990303075104951,0.8641114228747785,0.03874152632653713
1782811449424045300,5.32704541015625,-0.06634206543564795,0.7906811527438461,0.11498436966016888
1782811449434116400,5.337116455078125,0.5476537560164928,0.7448417771108448,0.2059891671873629
1782811449444188400,5.3471884765625,0.9385872565358877,0.699705435180664,0.28829832482263446
1782811449454259500,5.357259521484375,1.243587855964899,0.6062441844120622,0.39618820617720485
1782811449464330500,5.36733056640625,1.4591010766923427,0.5927586798951029,0.5224557480044663
1782811449474402300,5.37740234375,1.640511536809802,0.5494543756976723,0.5432777328893542
1782811449484473300,5.387473388671875,1.7663573460936546,0.4251623717270791,0.4618135016456246
1782811449494544400,5.39754443359375,1.7653484613120556,0.370036696832627,0.399286610583961
1782811449504616200,5.4076162109375,1.6259189478337763,0.3308795754425227,0.45167482333853837
1782811449514687200,5.417687255859375,1.3710942919373512,0.2631244283385575,0.5194606578417122
1782811449524759300,5.42775927734375,1.163795357325673,0.234786514865607,0.509639082659781
1782811449534830300,5.437830322265625,0.9732342070251703,0.2670063843384385,0.5293848166152835
1782811449544901400,5.4479013671875,0.6011632278859615,0.26950521541684863,0.5861847083322703
1782811449554973400,5.457973388671875,0.18514730855822562,0.2746314723894,0.5730854266539216
1782811449565044500,5.46804443359375,-0.04499298793673515,0.22220994188711046,0.4874688980363309
1782811449575115500,5.478115478515625,-0.1312812783360481,0.17292992428094148,0.4877800098121166
1782811449585187300,5.488187255859375,-0.12061083123981951,0.09871025733798741,0.49676031186431646
1782811449595258400,5.49825830078125,-0.004948562318086624,0.0212612530849874,0.5007398830197751
1782811449605330400,5.508330322265625,0.09407061483860016,-0.02557823950126767,0.47298868339359756
1782811449615401200,5.518401123046875,0.13258710023760795,-0.12899623613879083,0.43712095893770453
1782811449625472300,5.52847216796875,0.032948914399743075,-0.21969810519665478,0.32251652850583196
1782811449635544300,5.53854443359375,-0.16562661553025246,-0.312745660597831,0.11318418837040663
1782811449645615400,5.548615478515625,-0.4161363308370113,-0.4103150773376226,-0.05365297199338674
1782811449655686400,5.558686279296875,-0.6494470740616322,-0.4329994950935244,-0.04509411022365093
1782811449665758500,5.568758544921875,-0.655823623356223,-0.4193408259667456,0.048939095214009284
1782811449675829500,5.57882958984375,-0.4449614433050155,-0.3104034813858568,0.2127750279352069
1782811449685900500,5.588900634765625,-0.2602472654670477,-0.12506342673450707,0.44759719863608477
1782811449695972400,5.598972412109375,-0.813785987868905,-0.09864391410350799,0.3119688310064375
1782811449706043100,5.609043212890625,-1.306584118103981,-0.3904265739105642,0.04572407869026065
1782811449716115500,5.619115478515625,-1.8634616295397282,-0.2542741824068129,0.026983137863129374
1782811449726186200,5.629186279296875,-1.9934417621493339,0.2323575341530144,-0.0854885183237493
1782811449736257300,5.63925732421875,-1.9723300005376339,0.23852292491495608,-0.23290581568554042
1782811449746329300,5.649329345703125,-1.3151093698650598,-0.1517092954672873,-0.4804467443145811
1782811449756400400,5.659400390625,-0.36826632615923877,-0.7053785123810171,-0.4920500883467495
1782811449766471400,5.669471435546875,0.04622866721153259,-1.108515514782816,-0.29756533486172554
1782811449776543500,5.67954345703125,-0.30724340991973875,-1.109605794237554,-0.1288860537625849
1782811449786614500,5.689614501953125,-1.0878946054279803,-0.6371624697670341,0.06483911352679134
