time,seconds_elapsed,z,y,x
1782812075821864200,0.0678642578125,-0.013989946907758712,-0.006537128417473286,-0.04759930254418868
1782812075831935200,0.077935302734375,-0.021320435926318167,-0.0056148076744750135,-0.042999713493976736
1782812075842006300,0.08800634765625,-0.012491817304491996,0.00005912804240360856,-0.04618648573735263
1782812075852077300,0.098077392578125,-0.008751461732387542,-0.011992608211236074,-0.04011329873693175
1782812075862148000,0.108148193359375,0.002921440404653549,-0.029736098966235292,-0.04064787597109098
1782812075872219100,0.11821923828125,0.012198971837759018,-0.008638521143514662,-0.04010136170396581
1782812075882290200,0.128290283203125,-0.005608487531542777,-0.007992660988029091,-0.02865783874285407
1782812075892361200,0.138361328125,-0.0066571198016405105,-0.006995685839932412,-0.03672489155778894
1782812075902432300,0.148432373046875,0.0015717793613672256,-0.019639807629305867,-0.02160547711250838
1782812075912503300,0.15850341796875,0.003965396499633789,-0.0014758721056859938,-0.03280177928032353
1782812075922574000,0.168573974609375,0.008752630776166915,-0.0023033633052371443,-0.03496156482982914
1782812075932645000,0.17864501953125,0.010696750581264495,-0.018678342186007647,-0.04163257159292698
1782812075942716200,0.188716064453125,-0.000827098473906517,-0.01763729043416679,-0.034092467544833194
1782812075952787200,0.198787109375,-0.013396657189726829,-0.0188088092984166,-0.03617407329159323
1782812075962858200,0.208858154296875,0.01608311979472637,-0.008416896015778183,-0.029255226963979655
1782812075972929300,0.21892919921875,0.004558686217665672,-0.006296332798385993,-0.02767355182968313
1782812075983000000,0.229,0.0029109190106391906,-0.00798109841439873,-0.034609769417205824
1782812075993071000,0.239071044921875,0.002911503532528877,-0.026888381384918465,-0.028300303142610936
1782812076003142100,0.24914208984375,-0.005168342548608779,-0.021370421681040898,-0.03039086851396132
1782812076013213200,0.259213134765625,-0.003073416095972061,-0.014959668722748756,-0.03353286318398314
1782812076023284200,0.2692841796875,0.007999766582250595,-0.008360243058251216,-0.0462820413665846
1782812076033355300,0.279355224609375,0.0032107787400484085,-0.022529245460499076,-0.03926859154109843
1782812076043426000,0.289426025390625,0.004258241966366767,-0.021181082254555075,-0.01665241214924026
1782812076053497000,0.2994970703125,-0.012350363007187842,-0.0069062083250377325,-0.02896641150168143
1782812076063568100,0.309568115234375,-0.0036713819891214367,-0.0027189309693407267,-0.03580834068516269
1782812076073639200,0.31963916015625,-0.007711597290635109,-0.016780153015023096,-0.037657140039757356
1782812076083710200,0.329710205078125,-0.011453706428408622,-0.015049895156314596,-0.03649533885192359
1782812076093780000,0.339780029296875,-0.005021043032407761,-0.01864640354462899,-0.029990076010592746
1782812076103851000,0.34985107421875,-0.0026280104160308834,-0.011689369214652105,-0.036318536963313816
1782812076113922000,0.359922119140625,-0.00008709376156330108,0.0006612586540170013,-0.050937388325179925
1782812076123993000,0.3699931640625,0.010985504394769668,-0.01785697933314368,-0.03354675699530635
1782812076134064000,0.380064208984375,-0.0008346972584724426,-0.018691840988397598,-0.031567880970658733
1782812076144135200,0.39013525390625,-0.009513678276538848,-0.016591434643045067,-0.042671828679903406
1782812076154206000,0.4002060546875,-0.01639817709326744,-0.01648677782532759,-0.028421306023641953
1782812076164277000,0.410277099609375,0.006945873615145683,-0.009359117902489378,-0.03033550104793394
1782812076174348000,0.42034814453125,-0.009513678276538848,-0.013436541675543413,-0.03261748363842489
1782812076184419000,0.430419189453125,-0.012207739666104316,-0.008751105539361015,-0.02547611028406536
1782812076194490000,0.440489990234375,0.016520342168211934,-0.027762296408927068,-0.04408109268962871
1782812076204561200,0.45056103515625,-0.006375964772701263,-0.02238620199430734,-0.03300433666469762
1782812076214632000,0.4606318359375,-0.00009293898046016692,-0.011770499026309698,-0.01878890929634799
1782812076224703000,0.470702880859375,0.0025987843215465544,-0.01580986494445242,-0.04157238410459831
1782812076234774000,0.48077392578125,-0.014311433947086333,-0.016202143064513803,-0.02845195460694376
1782812076244845000,0.490844970703125,-0.004584989702701568,-0.022043672166951,-0.040203799165133385
1782812076254916000,0.500916015625,0.003493687334656715,-0.020235782494768498,-0.03120126473152777
1782812076264987100,0.510987060546875,-0.011321604481339453,-0.012059535967605188,-0.04127593560840469
1782812076275058000,0.521057861328125,-0.007730886512994766,-0.015035647435253485,-0.046124489884427744
1782812076285129000,0.53112890625,-0.007431611305475235,-0.02204146194355562,-0.039378335525887084
1782812076295200000,0.541199951171875,-0.0018961890101432798,-0.008638749472377822,-0.034671751570398916
1782812076305271000,0.55127099609375,0.008127776876091957,-0.01631050794296898,-0.038139884338690894
1782812076315342000,0.561342041015625,-0.009682020580768584,-0.011759913700213655,-0.04904103035167791
1782812076325413000,0.5714130859375,-0.005493336719274521,-0.01165001445179805,-0.030320390243770087
1782812076335484200,0.581484130859375,-0.0066927756369113914,-0.014642236804030834,-0.036031335786078124
1782812076345555000,0.591554931640625,-0.003252279794216156,-0.019609512955741957,-0.030485042753571178
1782812076355626000,0.6016259765625,-0.01118365731537342,-0.01840775421685539,-0.04805000088717788
1782812076365697000,0.611697021484375,-0.010586860466003418,-0.021396926095476373,-0.047986575695569626
1782812076375768000,0.62176806640625,0.00018529343903064726,-0.007203684301115572,-0.02697220776044996
1782812076385839000,0.631839111328125,0.00602057546377182,-0.0034420850115828216,-0.02344412039926974
1782812076395910100,0.64191015625,-0.004302665629982948,-0.012682700234092771,-0.036276885212096384
1782812076405981200,0.651981201171875,-0.006997896063327789,-0.002552671024342999,-0.022552028114465064
1782812076416052200,0.66205224609375,-0.0028097967237234113,-0.023971425359137356,-0.03878030113407876
1782812076426123300,0.672123291015625,-0.017923779225349424,-0.009716973163140937,-0.03323073614896275
1782812076436194600,0.682194580078125,0.004520107772946358,-0.00016238748747855424,-0.020510966723936142
1782812076446265600,0.692265625,0.016937106275558472,-0.005005306607158855,-0.028063108269695658
1782812076456336600,0.702336669921875,-0.006110591834783553,-0.015389411042677237,-0.036467290934373155
1782812076466407400,0.712407470703125,-0.019579729738831517,-0.011194881962286308,-0.02751615104457596
1782812076476478500,0.722478515625,0.0006190086811780929,-0.00475940555469133,-0.04589161727689206
1782812076486549500,0.732549560546875,0.004207388561964035,-0.016235214217053727,-0.025529032347968314
1782812076496620500,0.74262060546875,0.003905775266885757,-0.008271541861491278,-0.04271490063664969
1782812076506691600,0.752691650390625,-0.0019324293673038482,-0.009579427855974062,-0.01694774754222599
1782812076516762600,0.7627626953125,-0.0004331307202577591,-0.013102998872241004,-0.039208193990215655
1782812076526833400,0.77283349609375,-0.0017798691540956495,-0.00504571168278344,-0.02884175307555124
1782812076536904400,0.782904541015625,-0.012404723542928695,-0.006807113598426804,-0.017290324176999272
1782812076546975500,0.7929755859375,0.0007633855879306793,-0.019353291438659652,-0.029076326733117455
1782812076557046500,0.803046630859375,0.007945406046509743,-0.01602960864235647,-0.04113756831733044
1782812076567117600,0.81311767578125,0.003456277933716774,-0.01152455230806954,-0.0382101365633076
1782812076577188600,0.823188720703125,-0.0016296470284461973,-0.00569342586863786,-0.029694897022878284
1782812076587259600,0.833259765625,0.009295067089796065,-0.013258755689533427,-0.022850757616001645
1782812076597330700,0.84333056640625,-0.010008768317103385,-0.00980441398457624,-0.0404441700925352
1782812076607401700,0.853401611328125,0.008397241467237472,-0.016708037626883013,-0.03385613575502066
1782812076617472800,0.86347265625,0.0016635492980480193,-0.014932817248441277,-0.041927398954192174
1782812076627543800,0.873543701171875,0.005555880561470985,-0.008777546021714806,-0.03278838779249927
1782812076637614800,0.88361474609375,-0.01733750376999378,-0.010383017590129747,-0.026357146885315885
1782812076647686000,0.893685791015625,-0.006864040550589561,-0.011494102370878681,-0.02785929964315146
1782812076657756700,0.903756591796875,0.003911035963892936,-0.013223876172397285,-0.016878236244770233
1782812076667827700,0.91382763671875,-0.014045476487278937,-0.02231797732999548,-0.016312720449652988
1782812076677897700,0.923897705078125,0.009148352095484733,-0.012037041008006781,-0.02208605457053054
1782812076687969800,0.9339697265625,-0.011651859349012373,-0.0011963427782524377,-0.03389521423995029
1782812076698039600,0.94403955078125,0.0007657236754894256,-0.00686902725296095,-0.04155013574017211
1782812076708110600,0.954110595703125,-0.004173486292362213,-0.02412614099681377,-0.02973885489561362
1782812076718181600,0.964181640625,-0.005370002600550651,-0.01311670773718506,-0.02023760912567377
1782812076728252700,0.974252685546875,-0.009411386945843696,-0.01480820448808372,-0.036263338460645174
1782812076738323700,0.98432373046875,-0.010162497574090957,-0.024331098117539657,-0.03247155181211419
1782812076748394800,0.994394775390625,-0.011807926693558693,-0.007739225083077326,-0.026396654628508258
1782812076758465800,1.0044658203125,-0.019288053315877914,-0.01131577752875164,-0.02386044839848764
1782812076768536600,1.01453662109375,-0.014199790266156196,-0.00584583081821911,-0.038242687126039523
1782812076778607600,1.024607666015625,0.004953238493204117,-0.0077402205969206985,-0.0513848900640849
1782812076788678700,1.0346787109375,0.004500234028697013,-0.019595484430389477,-0.03883867112465668
1782812076798749700,1.044749755859375,0.0015063129097223282,-0.016341241007950157,-0.032966993479127994
1782812076808820700,1.05482080078125,0.003450432714819908,-0.016437705386057495,-0.033192719393246806
1782812076818891800,1.064891845703125,-0.0008896423161029815,-0.00828898618663661,-0.030198825673735698
1782812076828962600,1.074962646484375,-0.010315642309188843,-0.0034256088008172807,-0.040623659411864355
1782812076839033600,1.08503369140625,0.005697334858775139,-0.014944900411879644,-0.046419043251057154
1782812076849104600,1.095104736328125,-0.009716507372260094,-0.009007637583697214,-0.03184986711665988
1782812076859175700,1.10517578125,-0.009418401208519936,-0.007145935365045443,-0.02402787510397611
1782812076869246700,1.115246826171875,-0.00971884545981884,-0.004062774193193763,-0.009709810486703645
1782812076879317800,1.12531787109375,0.019760347002744674,-0.011745976506406441,-0.019414355709822848
1782812076889388500,1.135388427734375,0.0007569558471441269,-0.013146317424159497,-0.03416407604289707
1782812076899459600,1.14545947265625,-0.00029050737917423245,-0.006401720268465578,-0.02793097892316291
1782812076909530600,1.155530517578125,-0.0022357962280511855,-0.0066849576566368335,-0.02394559908142546
1782812076919601700,1.1656015625,0.0018044190734624861,-0.0023611761733889577,-0.0254757518077502
1782812076929672700,1.175672607421875,0.014824059644341468,0.001440261936187744,-0.037148975888488346
1782812076939743700,1.18574365234375,0.005398644173145294,-0.024863981151534244,-0.015236990110075566
1782812076949814500,1.195814453125,0.001807341682910919,-0.021590475906198843,-0.024365196749963795
1782812076959885600,1.205885498046875,0.008989362141489982,-0.011233862265804782,-0.037959305890684476
1782812076969956600,1.21595654296875,0.0015057283878326415,-0.00991192034650594,-0.02838445602841675
1782812076980027600,1.226027587890625,-0.001488192731142044,-0.020470157506223767,-0.03513359692848753
1782812076990098700,1.2360986328125,0.004497311419248581,-0.009105070076184347,-0.037778044739377216
1782812077000169700,1.246169677734375,-0.0016389993786811827,-0.011273363159131258,-0.049574666870920915
1782812077010240500,1.256240478515625,-0.013460370075702666,-0.0016840623631142078,-0.024078648593276738
1782812077020311600,1.2663115234375,0.005991933891177177,-0.013301224858080968,-0.029963304451387375
1782812077030382600,1.276382568359375,-0.013611761245131491,-0.010219579789880662,-0.03438470565679017
1782812077040453600,1.28645361328125,0.008083353212475776,0.001612321434309706,-0.03463831052510068
1782812077050524700,1.296524658203125,-0.006133972710371017,-0.02282305904161185,-0.021733955480519214
1782812077060595700,1.306595703125,-0.0016465981632471083,-0.015039428561227395,-0.031170874159841332
1782812077070666500,1.31666650390625,-0.010326748225092887,0.003293123261258006,-0.022108051773207262
1782812077080737500,1.326737548828125,-0.014068272840976715,0.0028706235328689214,-0.026986546813056338
1782812077090808600,1.33680859375,-0.007484218275547027,-0.013269158352538942,-0.027541155338380485
1782812077100879600,1.346879638671875,-0.0058376201122999185,-0.009466313737165182,-0.028481938753253777
1782812077110950700,1.35695068359375,0.0002986906856298446,-0.013571593631524591,-0.01893811764184502
1782812077121021700,1.367021728515625,-0.0025450083076953888,-0.0035293979688547548,-0.03426109982671914
1782812077131092500,1.377092529296875,0.00239244809448719,-0.007080962103744968,-0.02795418398552574
1782812077141162800,1.387162841796875,-0.008232990816235542,-0.015977951520355416,-0.028732244269491638
1782812077151233800,1.39723388671875,-0.0068862523823976516,-0.01210721103423275,-0.01928056869574357
1782812077161304800,1.407304931640625,0.007179682371020317,-0.012099831445375457,-0.01760688273781561
1782812077171375900,1.4173759765625,-0.013770166677236555,-0.013280793991405516,-0.03604218140707817
1782812077181446700,1.42744677734375,-0.0122737906396389,-0.0033830026349518445,-0.036177959448844194
1782812077191517700,1.437517578125,-0.008833294796943664,-0.01690555122666992,-0.01645960098239011
1782812077201588700,1.447588623046875,-0.01257481941282749,-0.009408108143368735,-0.028322916833218185
1782812077211659800,1.45765966796875,-0.0038970074385404584,-0.02352679599733092,-0.022957700005639344
1782812077221730800,1.467730712890625,0.003584872749447822,-0.013072293206723406,-0.023040231756516732
1782812077231801900,1.4778017578125,0.0059796589314937585,-0.00650994814960286,-0.040412130986456754
1782812077241872600,1.48787255859375,0.007325812843441963,-0.0033394374878611415,-0.0324068160128314
1782812077251943700,1.497943603515625,-0.009434183299541472,-0.02083736511711031,-0.020026651522424072
1782812077262014700,1.5080146484375,0.017798691540956497,0.0012445019020698963,-0.027583425860817076
1782812077272085800,1.518085693359375,0.0025356559574604034,-0.025823208971973505,-0.025308656179113313
1782812077282156800,1.52815673828125,-0.009434183299541472,-0.008826947254547848,-0.01741414463620167
1782812077292227800,1.538227783203125,-0.0013549217402935027,-0.01550837951353751,-0.01212669776105904
1782812077302298600,1.548298583984375,0.00253624047935009,-0.010607492262078449,-0.02385476757637225
1782812077312369700,1.55836962890625,0.0007388356685638427,-0.010021938325930386,-0.027938822019612414
1782812077322440700,1.568440673828125,-0.003450432714819908,-0.003787975839804858,-0.02964110959258396
1782812077332511700,1.57851171875,-0.018713468298316,-0.006946467270189896,-0.02731157066647429
1782812077342582800,1.588582763671875,0.00208440505862236,-0.011461414810828864,-0.02788435645259451
1782812077352653800,1.59865380859375,-0.00360416197180748,-0.011918885387899354,-0.03841210257592611
1782812077362724600,1.608724609375,-0.009441782084107399,-0.007738704493269324,-0.03361582647641189
1782812077372795600,1.618795654296875,-0.007198971593379974,-0.00597126556248404,-0.028791566391428932
1782812077382866700,1.62886669921875,0.0008797054439783096,-0.0042297191247809675,-0.0014549697399081195
1782812077392937700,1.638937744140625,-0.009744564422965049,-0.005577608336089179,-0.027265461935847998
1782812077403008800,1.6490087890625,-0.008397241467237472,-0.008159688118007033,-0.030586139924312007
1782812077413079800,1.659079833984375,0.01808919892013073,-0.0007170165624003857,-0.027764351368695497
1782812077423150600,1.669150634765625,-0.01004383963048458,-0.013800251288246362,-0.02521802788674831
1782812077433222000,1.679221923828125,-0.009894786548614502,0.00480828619771637,-0.03215811108192429
1782812077443293000,1.68929296875,-0.004958499190211295,-0.0021023425741121173,-0.019682774554775094
1782812077453364000,1.699364013671875,-0.00032090251743793486,-0.010115297431498766,-0.030900836463249287
1782812077463435000,1.70943505859375,0.0070101710230112075,-0.031867101379251105,-0.04431069562784396
1782812077473505800,1.719505859375,-0.010944587862491606,-0.011184598030289634,-0.04155538730402477
1782812077483576800,1.729576904296875,-0.005558803170919418,0.00011193594187498091,-0.03364893416156992
1782812077493648000,1.73964794921875,0.0017746084570884704,-0.01000792806688696,-0.02155137230509426
1782812077503719000,1.749718994140625,-0.009897709158062934,-0.011475388537254183,-0.02814561947097536
1782812077513790000,1.7597900390625,0.015690905606746672,-0.005533741794899106,-0.024395927531656342
1782812077523861000,1.769861083984375,0.002073299142718315,-0.014178254287783056,-0.028021618631971067
1782812077533931800,1.779931884765625,-0.0013689502656459808,0.003818781970022246,-0.022163636151654644
1782812077544001800,1.790001708984375,-0.0004728782087564468,-0.004594360319245606,-0.024106568646663797
1782812077554072800,1.80007275390625,-0.00526245057284832,-0.0036197979323565957,-0.01837639210585621
1782812077564143900,1.810143798828125,-0.0036170214533805846,-0.020174033237015828,-0.029881733965023884
1782812077574214700,1.820214599609375,-0.013645078992843626,-0.012834109669830649,-0.02603526255376637
1782812077584285700,1.83028564453125,-0.0027227029621601103,-0.01366467874245718,-0.031054431006207594
1782812077594356700,1.840356689453125,-0.016938275319337844,0.003839377233479172,-0.03354471116869245
1782812077604427800,1.850427734375,0.003262801188230514,-0.012615050958516075,-0.025060869130236096
1782812077614498800,1.860498779296875,-0.008258709779381751,-0.0014602087456732987,-0.022207228698208927
1782812077624569900,1.87056982421875,0.01104337206184864,0.002694015723792836,-0.036826271856320085
1782812077634641000,1.880640869140625,-0.00840951642692089,-0.0042077721544541416,-0.014473423000698675
1782812077644711700,1.890711669921875,0.0013157587736845017,-0.001449139362387359,-0.022974221882177515
1782812077654782700,1.90078271484375,0.00954407341480255,0.009133528985688462,-0.03990354214350227
1782812077664853800,1.910853759765625,0.007597031000256538,-0.0025273995857685804,-0.023146365861978845
1782812077674924800,1.9209248046875,0.0011626140385866165,-0.0013580270128324627,-0.040456148224696516
1782812077684995800,1.930995849609375,0.011486439654231071,-0.007420642386889085,-0.020193642119783906
1782812077695067000,1.94106689453125,-0.0018289689928293227,0.0030481629237066954,-0.021930692762171383
1782812077705137700,1.9511376953125,0.0017629180192947386,0.011050815582787617,-0.0403642321575433
1782812077715208700,1.961208740234375,0.006102993050217628,-0.002584573133103549,-0.02797170822577318
1782812077725279700,1.97127978515625,-0.0012304185777902603,-0.013114196119690313,-0.03022026575398631
1782812077735350800,1.981350830078125,-0.0067681789606809616,-0.00840816472005099,-0.025429638510546644
1782812077745421800,1.991421875,0.011337386572360992,-0.007316880618315189,-0.007371170372108463
1782812077755492900,2.001492919921875,0.011038695886731146,0.00326273725614883,-0.026236945438594554
1782812077765563600,2.011563720703125,-0.004077040180563926,-0.004081250564800575,-0.0324466365665663
1782812077775634700,2.021634765625,0.0031061493217945098,-0.014312968317046761,-0.026917016107647213
1782812077785705700,2.031705810546875,-0.010959200909733771,-0.009410683692945166,-0.015132078705675666
1782812077795776800,2.04177685546875,0.0031061493217945098,-0.0065382335291709745,-0.01635519989299937
1782812077805847800,2.051847900390625,0.013430559459328651,-0.009335791825829073,-0.022888566592452114
1782812077815918800,2.0619189453125,-0.010811316871643066,-0.0019665964983869343,-0.03354492123124655
1782812077825989600,2.07198974609375,-0.011411620852351189,-0.008437043754663318,-0.029908562606445047
1782812077836060700,2.082060791015625,-0.004527706557512283,-0.00953137833001092,-0.03678372733924771
1782812077846131700,2.092131591796875,-0.001685176607966423,-0.006041344257164746,-0.024049719326314514
1782812077856202800,2.10220263671875,-0.01605214013457298,0.006783723589684814,-0.029682708828162867
1782812077866273800,2.112273681640625,-0.0010889642804861068,-0.01308876028433442,-0.03181748095070943
1782812077876344800,2.1223447265625,0.0019055413603782652,-0.004234139571571723,-0.027755907767335882
1782812077886415600,2.13241552734375,-0.013956629160046577,-0.009557983209146186,-0.021270185310114174
1782812077896486700,2.142486572265625,-0.00722352151274681,-0.003255111072119325,-0.024078233034745787
1782812077906557700,2.1525576171875,-0.005429039311408996,-0.01617309963312,-0.024446121065644547
1782812077916628700,2.162628662109375,-0.00991699838042259,0.0015306436333805322,-0.022140976795274762
1782812077926699800,2.17269970703125,-0.0019856208592653273,-0.0031460246744565664,-0.020272714688384437
1782812077936769800,2.182769775390625,-0.013058219015598296,-0.001840184506587684,-0.015533486555330454
1782812077946840800,2.1928408203125,-0.01724865644276142,0.0013127356995362787,-0.01690264117530896
1782812077956911900,2.202911865234375,-0.011411036330461501,-0.01032954297037795,-0.02700766951618716
1782812077966983000,2.21298291015625,-0.0009358195453882217,-0.01680699535617605,-0.02244782110460801
1782812077977054000,2.223053955078125,-0.00258066414296627,-0.013751836436102166,-0.015713732784840975
1782812077987125000,2.233125,0.00116027595102787,0.0073875621011946346,-0.022660616755206135
1782812077997195800,2.24319580078125,0.004753916528820991,0.003738574606971815,-0.03462507201761473
1782812078007266800,2.253266845703125,0.010142039307951926,-0.017420177084766328,-0.03594586087615462
1782812078017337900,2.263337890625,-0.004221417087316512,-0.002151908203726634,-0.023444225430546792
1782812078027409000,2.273408935546875,0.013735095363855362,-0.008151340414769948,-0.03636914377254434
1782812078037480000,2.28347998046875,-0.005267711269855499,-0.007013997814757749,-0.020993482694006523
1782812078047551000,2.293551025390625,-0.0003302548676729202,-0.009547827141312882,-0.03108602030442562
1782812078057621800,2.303621826171875,0.0056552492827177045,-0.006821945841377601,-0.029523944919742643
1782812078067692800,2.31369287109375,0.002364391043782234,-0.01947122786305845,-0.01780746051094611
1782812078077763800,2.323763916015625,-0.0012257424026727675,-0.009845622777799145,-0.016549188095139104
1782812078087835000,2.3338349609375,-0.0037719197541475295,-0.007160703675914555,-0.019433916643529663
1782812078097906000,2.343906005859375,0.0020657003581523894,-0.010115242632571608,-0.02475231463771779
1782812078107977000,2.35397705078125,-0.01409457632601261,-0.011817260777484625,-0.021828508746041916
1782812078118047700,2.3640478515625,-0.004069441395998001,-0.008359603737434372,-0.014350666553998599
1782812078128118800,2.374118896484375,-0.013498363998532294,0.003746520451409742,-0.020484434910037087
1782812078138189800,2.38418994140625,0.006553659427165985,-0.008567401269217952,-0.02027371020222781
1782812078148260900,2.3942607421875,-0.005117489144206047,-0.0023194924561306834,-0.015166373700922121
1782812078158332000,2.404331787109375,0.0019166472762823105,-0.0006307539178989827,-0.031165003824769517
1782812078168403000,2.41440283203125,-0.013047697621583938,-0.007746294144680723,-0.03120269178692251
1782812078178473700,2.4244736328125,-0.0012263269245624542,-0.0076134798115584995,-0.024565457145974506
1782812078188544800,2.434544677734375,0.0013180968612432479,-0.0003263458775356412,-0.01932803369981702
1782812078198615800,2.44461572265625,-0.007211246553063392,0.007012225982779637,-0.014227339285140623
1782812078208686800,2.454686767578125,-0.009156535401940346,0.00027437822828069327,-0.02237454580584308
1782812078218758000,2.4647578125,0.002066284880042076,-0.012909138534264638,-0.019394701161282137
1782812078228829000,2.474828857421875,0.001319265905022621,-0.012869491510465741,-0.0200552200297825
1782812078238899700,2.484899658203125,-0.008704699981212616,-0.0005703563670162111,-0.03221829400367569
1782812078248970800,2.494970703125,-0.006461304968595504,-0.01034432041440159,-0.02946617771736346
1782812078259041800,2.505041748046875,-0.010203998628258704,-0.012630495122820138,-0.018534211874427272
1782812078269111800,2.51511181640625,-0.004516016119718551,0.004305451242113486,-0.024676404423872006
1782812078279184000,2.525183837890625,-0.007955927440524101,0.0029558997966814783,-0.015555231454613384
1782812078289253600,2.535253662109375,-0.006161445239186287,0.012192624295363202,-0.027427520629763603
1782812078299324700,2.54532470703125,-0.0009229600638151168,-0.0055571592031046745,-0.013852537456265418
1782812078309395700,2.555395751953125,-0.0007739069819450377,-0.010288032783055677,-0.027378087430889715
1782812078319466800,2.565466796875,-0.013193828094005584,-0.0163017127151601,-0.026126694563729687
1782812078329537800,2.575537841796875,-0.015139701464772224,0.008713723537884651,-0.01950218469032552
1782812078339608800,2.58560888671875,-0.006910217779874802,-0.018323528265813363,-0.03385010102316737
1782812078349679600,2.5956796875,0.0022188450932502744,-0.0073373206181451675,-0.013328667704144027
1782812078359750700,2.605750732421875,0.00895195274055004,-0.009992757897218688,-0.023050410657236352
1782812078369821700,2.61582177734375,0.000872106659412384,-0.016818046473152933,-0.03054302686837036
1782812078379892700,2.625892822265625,0.005661679023504257,0.0018168949625454842,-0.016602230031695215
1782812078389963800,2.6359638671875,0.01030044474005699,-0.005960086581343785,-0.03584553317368263
1782812078400034800,2.646034912109375,-0.009002221623063087,0.007458590643946081,-0.027421616045362314
1782812078410105600,2.656105712890625,0.005063713130354881,-0.009287285642139613,-0.025745540625881403
1782812078420176600,2.6661767578125,-0.00900339066684246,0.008879873885028063,-0.01706494646439678
1782812078430247700,2.67624755859375,-0.0016711480826139449,0.00213253678297624,-0.01582905598540092
1782812078440318500,2.686318359375,0.002070961055159569,0.00013425737153738738,-0.027958211706671864
1782812078450389500,2.696389404296875,-0.016934183666110037,0.006775878209946676,-0.011182801082136574
1782812078460460500,2.70646044921875,0.012694061878323554,0.002291033546626568,-0.018874048562842652
1782812078470531600,2.716531494140625,-0.005562894824147224,-0.0010547971494030207,-0.029284076315839774
1782812078480602600,2.7266025390625,0.007754267388582229,0.003458661687048152,-0.009690901431901147
1782812078490673400,2.73667333984375,-0.0034673838496208187,0.006230975944595411,-0.00461609608537401
1782812078500744400,2.746744384765625,-0.0060106385916471475,0.0033501050123479217,-0.008425910439295694
1782812078510815500,2.7568154296875,0.0007236380994319916,0.0011982059417758137,-0.009759505122125848
1782812078520886500,2.766886474609375,0.008056465205550194,-0.011690456060040742,-0.011480586443823994
1782812078530957600,2.77695751953125,0.007159808626770973,-0.016144795987242833,-0.020427980598621068
1782812078541028600,2.787028564453125,0.0026700959920883177,-0.012954292850242927,-0.03336177865010686
1782812078551099400,2.797099365234375,0.001623217287659645,-0.004320804074872285,-0.02976782297848258
1782812078561170400,2.80717041015625,0.007907996645569801,-0.004775050648394972,-0.0229980091831414
1782812078571241500,2.817241455078125,0.003567337092757225,-0.015777771039446813,-0.03290160465929657
1782812078581312500,2.8273125,0.004464578193426132,-0.009465838813129812,-0.010453807529219193
1782812078591383600,2.837383544921875,-0.0078068743586540215,-0.0008497304308228194,-0.009459138502640416
1782812078601454600,2.84745458984375,0.015088263538479803,-0.0053908444591797885,-0.02290852938495809
1782812078611525400,2.857525390625,-0.0034679683715105056,-0.017399417424527927,-0.03647868226135615
1782812078621595400,2.867595458984375,0.007754267388582229,-0.016014922529878094,-0.020207369251037017
1782812078631666400,2.87766650390625,0.0035649990051984785,0.005163876436045393,-0.016031878231256267
1782812078641737500,2.887737548828125,-0.005714870515465736,-0.026250932864751664,-0.016989254304615314
1782812078651808500,2.89780859375,-0.004366378515958786,-0.007805129926139488,-0.01250014902470866
1782812078661879300,2.90787939453125,0.008054127117991448,-0.010687745290901511,-0.02521122368662618
1782812078671950300,2.917950439453125,-0.0025678046613931654,0.0021521913315169514,-0.02660336074832594
1782812078682021400,2.928021484375,-0.011992635610699652,-0.012683330421755089,-0.027722188160824588
1782812078692092400,2.938092529296875,-0.014986556729674338,-0.008264125740015879,-0.02655246624472784
1782812078702163500,2.94816357421875,-0.007056348252296447,-0.012564736410230398,-0.01603591965213418
1782812078712234500,2.958234375,-0.003914543095231056,-0.009100960156647488,-0.02489218661600025
1782812078722305300,2.96830517578125,-0.010649988830089569,-0.011937243028497323,-0.024728374356415585
1782812078732376300,2.978376220703125,0.003265723797678947,-0.026121114206314085,-0.003288576091948198
1782812078742447400,2.988447265625,0.005060790520906448,-0.0015670209878589957,-0.035518340196064674
1782812078752518400,2.998518310546875,0.0008715221375226974,-0.00820547262164764,-0.03174271238117944
1782812078762589400,3.00858935546875,-0.013342881175875662,-0.019935210379306227,-0.028200660426728426
1782812078772660500,3.018660400390625,-0.004514262554049492,-0.01037602159376256,-0.01779142154995352
1782812078782731300,3.028731201171875,0.007159808626770973,-0.011012803393648936,-0.03315143753478769
1782812078792802300,3.03880224609375,0.00521451977789402,-0.002447831543534994,-0.022162412308948113
1782812078802873300,3.048873291015625,0.0035679216146469114,-0.002576590756047517,-0.02776779000137467
1782812078812944400,3.0589443359375,-0.010798457390069962,-0.006551485736388713,-0.02391405544898007
1782812078823015400,3.069015380859375,-0.015587445232272148,-0.0011421375061385333,-0.021311579049716235
1782812078833086500,3.07908642578125,-0.00720481681227684,-0.010429386615660041,-0.022472985228616744
1782812078843157200,3.0891572265625,0.00027706337571144104,-0.008972356207761913,-0.024366642071667593
1782812078853228300,3.099228271484375,0.004317863199114799,-0.01483905628407374,-0.015185452860727672
1782812078863299300,3.10929931640625,-0.0009200374543666839,-0.003881809869408607,-0.021005969999532678
1782812078873370400,3.119370361328125,0.013896423405408859,-0.00869136557560414,-0.015544138096796813
1782812078883441400,3.12944140625,-0.0010685060143470764,-0.003554916002601385,-0.019829256653646005
1782812078893512400,3.139512451171875,-0.02216682362258434,-0.011665248553548007,-0.028220716834068297
1782812078903583200,3.149583251953125,-0.0037590602725744247,-0.00018772285813465714,-0.025123664134182034
1782812078913653200,3.1596533203125,-0.010040917021036147,-0.010423650994617492,-0.03327344277952798
1782812078923724300,3.169724365234375,-0.01452770704627037,-0.0029512327547185123,-0.01812064437116496
1782812078933795300,3.17979541015625,-0.003304302242398262,-0.015569900442427023,-0.030037525031645782
1782812078943866400,3.189866455078125,-0.011833645656704903,-0.003927000718005002,-0.013818132863164646
1782812078953937400,3.1999375,-0.010488076266646384,-0.0011528598295524716,-0.004432408939895685
1782812078964008400,3.210008544921875,-0.0036029929280281064,-0.01668335071019828,-0.012513139795378082
1782812078974079500,3.22007958984375,-0.011384732845425604,-0.0022778726709540933,-0.022914185090898535
1782812078984150500,3.230150634765625,-0.01437865396440029,0.006916099531389773,-0.013195932144479592
1782812078994221600,3.2402216796875,-0.019165888240933418,-0.0027318726493045687,-0.027261422798258717
1782812079004292600,3.250292724609375,-0.02589958041012287,-0.014399176162621005,-0.017485775967151857
1782812079014363400,3.26036328125,-0.005251344656944275,-0.015660391737474126,-0.014928312319971155
1782812079024434400,3.270434326171875,-0.005251344656944275,0.0003686141166836023,-0.0135854075277457
1782812079034505500,3.28050537109375,-0.003904606223106384,-0.00339100327831693,-0.020578396803804206
1782812079044576500,3.290576416015625,-0.0015109890848398208,0.0017573285287246108,-0.023015496890770735
1782812079054647600,3.3006474609375,0.0037263270467519758,-0.016807452013902366,-0.00861883691222174
1782812079064718600,3.310718505859375,-0.0021101240217685697,0.0025389986920170485,-0.034456565316603516
1782812079074789400,3.320789306640625,-0.0027098434805870055,-0.015640216599125414,-0.01853592319925665
1782812079084860400,3.3308603515625,-0.01812310118973255,-0.011710448535298928,-0.016476094317820388
1782812079094931500,3.340931396484375,-0.009893032982945442,-0.012343211747193708,-0.02482103934223996
1782812079105002500,3.35100244140625,-0.009743395379185676,-0.019543781642615794,-0.030806527509610167
1782812079115073500,3.361073486328125,-0.005104629662632942,-0.005159666051808744,-0.005202901263692183
1782812079125144600,3.37114453125,-0.011838321831822395,-0.020278571323724463,-0.008407071024796459
1782812079135215400,3.38121533203125,0.0016278934627771376,-0.01096070788023062,-0.013189661092252936
1782812079145286400,3.391286376953125,-0.01617898138463497,-0.01633998063262552,-0.028162787518196272
1782812079155357400,3.401357421875,-0.00106616792678833,-0.007184248948283493,-0.006519416947558056
1782812079165428500,3.411428466796875,-0.0022626842349767686,-0.013511442675814032,-0.014843129670992493
1782812079175499500,3.42149951171875,-0.005555296039581299,-0.001537265170412138,-0.008972553712228545
1782812079185570600,3.431570556640625,-0.011840075397491455,0.00938528439020738,-0.013875439982884563
1782812079195641600,3.4416416015625,-0.005704933643341064,-0.0004846691112499684,-0.024522211659292224
1782812079205712400,3.45171240234375,0.0050683893054723735,-0.018837642667256294,-0.024337968533032106
1782812079215782400,3.461782470703125,0.0019259996265172958,0.004969184981007129,-0.025938092639471867
1782812079225853400,3.471853515625,0.011951134556531906,-0.019688067217823117,-0.023017595233023165
1782812079235924500,3.481924560546875,-0.0006190086811780929,-0.007340389358066022,-0.0406364138621604
1782812079245995300,3.491995361328125,0.003570259702205658,-0.007476144566945731,-0.02451630935817957
1782812079256066300,3.50206640625,0.009707155022025108,-0.010870198318874463,-0.021076667465432547
1782812079266137300,3.512137451171875,-0.009295067089796065,-0.003671464187512174,-0.016444969668838894
1782812079276208400,3.52220849609375,-0.016775193712115288,-0.0025790932403877377,-0.026300471094902602
1782812079286279400,3.532279541015625,-0.004355272600054741,0.003869918502215296,-0.031483349058940076
1782812079296350500,3.5423505859375,0.006119359663128853,0.005047821441479027,-0.018812359812238718
1782812079306421500,3.55242138671875,-0.013633388555049895,-0.005677123187808319,-0.01610239531735424
1782812079316492300,3.5624921875,0.007914426386356354,-0.00046856735982000824,-0.018600408978434277
1782812079326563300,3.572563232421875,-0.007198387071490287,-0.014143045977083966,0.0016895719385822303
1782812079336634400,3.58263427734375,-0.004953823015093803,-0.006046650619944557,-0.03179371648263186
1782812079346705400,3.592705322265625,0.00836158563196659,0.00326020737234503,-0.0246960863718763
1782812079356776400,3.6027763671875,-0.0004682020336389541,-0.018096587642142548,-0.010329533837223424
1782812079366847500,3.612847412109375,0.005369418078660965,-0.007729827067069709,-0.011784004678565543
1782812079376918300,3.622918212890625,-0.013633973076939582,-0.011677550912695005,-0.01665878594945534
1782812079386989300,3.6329892578125,0.0017804536759853363,-0.011936895968625322,-0.022883493125112727
1782812079397060400,3.643060302734375,-0.0019604864180088042,-0.00008864639783278107,-0.028038419069722292
1782812079407131400,3.65313134765625,-0.011088964769244194,-0.003953989189630374,-0.023380565060209482
1782812079417202400,3.663202392578125,-0.010940496209263802,-0.010280680593661964,-0.014236115104996132
1782812079427273500,3.6732734375,-0.00001578209102153778,-0.0017306597175076603,-0.004356514709070325
1782812079437344800,3.6833447265625,-0.015427286234498024,-0.011249525625817478,-0.0038507251779781653
1782812079447415800,3.693415771484375,-0.005699672946333885,-0.021312818875443187,-0.0036591401371231765
1782812079457486800,3.70348681640625,0.012106617379188537,-0.01243150195199996,-0.02571527335178107
1782812079467557600,3.7135576171875,0.000436053329706192,-0.004336878426838666,-0.013660079057508845
1782812079477628700,3.723628662109375,-0.0021077859342098237,0.010926540749147534,-0.013334808608918683
1782812079487698700,3.73369873046875,-0.0013566753059625625,-0.010519256856199354,-0.01738462856406113
1782812079497769700,3.743769775390625,-0.009288052827119827,-0.011836970124952495,-0.03296833148626611
1782812079507840800,3.7538408203125,0.0035813656181097027,-0.01441291242702864,-0.013506444556999486
1782812079517911600,3.76391162109375,0.006574117693305015,0.0005638261615298688,-0.013462673913931938
1782812079527982600,3.773982666015625,0.005826514196395874,-0.007426350608468055,-0.01690561630039592
1782812079538053600,3.7840537109375,0.0041787469893693925,-0.010592997945845126,-0.005402597687410889
1782812079548124700,3.794124755859375,0.00866787510216236,0.0018271697613876311,-0.012365955585252959
1782812079558195700,3.80419580078125,0.00013736264407634735,-0.008858054778864607,-0.026191950952820477
1782812079568266800,3.814266845703125,-0.013629881423711776,-0.01439005214124918,-0.041286251506442204
1782812079578337800,3.824337890625,0.007317045015096664,-0.008375824219873174,-0.006450025522755459
1782812079588408800,3.834408935546875,0.00013502455651760102,-0.004259822002099826,-0.01042941401512362
1782812079598480000,3.84447998046875,-0.001211129355430603,-0.013424814705131575,-0.012769070193159858
1782812079608551000,3.854551025390625,0.00013677812218666077,-0.014687016660673543,-0.03257807635993231
1782812079618622000,3.8646220703125,-0.001959317374229431,-0.0035343298722989853,-0.027693290859903207
1782812079628693000,3.87469287109375,-0.0031570027261972424,-0.018911265025893225,-0.030384603169956243
1782812079638763800,3.884763671875,0.00013619360029697419,-0.015085614923667163,-0.018839810649811987
1782812079648834800,3.894834716796875,0.002530395260453224,-0.012829570492031052,-0.0028094633635831995
1782812079658905900,3.90490576171875,-0.007944821524620055,-0.012169754876429214,-0.01944460700090276
1782812079668977000,3.914976806640625,-0.004351180946826934,-0.013062237603589892,-0.027767600488418247
1782812079679048000,3.9250478515625,0.012557283756136893,-0.0010786255495622754,-0.034242580072628336
1782812079689119000,3.935118896484375,0.004328384593129158,-0.01924463429925963,-0.015917426105309277
1782812079699189800,3.945189697265625,-0.014973112726211548,-0.0001910655926913023,-0.014523777506535406
1782812079709260800,3.9552607421875,-0.007790507745742798,-0.01440757866478525,-0.00812124781224993
1782812079719331800,3.965331787109375,-0.005545943689346313,-0.02425653504398651,-0.020335306479642167
1782812079729403000,3.97540283203125,-0.005695581293106078,-0.004683253312250599,-0.005810176124592544
1782812079739474000,3.985473876953125,0.0014864391654729843,-0.013951267998339607,-0.013433158983435714
1782812079749545000,3.995544921875,-0.007044073292613029,-0.01760237438441254,-0.023361390002281403
1782812079759614700,4.00561474609375,-0.0033019641548395155,0.000437450702348724,-0.009282367438427173
1782812079769685800,4.015685791015625,0.0010363573104143142,-0.005776701971609145,-0.019389899405289904
1782812079779756800,4.0257568359375,0.005527823510766029,-0.01015141905765049,-0.008303906336199724
1782812079789827800,4.035827880859375,0.003732756787538528,-0.01106889009559527,-0.007002725218783598
1782812079799899000,4.04589892578125,0.00029109190106391906,-0.009138524821214378,-0.0371001020953292
1782812079809969700,4.0559697265625,-0.0007563713252544403,-0.00525448646210134,-0.03616244221930392
1782812079820040700,4.066040771484375,0.008968903875350952,-0.002283252098970115,-0.041253655277937645
1782812079830111700,4.07611181640625,-0.0103349315315485,-0.015389493241067975,-0.012509716004075017
1782812079840182800,4.086182861328125,0.002087327668070793,-0.006478612296422943,-0.015495660454215248
1782812079850253800,4.09625390625,-0.012577742022275924,-0.015850032558059318,-0.020916385170072316
1782812079860324900,4.106324951171875,0.003583703705668449,-0.005569963885750621,-0.022692703810345848
1782812079870395600,4.116395751953125,-0.0071878656774759285,-0.012026364350365474,-0.012470506230049068
1782812079880466700,4.126466796875,-0.013021978658437728,-0.011546910270350054,-0.011451809015555772
1782812079890537700,4.136537841796875,-0.008384381985664368,-0.011006775511661545,-0.017406988809630274
1782812079900608800,4.14660888671875,-0.002998597294092178,-0.012123824242316186,-0.02035692008982878
1782812079910679800,4.1566796875,-0.01078150625526905,-0.01874470368679613,-0.027610398349422027
1782812079920750800,4.166750732421875,-0.002552607092261314,-0.013431016117054969,-0.018646158091101095
1782812079930821600,4.176821533203125,-0.010332593443989754,-0.01550447052340023,-0.018510128887585596
1782812079940892700,4.186892578125,-0.00269873756468296,-0.014749313907697795,-0.01402365738111548
1782812079950963700,4.196963623046875,0.015856909823417663,-0.004485684913536533,-0.01791655490011908
1782812079961034800,4.20703466796875,0.0004436521142721176,-0.017639327127626166,-0.017775517302990193
1782812079971105800,4.217105712890625,-0.009433598777651786,-0.0012247925546020268,-0.00661625464335666
1782812079981176800,4.2271767578125,-0.012728548669815062,-0.014365401757182553,-0.02606930638726335
1782812079991248000,4.237247802734375,-0.0019534721553325653,-0.015323424001224339,-0.022913979594921693
1782812080001317600,4.247317626953125,-0.002103109759092331,-0.014438010335667058,-0.006944327828742098
1782812080011388700,4.257388671875,0.017200141125917435,-0.005195175756607205,-0.017479519756301305
1782812080021459700,4.267459716796875,-0.022154548662900925,-0.019422356353187932,-0.012495615555130643
1782812080031530800,4.27753076171875,-0.007490063494443893,-0.024207891862979156,-0.022968737422884442
1782812080041601500,4.2876015625,-0.008687164324522018,0.005291393539542332,-0.014925079183268826
1782812080051672600,4.297672607421875,-0.015120996764302253,-0.008207993372296914,-0.02362224202870857
1782812080061743600,4.30774365234375,0.0014893617749214172,0.003286209463281557,-0.008045694933074991
1782812080071814700,4.317814697265625,-0.002101356193423271,0.0034019265311304478,-0.007914146683498983
1782812080081885700,4.3278857421875,-0.013623451682925223,-0.025767661126144228,-0.005096972654206911
1782812080091956700,4.337956787109375,-0.003897591960430145,-0.011372549217287451,-0.02515904825810576
1782812080102027800,4.34802783203125,0.0032832594543695448,-0.00033532376843504606,-0.016500051723787327
1782812080112098800,4.358098876953125,-0.005095277312397957,0.00018361293859779835,-0.0018695430318126454
1782812080122169900,4.368169921875,0.00029401451051235195,-0.020204967231396583,-0.02721920022488339
1782812080132241000,4.378240966796875,0.0020890812337398526,-0.009375749376881867,-0.02090309414694784
1782812080142312000,4.38831201171875,0.005531330642104149,-0.007614594056410714,-0.019798377458192407
1782812080152383000,4.398383056640625,-0.010029811105132102,-0.017420250150002536,-0.02459920415194938
1782812080162454000,4.4084541015625,-0.01466799229979515,-0.013857150840945541,-0.014795081286673666
1782812080172524800,4.41852490234375,-0.013320669344067573,-0.009283778510801494,-0.01858877219792339
1782812080182595800,4.428595947265625,0.0010462941825389862,-0.002515791346365586,-0.027043414399714673
1782812080192667000,4.4386669921875,0.00718260498046875,-0.01188571377065964,-0.016283036555798026
1782812080202738000,4.448738037109375,0.010174772533774376,-0.01706890682852827,-0.00427024978128029
1782812080212809000,4.45880908203125,0.010173018968105315,-0.018316787997772917,-0.015447081205289577
1782812080222880000,4.4688798828125,-0.0009019172757863998,-0.021953317869221792,-0.011291984519566176
1782812080232950800,4.47895068359375,-0.018860183292627335,-0.009571427212608978,-0.015322046036535175
1782812080243021800,4.489021728515625,0.004480944806337356,-0.007294860582752153,-0.01737335254315403
1782812080253091800,4.499091796875,0.0007400047123432159,-0.01374909648974426,-0.02690243730973452
1782812080263163000,4.509162841796875,0.0008908113598823546,-0.015931125837098808,-0.02467494311914779
1782812080273234000,4.51923388671875,-0.010931143859028816,0.0005954268761910498,-0.014422031881823203
1782812080283304700,4.5293046875,-0.005694996771216392,-0.0012851901054847985,-0.027805939187831245
1782812080293375700,4.539375732421875,0.0013385551273822783,-0.006873922623787075,-0.010244826112280133
1782812080303446800,4.54944677734375,-0.0068920976012945175,-0.016098563959030435,-0.02912262497670017
1782812080313517800,4.559517822265625,-0.012427519896626472,-0.005103542817244306,-0.03333319187643938
1782812080323588900,4.5695888671875,-0.0035977322310209274,-0.0038609588776249435,-0.021041125794593243
1782812080333660000,4.579659912109375,-0.010481062003970145,-0.010607811922486872,-0.016722122092806966
1782812080343730700,4.589730712890625,0.017649638459086417,-0.017114636533241717,-0.013362596231565112
1782812080353801700,4.5998017578125,-0.0022521628409624098,-0.008584964325372129,-0.02994885351763805
1782812080363872800,4.609872802734375,-0.007191372808814048,-0.006876297243963926,-0.03072368066490162
1782812080373943800,4.61994384765625,0.0061240358382463455,0.00017855317099019883,-0.018538271561614236
1782812080384014800,4.630014892578125,0.010911270114779471,-0.01319268644968979,-0.021995467377360908
1782812080394086000,4.6400859375,-0.005099953487515449,-0.016208947264635936,-0.02147892355681397
1782812080404156700,4.65015673828125,0.00597264466881752,-0.007485405585635453,-0.013119274153606966
1782812080414227700,4.660227783203125,-0.006596914047002792,-0.009708415397349745,-0.0019837234464124775
1782812080424298800,4.670298828125,0.009413725033402442,-0.016863328653294592,-0.004428378935460932
1782812080434369800,4.680369873046875,-0.008993453794717788,-0.014035959740262477,-0.015922516697313403
1782812080444440800,4.69044091796875,0.0008814590096473693,-0.007967992337653412,-0.004011818040802609
1782812080454511900,4.700511962890625,-0.010040332499146461,-0.00973221639804542,-0.03134028732643928
1782812080464582700,4.710582763671875,0.0028261633366346356,-0.012244098754273727,-0.00893062339979806
1782812080474653700,4.72065380859375,-0.006302315014600753,-0.000524179137730971,-0.025637894983345174
1782812080484724700,4.730724853515625,-0.014234277057647704,-0.011074908844428136,-0.017283049619419035
1782812080494794800,4.740794677734375,-0.015279986718297004,0.0003185552967246622,-0.01918866632832214
1782812080504865800,4.75086572265625,-0.012885785058140755,-0.0032685459424275903,-0.026374456496431956
1782812080514936600,4.7609365234375,-0.011839490875601768,-0.010639586167084053,-0.010944998854445293
1782812080525007600,4.771007568359375,0.014943302109837532,0.003869872836442664,-0.005728442383091896
1782812080535078700,4.78107861328125,0.0023737433940172192,0.0023333474515471607,-0.0264752294401871
1782812080545149700,4.791149658203125,0.0020744681864976883,-0.0028783958473708477,-0.00891264592675725
1782812080555220700,4.801220703125,-0.0037613983601331707,-0.016823133640224114,-0.015613954213284886
1782812080565291800,4.811291748046875,-0.0003179799079895019,-0.003336058220686391,-0.009093169575836509
1782812080575362600,4.821362548828125,0.0050695583492517465,-0.0036824148397892713,-0.015495248320617246
1782812080585433600,4.83143359375,0.004321370330452919,-0.013835623995726928,-0.027949023753218352
1782812080595504600,4.841504638671875,-0.01079202764928341,-0.008880549738463014,-0.019726319152268114
1782812080605575700,4.85157568359375,-0.006002455285191536,-0.0161746248699259,-0.007141030861064791
1782812080615646700,4.861646728515625,-0.008695932152867316,0.007912892016395926,-0.01049489873307757
1782812080625717800,4.8717177734375,-0.006602174744009971,0.00256641642190516,-0.01163418441171525
1782812080635788800,4.881788818359375,-0.007349193719029426,-0.008169542791740968,-0.007981468307157047
1782812080645859800,4.89185986328125,-0.007198971593379974,-0.010763048149971291,-0.020723155019758268
1782812080655931000,4.901930908203125,-0.004952069449424743,-0.01931944396798499,-0.01057789399154717
1782812080666002000,4.912001953125,-0.02171206559240818,-0.01137991053983569,-0.012482638484193011
1782812080676073000,4.922072998046875,-0.007347440153360366,-0.00806113224751316,-0.014982727654639165
1782812080686144000,4.93214404296875,0.005669862329959869,-0.014853349670907482,-0.015243367335223593
1782812080696214800,4.94221484375,-0.006750643303990364,-0.016333980150101707,-0.017202054521790706
1782812080706285800,4.952285888671875,-0.002412321838736534,-0.01580695146815851,-0.02060698357747169
1782812080716355800,4.96235595703125,-0.002261515191197395,-0.010916402947623282,-0.015090208900393916
1782812080726427000,4.972427001953125,-0.0030097032099962234,-0.0118203021179419,-0.024112747225700875
1782812080736498000,4.982497802734375,0.003573182311654091,-0.014575446044979616,-0.01301354419023264
1782812080746568700,4.992568603515625,-0.008547463592886924,-0.008445044398028402,-0.009512132490135264
1782812080756639700,5.0026396484375,-0.001665302863717079,-0.012285691139986737,0.005191501945198979
1782812080766710800,5.012710693359375,-0.010793781214952468,-0.004622709630895405,-0.015506564299075397
1782812080776781800,5.02278173828125,-0.017081483182311057,-0.011897175879590213,-0.03326717515223426
1782812080786852900,5.032852783203125,-0.024115619602799416,-0.017799093399755654,-0.028171132938144727
1782812080796924000,5.042923828125,0.0008767828345298766,-0.007485085925227031,-0.01527121204008581
1782812080806994700,5.05299462890625,-0.012591770547628401,-0.013840966891124844,-0.02150273140737554
1782812080817065700,5.063065673828125,-0.008701192849874495,-0.014003737971093505,-0.014236320600972976
1782812080827136800,5.07313671875,-0.008849076887965202,-0.016264559042546898,-0.009611202100571245
1782812080837207800,5.083207763671875,0.0067155719906091685,-0.005920229494990781,-0.014604000852606259
1782812080847278800,5.09327880859375,-0.004208557605743408,-0.0064789958889130495,-0.009015083387924823
1782812080857350000,5.103349853515625,-0.0009171148449182509,-0.004799819763470441,-0.013610384422086645
1782812080867420700,5.113420654296875,-0.0030120412975549694,-0.0221554071794264,-0.01785738119194284
1782812080877491700,5.12349169921875,0.0013274492114782332,-0.01601139713223092,-0.028962160018249413
1782812080887562800,5.133562744140625,-0.007203647768497467,-0.0002902516508474946,-0.0072623990682768634
1782812080897633800,5.1436337890625,-0.002265606844425201,-0.008272893568361177,-0.013325475666637067
1782812080907704800,5.153704833984375,-0.00017126491367816925,-0.012734329956630245,-0.026495178532961287
1782812080917776000,5.16377587890625,0.011052139890193938,-0.013660751486010848,-0.020215666721924208
1782812080927846700,5.1738466796875,0.012399462845921515,-0.0197125988708809,-0.02032145376751432
1782812080937916700,5.183916748046875,-0.0021159692406654356,-0.006633811991289258,-0.02045409228741191
1782812080947987700,5.19398779296875,0.006263736569881439,-0.015324255118286237,-0.011496269211790058
1782812080958058800,5.204058837890625,-0.011242694026231764,-0.006880206234101205,-0.006815529800322837
1782812080968129800,5.2141298828125,-0.00974631798863411,-0.0025635668776929376,-0.027405747189372776
1782812080978200600,5.22420068359375,-0.013186813831329344,0.00917773345359601,-0.01617886493691476
1782812080988271600,5.234271728515625,-0.01782324146032333,0.006052660235622898,-0.03765247299779439
1782812080998342700,5.2443427734375,-0.014829904863238335,-0.00508304801848717,-0.01465735445806058
1782812081008413700,5.25441357421875,0.0005839373677968978,-0.013123712866706773,0.0016548956341343
1782812081018484700,5.264484619140625,0.008366261807084083,0.0059486701381858435,0.0014290806717588565
1782812081028555800,5.2745556640625,0.0014835165560245513,-0.009150407055253162,-0.013909513499133754
1782812081038626600,5.28462646484375,0.014351765957474708,-0.005388232376985252,-0.0237989183364436
1782812081048697600,5.294697509765625,-0.0036070845812559127,0.0032994342710357155,-0.008865977790416217
1782812081058765800,5.304765869140625,-0.0036076691031455992,0.0033678050658199933,-0.008959145099739543
1782812081068836600,5.314836669921875,-0.016474749460816382,-0.014403541810484602,-0.0186545503184665
1782812081078907600,5.32490771484375,-0.011687515184283256,-0.009683564083883538,-0.029231451079458928
1782812081088978700,5.334978759765625,-0.015878537133336066,-0.0004944050539750606,-0.01147903494919883
1782812081099049700,5.3450498046875,-0.005106383228302001,-0.007976778432307765,-0.02532356148730032
1782812081109120800,5.355120849609375,-0.001963409027457237,-0.018339173359517007,-0.01937117415522225
1782812081119191800,5.36519189453125,-0.013335866913199424,-0.010241344097116961,-0.0022353738196543415
1782812081129262600,5.3752626953125,-0.0015121581286191938,-0.0077107935730367895,-0.020234576918371022
1782812081139333600,5.385333740234375,-0.01587795261144638,-0.010812010991387068,-0.02678278385228477
1782812081149404700,5.39540478515625,0.0037257425248622893,-0.00865217520953156,-0.02359561888326425
1782812081159475700,5.405475830078125,0.004175824379920959,-0.004249410205939785,-0.024655379902152344
1782812081169546800,5.415546630859375,-0.0018090952485799788,-0.01908449356779456,-0.01629278277332196
1782812081179617800,5.42561767578125,-0.0018096797704696655,-0.01829521548678167,-0.011152871734753716
1782812081189688600,5.4356884765625,-0.007497662279009818,-0.014302693518204613,-0.035338793794519735
1782812081199759600,5.445759521484375,-0.004504910203814506,-0.014285029997350648,-0.019153375819232314
1782812081209830700,5.45583056640625,-0.0019599018961191177,-0.01753990360745229,-0.029252982491254804
1782812081219901700,5.465901611328125,0.0016308160722255706,-0.005234448321070522,-0.027481136813410557
1782812081229972000,5.475971923828125,0.006720248165726661,-0.013501259208517148,-0.003659887914150022
1782812081240042800,5.486042724609375,0.004325461983680725,-0.0037056130522862074,-0.0027608498653280546
1782812081250113800,5.49611376953125,-0.014980126988887786,-0.007174622603412717,-0.00996741339340806
1782812081260184800,5.506184814453125,-0.005102876096963882,-0.016071064030751585,-0.019708032293617724
1782812081270255900,5.516255859375,-0.008843816190958023,-0.0017100279214326292,-0.015287482754874508
1782812081280327000,5.526326904296875,-0.011537293058633803,-0.005035473416559398,-0.018646396694763097
1782812081290398000,5.53639794921875,-0.018870704686641693,-0.00913668905715458,-0.007840027709584682
1782812081300468700,5.54646875,-0.010789689561724661,-0.00607451587440446,-0.021879732043202964
1782812081310539800,5.556539794921875,0.011954641687870025,-0.0021263171047437935,-0.017252284588397015
1782812081320610800,5.56661083984375,0.002827332380414009,0.0032073629402555523,-0.015763349788449704
1782812081330681900,5.576681884765625,-0.007198387071490287,-0.013397068181680514,-0.018916528006189037
1782812081340753000,5.5867529296875,0.0019306758016347885,-0.006123031191248446,-0.024597359254735055
1782812081350824000,5.596823974609375,0.009413140511512756,-0.00933081425661221,-0.026470388868288137
1782812081360894700,5.606894775390625,-0.01168517709672451,-0.017643263517227024,-0.021819855082128196
1782812081370965800,5.6169658203125,-0.168656192484498,-0.008036847189627588,-0.06627608752734959
1782812081381036800,5.627036865234375,0.2878893056303263,0.010643458624603227,0.07360896943239495
1782812081391107800,5.63710791015625,-0.1767348695218563,-0.02577965295803733,-0.08700365386074409
1782812081401179000,5.647178955078125,0.03500175527632236,-0.012042685297504067,-0.014604414127848575
1782812081411250000,5.65725,0.011060323196649551,-0.0003263458775356412,-0.01543146465269383
1782812081421319700,5.667319580078125,0.00492693500816822,-0.04577811043243855,-0.015703399762138723
1782812081431390700,5.677390625,-0.019314941322803498,-0.0031525183473248035,0.011467193814355413
1782812081441461000,5.6874609375,-0.030240239962935445,-0.017706738941185175,-0.014910660215560347
1782812081451535000,5.69753515625,-0.009887772285938262,-0.0218451904527843,-0.023555270889855453
