time,seconds_elapsed,z,y,x
1782812075821864200,0.0678642578125,0.000745728611946106,-0.000451413681730628,-0.0012028729543089867
1782812075831935200,0.077935302734375,-0.0004065366229042411,-0.00042657763697206974,-0.000644197512883693
1782812075842006300,0.08800634765625,-0.00330778444185853,0.0011260452447459102,-0.0024045470636337996
1782812075852077300,0.098077392578125,-0.001233976916410029,0.00211405660957098,0.0007124266703613102
1782812075862148000,0.108148193359375,0.0016970981378108263,0.0007188266608864069,-0.0004644241416826844
1782812075872219100,0.11821923828125,0.0012184412917122245,-0.0013114900793880224,0.00008117436664178967
1782812075882290200,0.128290283203125,-0.0025243652053177357,-0.00006193481385707855,-0.0003960641042795032
1782812075892361200,0.138361328125,-0.0021377657540142536,0.001205966342240572,0.00014512744382955134
1782812075902432300,0.148432373046875,0.0007456388557329774,-0.0007064496167004108,0.0008085209410637617
1782812075912503300,0.15850341796875,0.0009449251228943467,-0.0007176848594099283,0.0018648012774065137
1782812075922574000,0.168573974609375,0.0000881862360984087,-0.0011536444071680307,-0.0015128859085962176
1782812075932645000,0.17864501953125,-0.0026291189715266228,-0.0011309576220810413,0.0004260909336153418
1782812075942716200,0.188716064453125,0.0005781259969808161,-0.0009940711315721273,-0.0003092078259214759
1782812075952787200,0.198787109375,-0.00039029133040457964,0.00021204841323196888,-0.0017110598273575306
1782812075962858200,0.208858154296875,-0.00009547942318022251,0.002119936980307102,-0.0005350079154595733
1782812075972929300,0.21892919921875,0.00032219779677689075,-0.001515660434961319,0.0020259893499314785
1782812075983000000,0.229,0.0008476395159959793,-0.0016413615085184574,0.00008774080197326839
1782812075993071000,0.239071044921875,0.0008090251358225942,0.0019644175190478563,-0.0001840307959355414
1782812076003142100,0.24914208984375,0.00031527504324913025,0.0006562728667631745,-0.001259415177628398
1782812076013213200,0.259213134765625,0.001431402750313282,-0.0010161753743886948,-0.0004892374854534864
1782812076023284200,0.2692841796875,-0.0004967257846146822,-0.0011932754423469305,-0.0010913782753050327
1782812076033355300,0.279355224609375,0.0011238015722483397,-0.000748626422137022,0.0009433940285816789
1782812076043426000,0.289426025390625,-0.0013526719994843006,0.0005637794965878129,-0.0007037711329758167
1782812076053497000,0.2994970703125,-0.0012823034776374698,0.00113759096711874,-0.0007576380157843232
1782812076063568100,0.309568115234375,0.00045594177208840847,0.0007751346565783024,-0.0025637939106673002
1782812076073639200,0.31963916015625,-0.0004315086407586932,-0.0014774317387491465,-0.0006260234513320029
1782812076083710200,0.329710205078125,0.0006864863098599017,0.00012632389552891254,0.0002589449577499181
1782812076093780000,0.339780029296875,0.002030364004895091,-0.00028275675140321255,-0.0004348389047663659
1782812076103851000,0.34985107421875,-0.0006684834370389581,0.0012189997360110283,0.0009774353820830584
1782812076113922000,0.359922119140625,0.0010761348530650139,-0.0013215241488069296,0.001067118369974196
1782812076123993000,0.3699931640625,-0.0014067302690818906,0.0006910266820341349,-0.00004182188422419131
1782812076134064000,0.380064208984375,-0.0003689088625833392,-0.000030570896342396736,0.0017906817374750972
1782812076144135200,0.39013525390625,-0.0004695763345807791,0.0005646455101668835,-0.0014453253243118525
1782812076154206000,0.4002060546875,-0.0019788332283496857,0.0004131937166675925,3.048917278647423e-7
1782812076164277000,0.410277099609375,-0.002633970696479082,-0.0000699036754667759,-0.00018265427206642926
1782812076174348000,0.42034814453125,-0.001135401544161141,0.000999401556327939,-0.0018733479082584381
1782812076184419000,0.430419189453125,-0.00040889123920351267,0.0008260298054665327,0.002152020111680031
1782812076194490000,0.440489990234375,-0.0001972712343558669,0.0005944744916632771,0.000580926425755024
1782812076204561200,0.45056103515625,0.0010642681736499071,-0.00012244842946529388,-0.0012025926262140274
1782812076214632000,0.4606318359375,0.0013254896039143205,0.000508704804815352,0.0002535113017074764
1782812076224703000,0.470702880859375,-0.0002497702371329069,-0.0013240824919193983,0.0006801497074775398
1782812076234774000,0.48077392578125,-0.0003655198961496353,-0.0019663667771965265,0.000035942415706813335
1782812076244845000,0.490844970703125,0.0006954834680072963,-0.00019350065849721432,-0.0006010857177898288
1782812076254916000,0.500916015625,-0.0010314052924513817,0.001485771732404828,0.0013015472795814276
1782812076264987100,0.510987060546875,0.0007830063696019351,0.0013851041439920664,-0.00032031789305619895
1782812076275058000,0.521057861328125,-0.002378550823777914,-0.0014195351395756006,-0.0005258754827082157
1782812076285129000,0.53112890625,-0.0007026236271485686,-0.0006032763049006462,-0.0004979122895747423
1782812076295200000,0.541199951171875,0.0027069570496678352,-0.0010020430199801922,0.0013478685868903995
1782812076305271000,0.55127099609375,0.0003979962784796953,0.0022853631526231766,0.00032042109523899853
1782812076315342000,0.561342041015625,0.0002009683521464467,0.0003495116252452135,0.000931140617467463
1782812076325413000,0.5714130859375,-0.00027147645596414804,-0.001116558676585555,-0.00196371553465724
1782812076335484200,0.581484130859375,0.0018484703032299876,0.0008353288285434246,0.0027690676506608725
1782812076345555000,0.591554931640625,-0.0014261524192988873,0.0022188411094248295,-0.00005068723112344742
1782812076355626000,0.6016259765625,-0.003472657408565283,0.000012109754607081413,-0.0016218246892094612
1782812076365697000,0.611697021484375,0.003257683478295803,0.000603065243922174,0.00044079363578930497
1782812076375768000,0.62176806640625,0.002705759136006236,0.00033975031692534685,0.0009448609780520201
1782812076385839000,0.631839111328125,-0.0007893734145909548,-0.0013289863709360361,-0.0009190854616463184
1782812076395910100,0.64191015625,0.0002769687562249601,-0.0001235511153936386,0.00044251742656342685
1782812076405981200,0.651981201171875,0.00166607357095927,0.0008732700953260064,0.00006674541509710252
1782812076416052200,0.66205224609375,-0.0011644628830254078,-0.002144233090803027,0.0010958276689052582
1782812076426123300,0.672123291015625,0.001556488685309887,-0.002129585715010762,-0.00038888450944796205
1782812076436194600,0.682194580078125,0.001246418571099639,0.0010152860777452588,0.00048455983051098883
1782812076446265600,0.692265625,0.00048528716433793306,0.000846441718749702,0.002745583653450012
1782812076456336600,0.702336669921875,-0.001970379613339901,-0.0012639162596315145,0.0009159193141385913
1782812076466407400,0.712407470703125,0.0006917162099853158,-0.0006402039434760809,-0.0001022071810439229
1782812076476478500,0.722478515625,-0.0013504753587767482,-0.0013580899685621262,0.0028032504487782717
1782812076486549500,0.732549560546875,-0.00178989686537534,-0.000784178962931037,0.0006077405414544046
1782812076496620500,0.74262060546875,0.00026973173953592777,0.0000019280705600976944,0.0037353176157921553
1782812076506691600,0.752691650390625,-0.0009414738742634654,0.0006328310118988156,-0.0013143023243173957
1782812076516762600,0.7627626953125,-0.0007657216629013419,0.0007595664355903864,-0.0017061165999621153
1782812076526833400,0.77283349609375,0.00017357512842863798,-0.001386941410601139,-0.00007466421811841428
1782812076536904400,0.782904541015625,-0.0012392669450491667,0.0006269110599532723,0.0006181466160342097
1782812076546975500,0.7929755859375,-0.0008970506023615599,0.002362759318202734,-0.0009672332089394331
1782812076557046500,0.803046630859375,-0.0006225901888683438,-0.0013306636828929186,0.0008110161870718002
1782812076567117600,0.81311767578125,0.0012528079096227884,0.0015037385746836662,-0.002126450417563319
1782812076577188600,0.823188720703125,0.0018134344136342406,-0.0025190270971506834,-0.001880437252111733
1782812076587259600,0.833259765625,-0.0008622434688732028,-0.000944832805544138,0.0003968317760154605
1782812076597330700,0.84333056640625,0.002586475107818842,-0.0006097347941249609,0.00016259451513178647
1782812076607401700,0.853401611328125,0.000576054910197854,0.0015000213170424104,0.0019157534698024392
1782812076617472800,0.86347265625,0.0015510873636230826,0.0024588322266936302,-0.0016871283296495676
1782812076627543800,0.873543701171875,-0.001580523792654276,-0.0007295040413737297,-0.0015843302244320512
1782812076637614800,0.88361474609375,-0.0026248483918607235,0.00018817675299942493,-0.00270940107293427
1782812076647686000,0.893685791015625,0.0009720168891362846,0.0012185537489131093,0.0019234339706599712
1782812076657756700,0.903756591796875,-0.0007939161732792854,0.00045184034388512373,-0.0018252878217026591
1782812076667827700,0.91382763671875,0.00012087961658835411,-0.002328766044229269,0.00015903342864476144
1782812076677897700,0.923897705078125,0.0006340964464470744,0.001146805239841342,-0.0007936275214888155
1782812076687969800,0.9339697265625,-0.001012536115013063,0.002620066050440073,0.0018034870736300945
1782812076698039600,0.94403955078125,-0.0010494885500520468,0.0005229719681665301,0.0032164715230464935
1782812076708110600,0.954110595703125,-0.0003458814462646842,0.00041751074604690075,-0.0007953143212944269
1782812076718181600,0.964181640625,0.0004737917333841324,0.00034710473846644163,-0.0006177029572427273
1782812076728252700,0.974252685546875,-0.002650895155966282,0.001669097924605012,0.0021658330224454403
1782812076738323700,0.98432373046875,-0.0015931527595967054,-0.0005115489475429058,0.00037606817204505205
1782812076748394800,0.994394775390625,-0.00026876269839704037,0.0027670685667544603,0.001943338429555297
1782812076758465800,1.0044658203125,0.0003829054185189307,-0.001240248093381524,-0.0009405011078342795
1782812076768536600,1.01453662109375,-0.000323897460475564,0.00028281379491090775,-0.0001093285100068897
1782812076778607600,1.024607666015625,0.0013750067446380854,-0.002319351537153125,0.0021190703846514225
1782812076788678700,1.0346787109375,0.0013542340602725744,-0.0004077344201505184,0.0021696703042834997
1782812076798749700,1.044749755859375,0.00029545591678470373,-0.0004143172409385443,0.0010854925494641066
1782812076808820700,1.05482080078125,-0.0021839472465217113,0.002373746130615473,0.0010772368405014277
1782812076818891800,1.064891845703125,0.0008812425076030195,0.0019088344415649772,-0.0013478351756930351
1782812076828962600,1.074962646484375,0.0008359687635675073,-0.00012102699838578701,-0.0011401085648685694
1782812076839033600,1.08503369140625,0.0006815424421802163,-0.00013780733570456505,0.0010252567008137703
1782812076849104600,1.095104736328125,-0.0004210062325000763,0.0004110700683668256,0.0001006071106530726
1782812076859175700,1.10517578125,0.0007328662322834134,-0.0013888580724596977,0.0031260778196156025
1782812076869246700,1.115246826171875,0.00018904870375990868,0.0005248895613476634,-0.0008311131969094276
1782812076879317800,1.12531787109375,0.001461658626794815,0.0025814638938754797,-0.0010998883517459035
1782812076889388500,1.135388427734375,-0.0001197264064103365,0.002662423998117447,-0.0010871051345020533
1782812076899459600,1.14545947265625,0.002364500891417265,0.0005389084108173847,-0.0006916424608789384
1782812076909530600,1.155530517578125,0.0011189405340701342,0.00005048466846346855,-0.00009882281301543117
1782812076919601700,1.1656015625,0.0008449334418401122,0.0013543227687478065,0.000593816046603024
1782812076929672700,1.175672607421875,-0.0006645462708547711,-0.0009887262713164091,-0.0002469439059495926
1782812076939743700,1.18574365234375,-0.003741057589650154,0.000012328149750828743,-0.0034531971905380487
1782812076949814500,1.195814453125,0.0028137806802988052,-0.0023594831582158804,0.0008648522198200226
1782812076959885600,1.205885498046875,0.0007652011699974537,-0.000986908795312047,-0.0013051406713202596
1782812076969956600,1.21595654296875,0.00021605734946206212,-0.00011765281669795513,0.0016301954165101051
1782812076980027600,1.226027587890625,0.000016024685464799404,0.0004086990375071764,-0.0004788750084117055
1782812076990098700,1.2360986328125,0.0015255043981596828,-0.0009407247416675091,-0.001295400201343
1782812077000169700,1.246169677734375,0.0012205089442431927,0.0006288782460615039,0.0004494960012380034
1782812077010240500,1.256240478515625,0.0009169085533358157,0.00011648610234260559,0.00273741758428514
1782812077020311600,1.2663115234375,-0.0004906998947262764,-0.0011753221042454243,-0.0006983857019804418
1782812077030382600,1.276382568359375,0.00030585151398554444,0.0015142043121159077,0.0007293349481187761
1782812077040453600,1.28645361328125,-0.0011807525297626853,0.0009178090840578079,0.0007193019846454263
1782812077050524700,1.296524658203125,0.0018315489869564772,0.0010376513237133622,0.0001334065746050328
1782812077060595700,1.306595703125,0.00106798205524683,-0.0005284282378852367,0.001588386483490467
1782812077070666500,1.31666650390625,-0.0009509603260084987,-0.00003494438715279102,0.0005822443054057658
1782812077080737500,1.326737548828125,-0.0027004426810890436,-0.0003605475649237633,0.00015914440155029297
1782812077090808600,1.33680859375,0.0004769747029058635,-0.00007212720811367035,0.0011746076634153724
1782812077100879600,1.346879638671875,-0.0015256130136549473,0.001129240496084094,-0.00006317932275123894
1782812077110950700,1.35695068359375,-0.000852099503390491,0.0002317551989108324,-0.0007923528319224715
1782812077121021700,1.367021728515625,0.0009050426306203008,-0.0008517568930983543,-0.0004760547017212957
1782812077131092500,1.377092529296875,0.0002890534815378487,-0.0006546829827129841,-0.00029975344659760594
1782812077141162800,1.387162841796875,-0.000032583833672106266,-0.001263556070625782,0.00024143012706190348
1782812077151233800,1.39723388671875,0.0005322726210579276,-0.002368501853197813,0.0018185541266575456
1782812077161304800,1.407304931640625,-0.0002548954216763377,-0.0014956004451960325,-0.0004980480880476534
1782812077171375900,1.4173759765625,0.0014130424242466688,-0.0005142255686223507,-0.0006152271525934339
1782812077181446700,1.42744677734375,-0.0016997699858620763,-0.000241932924836874,0.0010831113904714584
1782812077191517700,1.437517578125,-0.0010393058182671666,-0.0009644485544413328,0.0006860340945422649
1782812077201588700,1.447588623046875,-0.0017116563394665718,0.0014207891654223204,-0.0006529659149236977
1782812077211659800,1.45765966796875,-0.0003816736862063408,-0.00016432441771030426,0.00020031086751259863
1782812077221730800,1.467730712890625,-0.002650304464623332,0.00014049885794520378,-0.00016022223280742764
1782812077231801900,1.4778017578125,0.0006299110245890915,-0.000977762509137392,-0.0005759416962973773
1782812077241872600,1.48787255859375,0.0009615038870833814,-0.0006807837635278702,-0.0012491231318563223
1782812077251943700,1.497943603515625,-0.0019722343422472477,0.0021781197283416986,0.0007969835423864424
1782812077262014700,1.5080146484375,-0.0006122936028987169,0.00005906843580305576,0.00044494675239548087
1782812077272085800,1.518085693359375,0.0004471118445508182,0.003547276835888624,-0.00020566346938721836
1782812077282156800,1.52815673828125,-0.000440072501078248,-0.000522843562066555,-0.001794024370610714
1782812077292227800,1.538227783203125,-0.0023823159281164408,0.0010108710266649723,-0.00035272169043309987
1782812077302298600,1.548298583984375,0.00025054271100088954,0.0012165551306679845,0.0006140299374237657
1782812077312369700,1.55836962890625,-0.00022563047241419554,-0.001805600244551897,-0.0005822620005346835
1782812077322440700,1.568440673828125,-0.0008330473210662603,0.00127512461040169,-0.0025073024444282055
1782812077332511700,1.57851171875,-0.001287116319872439,-0.00005911919288337231,0.0029638956766575575
1782812077342582800,1.588582763671875,-0.000838074367493391,-0.0015198171604424715,0.0011515039950609207
1782812077352653800,1.59865380859375,-0.00036802643444389105,0.0016418875893577933,0.0027523301541805267
1782812077362724600,1.608724609375,-0.0032808356918394566,-0.001046650344505906,-0.00032357004238292575
1782812077372795600,1.618795654296875,0.00026170111959800124,-0.00020269467495381832,0.000826649134978652
1782812077382866700,1.62886669921875,0.0010918757179751992,-0.0002720453776419163,-0.0010822915937751532
1782812077392937700,1.638937744140625,-0.0015640949131920934,0.0008342317305505276,0.000646632572170347
1782812077403008800,1.6490087890625,-0.0013819161104038358,0.002901189960539341,0.0014118370600044727
1782812077413079800,1.659079833984375,0.0003549976390786469,0.002400781959295273,0.0008248763624578714
1782812077423150600,1.669150634765625,-0.0016173390904441476,-0.0007480711210519075,0.0008584512397646904
1782812077433222000,1.679221923828125,-0.000110256252810359,0.0009108118247240782,0.001760730054229498
1782812077443293000,1.68929296875,0.00021084991749376059,0.0010621247347444296,0.0008707820670679212
1782812077453364000,1.699364013671875,0.0001474666642025113,0.0014677242143079638,-0.0008972905343398452
1782812077463435000,1.70943505859375,0.0009708409779705107,-0.001060739392414689,-0.000316143617965281
1782812077473505800,1.719505859375,0.0016299732960760593,-0.0014250597450882196,0.00003379571717232466
1782812077483576800,1.729576904296875,-0.0002942594001069665,0.002161526121199131,-0.001826906343922019
1782812077493648000,1.73964794921875,-0.0003272825852036476,-0.00048645492643117905,0.0010072296718135476
1782812077503719000,1.749718994140625,-0.00027862261049449444,-0.00011968030594289303,-0.0016941979993134737
1782812077513790000,1.7597900390625,-0.002719942480325699,0.0012142970226705074,-0.0008630254305899143
1782812077523861000,1.769861083984375,0.0013891159323975444,-0.00014895829372107983,0.0015802548732608557
1782812077533931800,1.779931884765625,-0.001129169249907136,-0.0013718819245696068,-0.00009487339411862195
1782812077544001800,1.790001708984375,0.0015765116550028324,0.00036182987969368696,0.0013015706790611148
1782812077554072800,1.80007275390625,-0.0014379203785210848,0.00006222422234714031,-0.0013621230609714985
1782812077564143900,1.810143798828125,0.000756493303924799,0.0004868472460657358,0.0016004476929083467
1782812077574214700,1.820214599609375,0.00016740203136578202,-0.0012727032881230116,0.0014784749364480376
1782812077584285700,1.83028564453125,0.0001393302227370441,1.8137507140636444e-7,-0.001632339903153479
1782812077594356700,1.840356689453125,-0.0014069010503590107,0.00032295635901391506,0.0009463989408686757
1782812077604427800,1.850427734375,0.001857496565207839,0.00005390075966715813,-0.002931323368102312
1782812077614498800,1.860498779296875,-0.0005196410929784179,0.0025293088983744383,0.0017515792278572917
1782812077624569900,1.87056982421875,-0.00009310920722782612,0.00032789784017950296,0.0005854939809069037
1782812077634641000,1.880640869140625,0.001374026294797659,-0.0012441661674529314,-0.0005021409597247839
1782812077644711700,1.890711669921875,-0.00020926620345562696,-0.00116446684114635,0.001029080944135785
1782812077654782700,1.90078271484375,0.0015068748034536839,0.0008179901633411646,0.0027883651200681925
1782812077664853800,1.910853759765625,0.0007265157182700932,0.00003418605774641037,0.000992791960015893
1782812077674924800,1.9209248046875,0.002292720600962639,-0.0006148263346403837,-0.0005758098559454083
1782812077684995800,1.930995849609375,0.00007170462049543858,0.0012338176602497697,-0.00003831816138699651
1782812077695067000,1.94106689453125,-0.00034268328454345465,0.0010817511938512325,-0.00033952167723327875
1782812077705137700,1.9511376953125,-0.0025481670163571835,0.0004587512230500579,-0.00131255725864321
1782812077715208700,1.961208740234375,-0.0018347060540691018,0.0022217638324946165,0.0015745756682008505
1782812077725279700,1.97127978515625,-0.0013849112438037992,0.0019350363872945309,0.0019039066974073648
1782812077735350800,1.981350830078125,-0.00018169498071074486,0.000043925829231739044,-0.000050853617722168565
1782812077745421800,1.991421875,-0.0011388115817680955,-0.0017946544103324413,-0.0007866089581511915
1782812077755492900,2.001492919921875,0.00017599115381017327,-0.0004124739207327366,0.001662700204178691
1782812077765563600,2.011563720703125,0.00016437983140349388,-0.0008280966430902481,0.0008852018509060144
1782812077775634700,2.021634765625,-0.0025344674941152334,0.0001551422756165266,-0.001258110161870718
1782812077785705700,2.031705810546875,0.00030431337654590607,-0.0008032375480979681,0.0005324372323229909
1782812077795776800,2.04177685546875,0.000393262947909534,0.0003773416392505169,0.0004618634993676096
1782812077805847800,2.051847900390625,-0.0034090718254446983,-0.000038013095036149025,0.0009682928794063628
1782812077815918800,2.0619189453125,-0.0012761460384353995,0.0012168684042990208,0.00023272779071703553
1782812077825989600,2.07198974609375,-0.001024017226882279,-0.0013153969775885344,0.0021133781410753727
1782812077836060700,2.082060791015625,-0.00046661763917654753,0.0022598968353122473,-0.0008147674961946905
1782812077846131700,2.092131591796875,0.0006133351707831025,0.0017251987010240555,0.0026799740735441446
1782812077856202800,2.10220263671875,0.0007227910682559013,0.00003941776230931282,0.0002122890728060156
1782812077866273800,2.112273681640625,0.0001706888433545828,-0.0003842143341898918,-0.0003859244170598686
1782812077876344800,2.1223447265625,-0.0008178765419870615,0.0006150036351755261,-0.0021971403621137142
1782812077886415600,2.13241552734375,-0.0005418990040197968,0.0012990394607186317,0.0028068367391824722
1782812077896486700,2.142486572265625,0.0008362868102267385,0.0012782667763531208,-0.0007740497821941972
1782812077906557700,2.1525576171875,-0.0017212724778801203,0.0016077430918812752,-0.0017191061051562428
1782812077916628700,2.162628662109375,0.00022283510770648718,-0.002177674090489745,-0.0018051262013614178
1782812077926699800,2.17269970703125,0.0003185916575603187,0.00288058677688241,-0.000015767436707392335
1782812077936769800,2.182769775390625,0.0009231292642652988,-0.0024374795611947775,-0.0013265752932056785
1782812077946840800,2.1928408203125,0.0008248300291597843,-0.0003402549773454666,-0.0008738378528505564
1782812077956911900,2.202911865234375,0.00024292938178405166,0.00037879846058785915,-0.0021247246768325567
1782812077966983000,2.21298291015625,-0.0005852271569892764,0.001453677425161004,-0.0000842187728267163
1782812077977054000,2.223053955078125,-0.000018772785551846027,-0.0009554179850965738,-0.0006030025542713702
1782812077987125000,2.233125,0.0009808947797864676,0.0007584280101582408,-0.0006775627261959016
1782812077997195800,2.24319580078125,-0.001909433864057064,0.0017946639563888311,-0.0018858389230445027
1782812078007266800,2.253266845703125,-0.00026778411120176315,-0.00041400385089218616,0.0006018574349582195
1782812078017337900,2.263337890625,-0.0002747082617133856,0.000012634554877877235,-0.0016168219735845923
1782812078027409000,2.273408935546875,0.00008593022357672453,0.0013797234278172255,-0.0023205874022096395
1782812078037480000,2.28347998046875,-0.0002443017438054085,-0.00017396477051079273,0.0025410130620002747
1782812078047551000,2.293551025390625,-0.0010042684152722359,0.001383740920573473,-0.0006934822304174304
1782812078057621800,2.303621826171875,-0.0021030886564403772,0.0012804102152585983,-0.0009576678276062012
1782812078067692800,2.31369287109375,-0.0026761721819639206,-0.0013475795276463032,-0.00012817559763789177
1782812078077763800,2.323763916015625,-0.0004207412712275982,0.0006692323368042707,0.0009653183515183628
1782812078087835000,2.3338349609375,0.00004371779505163431,-6.638001650571823e-7,0.00005253532435745001
1782812078097906000,2.343906005859375,-0.00021753821056336164,-0.0011604703031480312,-0.0006071297102607787
1782812078107977000,2.35397705078125,-0.0005784276872873306,0.0019176192581653595,0.0019043642096221447
1782812078118047700,2.3640478515625,-0.00019519880879670382,-0.000007846159860491753,0.0012297856155782938
1782812078128118800,2.374118896484375,-0.0017627235502004623,0.0034167333506047726,0.0016203506384044886
1782812078138189800,2.38418994140625,-0.002639968879520893,-0.0003455141559243202,-0.0010808935621753335
1782812078148260900,2.3942607421875,-0.0032595426309853792,-0.00069600366987288,-0.000859770632814616
1782812078158332000,2.404331787109375,0.0011799467029049993,0.0002669955138117075,-0.001874434994533658
1782812078168403000,2.41440283203125,0.0010862300405278802,-0.0008676417637616396,0.0003311741165816784
1782812078178473700,2.4244736328125,-0.000026704976335167885,0.0015696833143010736,-0.002406821819022298
1782812078188544800,2.434544677734375,-0.0016393066616728902,0.0024023959413170815,0.0004962728125974536
1782812078198615800,2.44461572265625,-0.00021211872808635235,0.00023511541076004505,-0.0018363898852840066
1782812078208686800,2.454686767578125,-0.002661897102370858,-0.002533373422920704,0.00010659056715667248
1782812078218758000,2.4647578125,-0.00014148151967674494,-0.00017301389016211033,-0.000831907382234931
1782812078228829000,2.474828857421875,-0.001175162149593234,0.0007094501052051783,-0.000436191214248538
1782812078238899700,2.484899658203125,-0.0002502463757991791,0.0008852187311276793,-0.0003317953087389469
1782812078248970800,2.494970703125,0.0021274478640407324,0.0005169659852981567,0.00038742192555218935
1782812078259041800,2.505041748046875,0.0007167714647948742,-0.0006974353455007076,-0.0004240432463120669
1782812078269111800,2.51511181640625,-0.0007580885430797935,0.0006688943831250072,-0.0022374149411916733
1782812078279184000,2.525183837890625,-0.0016992497257888317,0.001022562151774764,0.0008419981459155679
1782812078289253600,2.535253662109375,-0.0010884610237553716,-0.002152651082724333,-0.00004310905933380127
1782812078299324700,2.54532470703125,0.00046149868285283446,0.002178181428462267,-0.0016865457873791456
1782812078309395700,2.555395751953125,0.0006094925920479,0.00246012257412076,-0.0007583789993077517
1782812078319466800,2.565466796875,-0.0014427393907681108,-0.0010222268756479025,-0.0006571788690052927
1782812078329537800,2.575537841796875,0.00318774301558733,-0.0008442739490419626,0.00009555084398016334
1782812078339608800,2.58560888671875,0.0004446872044354677,0.0017610964132472873,-0.0005135140963830054
1782812078349679600,2.5956796875,0.002027814742177725,-0.0019211769104003906,0.0015040767611935735
1782812078359750700,2.605750732421875,-0.0011725060176104307,-0.0014303566422313452,-0.001115142134949565
1782812078369821700,2.61582177734375,0.000991874374449253,-0.0008363679517060518,0.000854182057082653
1782812078379892700,2.625892822265625,-0.0003759252140298486,0.0003953441046178341,-0.001950925448909402
1782812078389963800,2.6359638671875,0.00009120081085711718,0.002574646845459938,-0.00038632325595244765
1782812078400034800,2.646034912109375,-0.001551436958834529,0.001090467325411737,-0.001205511623993516
1782812078410105600,2.656105712890625,0.0016455682925879955,0.000055416952818632126,-0.0003911584208253771
1782812078420176600,2.6661767578125,-0.0009411601349711418,-0.00027588033117353916,-0.0011376424226909876
1782812078430247700,2.67624755859375,0.00005718506872653961,-0.0011690128594636917,-0.00018005940364673734
1782812078440318500,2.686318359375,-0.0021985124330967665,0.00019399309530854225,-0.0002927111054304987
1782812078450389500,2.696389404296875,0.0011690015671774745,0.00020021945238113403,0.0025707276072353125
1782812078460460500,2.70646044921875,0.000050473958253860474,-0.0023841119837015867,0.0017989433836191893
1782812078470531600,2.716531494140625,-0.0002644169144332409,-0.0020388299599289894,0.00033560115844011307
1782812078480602600,2.7266025390625,-0.0021280969958752394,0.0004988962318748236,0.0015358878299593925
1782812078490673400,2.73667333984375,-0.000934307579882443,0.0016024343203753233,-0.000599280814640224
1782812078500744400,2.746744384765625,-0.0006557408487424254,0.0022876658476889133,-0.0006938230362720788
1782812078510815500,2.7568154296875,0.0011773520382121205,0.0011783922091126442,0.00016143242828547955
1782812078520886500,2.766886474609375,-0.0006767406594008207,-0.0006136489100754261,0.000323618995025754
1782812078530957600,2.77695751953125,0.0014520904514938593,0.0014029964804649353,-0.0020977261010557413
1782812078541028600,2.787028564453125,0.0006134610739536583,0.001203259453177452,-0.0002833144390024245
1782812078551099400,2.797099365234375,-0.0011205378687009215,0.0009137127781286836,-0.000784749339800328
1782812078561170400,2.80717041015625,0.0005287578096613288,0.0011720394250005484,-0.0009967369260266423
1782812078571241500,2.817241455078125,0.00004558498039841652,-0.003506817389279604,0.0013681279961019754
1782812078581312500,2.8273125,-0.00320453685708344,-0.0011256849393248558,-0.0003810361085925251
1782812078591383600,2.837383544921875,-0.0005112121580168605,-0.0004239669069647789,0.0010661702835932374
1782812078601454600,2.84745458984375,-0.003517388366162777,-0.00005192332901060581,-0.0032169916667044163
1782812078611525400,2.857525390625,0.001655801897868514,0.002450116677209735,0.0024158605374395847
1782812078621595400,2.867595458984375,-0.0018640980124473572,0.0000724464189261198,-0.00030056393006816506
1782812078631666400,2.87766650390625,0.000327583693433553,-0.0001828772947192192,0.0017212696839123964
1782812078641737500,2.887737548828125,0.0007928379345685244,-0.00023773848079144955,-0.000260122207691893
1782812078651808500,2.89780859375,-0.00029657362028956413,-0.0014451651368290186,-0.003000295953825116
1782812078661879300,2.90787939453125,0.00029438186902552843,0.002153830835595727,-0.00010943447705358267
1782812078671950300,2.917950439453125,0.000543323636520654,-0.000287891598418355,-0.0005682371556758881
1782812078682021400,2.928021484375,-0.0007075631292536855,-0.000024771085008978844,-0.0009408134501427412
1782812078692092400,2.938092529296875,-0.0010159676894545555,0.0018343061674386263,0.001280104392208159
1782812078702163500,2.94816357421875,-0.00011182448361068964,-0.0015029010828584433,-0.0010160730453208089
1782812078712234500,2.958234375,-0.00001799594610929489,-0.00039278832264244556,0.0020598415285348892
1782812078722305300,2.96830517578125,0.0005702963680960238,-0.00020903022959828377,0.0019181612879037857
1782812078732376300,2.978376220703125,0.00033867364982143044,-0.0002749464474618435,0.0009118473972193897
1782812078742447400,2.988447265625,-0.0023860065266489983,-0.001195334829390049,-0.0002825803530868143
1782812078752518400,2.998518310546875,-0.0018525556661188602,-0.00039939675480127335,0.0005041230469942093
1782812078762589400,3.00858935546875,-0.003163629909977317,0.0012088862713426352,-0.0012056264095008373
1782812078772660500,3.018660400390625,-0.000996553455479443,0.0003797257086262107,-0.0011823659297078848
1782812078782731300,3.028731201171875,-0.0012319769011810422,0.001189859351143241,-0.001268918626010418
1782812078792802300,3.03880224609375,0.00034909037640318274,0.00009880121797323227,0.0005692400736734271
1782812078802873300,3.048873291015625,-0.001477571902796626,-0.0007749819196760654,0.0013423558557406068
1782812078812944400,3.0589443359375,-0.0015769496094435453,-0.0007256267126649618,0.00039060256676748395
1782812078823015400,3.069015380859375,0.0008912681951187551,0.0018003814620897174,-0.0021785490680485964
1782812078833086500,3.07908642578125,0.0002509223995730281,0.001214715652167797,-0.0030792849138379097
1782812078843157200,3.0891572265625,-0.002219425980001688,-0.0022854767739772797,0.000009715557098388672
1782812078853228300,3.099228271484375,0.001432071323506534,0.0007372570689767599,-0.0004995617782697082
1782812078863299300,3.10929931640625,0.0004256627871654928,-0.0011093788780272007,-0.001230599475093186
1782812078873370400,3.119370361328125,-0.0004746455233544111,-0.0011013643816113472,-0.0004792541731148958
1782812078883441400,3.12944140625,-0.0003015401307493448,-0.0002853719051927328,-0.0007285260362550616
1782812078893512400,3.139512451171875,-0.0015328993322327733,0.001682164380326867,-0.001103822374716401
1782812078903583200,3.149583251953125,0.0006263917312026024,-0.001507503679022193,-0.0031571194995194674
1782812078913653200,3.1596533203125,0.00008843687828630209,0.0011237438302487135,-0.0021916422992944717
1782812078923724300,3.169724365234375,0.00012066104682162404,-0.0011527261231094599,-0.0005535318632610142
1782812078933795300,3.17979541015625,0.0013315064134076238,0.0013420719187706709,0.000058297417126595974
1782812078943866400,3.189866455078125,0.0020875777117908,-0.0003812597133219242,0.0018809647299349308
1782812078953937400,3.1999375,-0.001652610837481916,0.0007166475988924503,-0.0011055184295400977
1782812078964008400,3.210008544921875,0.0015730098821222782,-0.00015953253023326397,-0.0008008527802303433
1782812078974079500,3.22007958984375,0.0012870468199253082,-0.000030149472877383232,0.0006617031176574528
1782812078984150500,3.230150634765625,-0.00131992157548666,-0.00033295084722340107,0.000530941819306463
1782812078994221600,3.2402216796875,0.000638069468550384,0.0004628313472494483,0.00033890613121911883
1782812079004292600,3.250292724609375,0.0015531316166743636,-0.0002956369426101446,0.0004211977939121425
1782812079014363400,3.26036328125,-0.0021129297092556953,-0.002370459260419011,0.000816077459603548
1782812079024434400,3.270434326171875,-0.0015595249133184552,0.0012160197366029024,-0.0009589193505235016
1782812079034505500,3.28050537109375,-0.0005453937919810414,0.0003129893448203802,0.0009172105928882957
1782812079044576500,3.290576416015625,-0.0010034575825557113,-0.000696615083143115,-0.0014998744009062648
1782812079054647600,3.3006474609375,0.0012718081707134843,0.001214830670505762,-0.0005475590005517006
1782812079064718600,3.310718505859375,-0.0002757547190412879,0.0012007160112261772,0.0008231700048781931
1782812079074789400,3.320789306640625,-0.00006175984162837267,-0.0006265032570809126,-0.0011706334771588445
1782812079084860400,3.3308603515625,-0.001473235315643251,-0.0010989480651915073,-0.0007173634949140251
1782812079094931500,3.340931396484375,-0.00014729134272783995,-0.00023456569761037827,-0.0006049061194062233
1782812079105002500,3.35100244140625,-0.001540124649181962,0.00012416206300258636,-0.000060023332480341196
1782812079115073500,3.361073486328125,0.0001265332684852183,-0.0011101462878286839,-0.00011177395936101675
1782812079125144600,3.37114453125,-0.00048732536379247904,-0.0010555514600127935,0.0014024995034560561
1782812079135215400,3.38121533203125,0.0026209079660475254,-0.002422787481918931,-0.00006825069431215525
1782812079145286400,3.391286376953125,0.0017479239031672478,-0.00120625551789999,-0.000009394832886755466
1782812079155357400,3.401357421875,-0.0011299607576802373,-0.001041507814079523,0.000207664561457932
1782812079165428500,3.411428466796875,0.00003890052903443575,0.0004980654921382666,0.0011658698786050081
1782812079175499500,3.42149951171875,-0.0013480477500706911,-0.00047127739526331425,0.0002173301763832569
1782812079185570600,3.431570556640625,0.0003377333050593734,0.0009620359633117914,0.0011094891233369708
1782812079195641600,3.4416416015625,0.002624757122248411,-0.00009934301488101482,-0.00030405353754758835
1782812079205712400,3.45171240234375,-0.00068049191031605,0.00012516160495579243,0.0008158056298270822
1782812079215782400,3.461782470703125,-0.0025419292505830526,0.0009574387222528458,-0.001112805213779211
1782812079225853400,3.471853515625,0.0011119277914986014,0.0005798025522381067,0.0018845826853066683
1782812079235924500,3.481924560546875,-0.0006157485768198967,0.0009641249198466539,-0.0014776336029171944
1782812079245995300,3.491995361328125,-0.00031747447792440653,-0.0002076658420264721,-0.0008824170217849314
1782812079256066300,3.50206640625,-0.0008577618282288313,0.0006235791370272636,-0.00299088004976511
1782812079266137300,3.512137451171875,-0.0008646862115710974,0.0009548764210194349,-0.0023123067803680897
1782812079276208400,3.52220849609375,-0.002024279674515128,0.0025081702042371035,-0.0008017577929422259
1782812079286279400,3.532279541015625,0.0014737823512405157,0.00013502733781933784,-0.0011136139510199428
1782812079296350500,3.5423505859375,-0.0005138610722497106,0.002245866460725665,-0.00265482347458601
1782812079306421500,3.55242138671875,0.0019506282405927777,0.00008497759699821472,0.0003670654259622097
1782812079316492300,3.5624921875,0.0006760482210665941,-0.0011749942786991596,-0.0009838815312832594
1782812079326563300,3.572563232421875,-0.00004140741657465696,0.00010279053822159767,0.00030615372816100717
1782812079336634400,3.58263427734375,0.0006736217183060944,0.002046985784545541,0.00036331999581307173
1782812079346705400,3.592705322265625,0.00034285709261894226,-0.0003554518334567547,0.003799330210313201
1782812079356776400,3.6027763671875,-0.0011814188910648227,0.00026527466252446175,-0.0009205734822899103
1782812079366847500,3.612847412109375,-0.0010852786945179105,0.0008588932687416673,0.001058954163454473
1782812079376918300,3.622918212890625,-0.0011110551422461867,0.0013584018452093005,-0.002143635880202055
1782812079386989300,3.6329892578125,0.000194160093087703,0.001297681825235486,-0.000733225722797215
1782812079397060400,3.643060302734375,0.0006410992937162519,-0.0006189907435327768,0.0006850871141068637
1782812079407131400,3.65313134765625,0.0005995539831928909,-0.0010714619420468807,0.0011370256543159485
1782812079417202400,3.663202392578125,-0.0003937229048460722,0.0003603048389777541,-0.0002726823149714619
1782812079427273500,3.6732734375,-0.00041289767250418663,0.0008545875316485763,0.0014977870741859078
1782812079437344800,3.6833447265625,-0.0009621873032301664,0.0011732482817023993,-0.0006378110265359282
1782812079447415800,3.693415771484375,-0.0008362196385860443,0.002842251444235444,0.00030255113961175084
1782812079457486800,3.70348681640625,-0.0006235180189833045,0.000009732786566019058,-0.0004465369856916368
1782812079467557600,3.7135576171875,0.0005434791091829538,-0.0004227645695209503,0.00013456476153805852
1782812079477628700,3.723628662109375,0.0018629881087690592,0.0003513358533382416,-0.0004850662953685969
1782812079487698700,3.73369873046875,-0.0000803204020485282,0.00097691232804209,-0.001418237923644483
1782812079497769700,3.743769775390625,0.0010928119299933314,0.0015321222599595785,0.00006398645928129554
1782812079507840800,3.7538408203125,0.0004070479772053659,0.0016279960982501507,0.00030846463050693274
1782812079517911600,3.76391162109375,0.0005656908033415675,0.002383628161624074,-0.0021503958851099014
1782812079527982600,3.773982666015625,0.0012629063567146659,-0.0004425183869898319,0.0003100986941717565
1782812079538053600,3.7840537109375,0.00040119781624525785,0.00039709836710244417,0.001666033174842596
1782812079548124700,3.794124755859375,0.00029547029407694936,-0.00038480572402477264,0.0011195525294169784
1782812079558195700,3.80419580078125,0.000228528690058738,0.0015317874494940042,-0.00028985124663449824
1782812079568266800,3.814266845703125,0.0005584943573921919,0.000056129880249500275,0.0009628997067920864
1782812079578337800,3.824337890625,-0.00046493997797369957,0.0004977539647370577,0.001343665411695838
1782812079588408800,3.834408935546875,-0.001954978797584772,0.0008743249345570803,-0.001214300747960806
1782812079598480000,3.84447998046875,-0.0009302557446062565,0.0014672656543552876,-0.0014251386746764183
1782812079608551000,3.854551025390625,-0.0018032400403171778,0.0012789801694452763,0.00005691044498234987
1782812079618622000,3.8646220703125,0.0009427511249668896,0.0003342640120536089,-0.0008454211638309062
1782812079628693000,3.87469287109375,0.00037363357841968536,0.000569154741242528,-0.00016631511971354485
1782812079638763800,3.884763671875,0.0005209871451370418,0.0010494593298062682,-0.0020188719499856234
1782812079648834800,3.894834716796875,-0.0003535950090736151,0.002517659915611148,0.0016610840102657676
1782812079658905900,3.90490576171875,0.0013724815798923373,0.001461411127820611,-0.0008717196760699153
1782812079668977000,3.914976806640625,-0.0020813720766454935,0.00029068533331155777,-0.0008890301687642932
1782812079679048000,3.9250478515625,-0.00008132960647344589,0.001445887261070311,-0.00039991928497329354
1782812079689119000,3.935118896484375,0.00034770567435771227,0.0026464401744306087,0.0002581478329375386
1782812079699189800,3.945189697265625,-0.0002478256355971098,0.0005709276301786304,-0.001717942301183939
1782812079709260800,3.9552607421875,-0.0009213390294462442,0.0018178196623921394,0.0006839626585133374
1782812079719331800,3.965331787109375,0.00046073232078924775,0.001567882252857089,-0.0014370616991072893
1782812079729403000,3.97540283203125,-0.00044713926035910845,0.00021952367387712002,0.0005850765737704933
1782812079739474000,3.985473876953125,-0.0010128276189789176,0.0003456869162619114,-0.0007307833293452859
1782812079749545000,3.995544921875,0.00029398553306236863,-0.00024393689818680286,-0.00004981301026418805
1782812079759614700,4.00561474609375,0.00024664949160069227,0.0013509944546967745,-0.00011058617383241653
1782812079769685800,4.015685791015625,-0.0008646876085549593,-0.00035955384373664856,-0.0008384281536564231
1782812079779756800,4.0257568359375,-0.0014177924022078514,-0.0002793385647237301,-0.002352767623960972
1782812079789827800,4.035827880859375,-0.0005101871211081743,0.0004370516398921609,-0.0009538091253489256
1782812079799899000,4.04589892578125,-0.00006337021477520466,0.00022310810163617134,-0.00037819184944964945
1782812079809969700,4.0559697265625,0.00007724459283053875,0.0010960922809317708,0.0003600363852456212
1782812079820040700,4.066040771484375,-0.0014901154208928347,0.0027390685863792896,0.0007097477209754288
1782812079830111700,4.07611181640625,-0.002264828886836767,0.00009428337216377258,-0.0010985387489199638
1782812079840182800,4.086182861328125,0.0005528851761482656,-0.0008933458011597395,-0.0005319840274751186
1782812079850253800,4.09625390625,-0.00013793876860290766,0.0006249223370105028,0.001421710941940546
1782812079860324900,4.106324951171875,0.001309928484261036,-0.0005251287948340178,-0.000815552135463804
1782812079870395600,4.116395751953125,0.0011235072743147612,0.0010844857897609472,-0.0008698806050233543
1782812079880466700,4.126466796875,-0.0005931741325184703,0.00042445026338100433,0.0006267646094784141
1782812079890537700,4.136537841796875,0.002346156630665064,0.0006508189253509045,0.0016217216616496444
1782812079900608800,4.14660888671875,0.001179849961772561,0.0008699609898030758,0.0013961358927190304
1782812079910679800,4.1566796875,0.000020043342374265194,-0.0005737387109547853,0.0006911969394423068
1782812079920750800,4.166750732421875,-0.0013997213682159781,-0.0009306441061198711,0.00005792733281850815
1782812079930821600,4.176821533203125,-0.0005818646168336272,-0.00003635464236140251,-0.002658496843650937
1782812079940892700,4.186892578125,-0.0016210016328841448,0.000025468645617365837,-0.0020995093509554863
1782812079950963700,4.196963623046875,0.003917308058589697,-0.0014392698649317026,-0.0007530151051469147
1782812079961034800,4.20703466796875,-0.00027258077170699835,0.00024798279628157616,0.0018605324439704418
1782812079971105800,4.217105712890625,0.0028086965903639793,-0.0013270105700939894,0.0017758437898010015
1782812079981176800,4.2271767578125,-0.0001937279012054205,-0.00019575306214392185,-0.0011893685441464186
1782812079991248000,4.237247802734375,-0.002110671252012253,-0.0006498221773654222,0.0011550121707841754
1782812080001317600,4.247317626953125,-0.0003177932230755687,-0.002399385441094637,-0.000973785761743784
1782812080011388700,4.257388671875,0.0003296212526038289,-0.002484340686351061,-0.0009932268876582384
1782812080021459700,4.267459716796875,-0.0005439107771962881,-0.0005387722048908472,0.0011717325542122126
1782812080031530800,4.27753076171875,-0.0004317916464060545,0.0010633855126798153,-0.0010674531804397702
1782812080041601500,4.2876015625,-0.0003694841871038079,-0.0005799334030598402,-0.0012485561892390251
1782812080051672600,4.297672607421875,0.0003130840486846864,0.002124772872775793,-0.0011012833565473557
1782812080061743600,4.30774365234375,0.00041772640543058515,0.0017091194167733192,0.0007816895376890898
1782812080071814700,4.317814697265625,0.0012875148095190525,-0.0008613637182861567,-0.0009030260844156146
1782812080081885700,4.3278857421875,-0.0007631088374182582,0.0010206594597548246,-0.0009133573621511459
1782812080091956700,4.337956787109375,0.00033038522815331817,0.0009229214629158378,0.0017378194024786353
1782812080102027800,4.34802783203125,-0.0016191157046705484,0.00006037997081875801,0.0002980291028507054
1782812080112098800,4.358098876953125,0.0002517550019547343,-0.0003111311234533787,-0.0032980372197926044
1782812080122169900,4.368169921875,-0.001998518593609333,0.002066016662865877,-0.00032122663105838
1782812080132241000,4.378240966796875,0.0014609276549890637,-0.0013960928190499544,0.00032192678190767765
1782812080142312000,4.38831201171875,-0.0016751333605498075,0.0014587384648621082,0.0009262233506888151
1782812080152383000,4.398383056640625,-0.0011417020577937365,-0.000329574104398489,-0.0013433224521577358
1782812080162454000,4.4084541015625,0.0005817444180138409,0.0025196692440658808,-0.001481844810768962
1782812080172524800,4.41852490234375,0.00022914190776646137,0.00009086634963750839,-0.000063178944401443
1782812080182595800,4.428595947265625,0.00040077243465930223,-0.0007362929172813892,-0.00020483866683207452
1782812080192667000,4.4386669921875,-0.00044904230162501335,-0.00003454997204244137,-0.0020003418903797865
1782812080202738000,4.448738037109375,-0.0002983659505844116,-0.0020645137410610914,0.0007163217524066567
1782812080212809000,4.45880908203125,-0.0006254020845517516,-0.0004935150500386953,-0.0011287161614745855
1782812080222880000,4.4688798828125,0.0032654223032295704,0.0006126357475295663,-0.0005596664268523455
1782812080232950800,4.47895068359375,-0.0005410338053479791,-0.0012758118100464344,0.003163432702422142
1782812080243021800,4.489021728515625,0.0025275913067162037,0.000044253189116716385,-0.0009448490454815328
1782812080253091800,4.499091796875,-0.0015449145575985312,-0.00019117025658488274,0.0008458603988401592
1782812080263163000,4.509162841796875,-0.000511160003952682,0.0008665141649544239,-0.00013420067261904478
1782812080273234000,4.51923388671875,-0.0007569696754217148,0.0007253666408360004,0.001655709813348949
1782812080283304700,4.5293046875,0.0017268781084567308,0.0009682305390015244,-0.0003966468502767384
1782812080293375700,4.539375732421875,-0.0006188341649249196,-0.0011633636895567179,0.0003695445484481752
1782812080303446800,4.54944677734375,0.0006046934868209064,-0.00031105801463127136,0.0005409193690866232
1782812080313517800,4.559517822265625,-0.00019931478891521692,-0.0013558159116655588,-0.0009342054836452007
1782812080323588900,4.5695888671875,-0.0019339879509061575,-0.00025472347624599934,-0.0014676728751510382
1782812080333660000,4.579659912109375,0.0004468780825845897,-0.0025136168114840984,0.0009523415938019753
1782812080343730700,4.589730712890625,0.0006960852770134807,-0.001540422672405839,0.00038205250166356564
1782812080353801700,4.5998017578125,0.00013868568930774927,0.001532332506030798,0.00014423223910853267
1782812080363872800,4.609872802734375,0.00002576096449047327,-0.000989211956039071,-0.0014318057801574469
1782812080373943800,4.61994384765625,0.0005006025894545019,-0.0002792133018374443,0.0028217951767146587
1782812080384014800,4.630014892578125,0.0008213705150410533,-0.00030907662585377693,-0.0014619800494983792
1782812080394086000,4.6400859375,-0.00007025583181530237,-0.0024755578488111496,0.0010009113466367126
1782812080404156700,4.65015673828125,0.0027865141164511442,0.00048639089800417423,0.001971560763195157
1782812080414227700,4.660227783203125,-0.0010921136708930135,0.0023306298535317183,-0.0008447319851256907
1782812080424298800,4.670298828125,0.0011423013638705015,-0.0010162682738155127,0.0007623115088790655
1782812080434369800,4.680369873046875,-0.0007394881686195731,0.003446124494075775,0.001019572839140892
1782812080444440800,4.69044091796875,0.0016902729403227568,0.0004568534204736352,0.0009608038817532361
1782812080454511900,4.700511962890625,-0.0010368040530011058,0.0000829456839710474,-0.001253081951290369
1782812080464582700,4.710582763671875,0.0018530788365751505,-0.0008879543747752905,0.0011715951841324568
1782812080474653700,4.72065380859375,-0.0006446999032050371,-0.0005390802398324013,0.0013577500358223915
1782812080484724700,4.730724853515625,0.001669583609327674,0.0003103049239143729,-0.0005765527603216469
1782812080494794800,4.740794677734375,-0.0010353891411796212,0.0012211059220135212,-0.0018255752511322498
1782812080504865800,4.75086572265625,0.0018155600409954786,-0.001217980170622468,0.0006951459217816591
1782812080514936600,4.7609365234375,0.0006323176203295588,0.0005274555878713727,0.001018986338749528
1782812080525007600,4.771007568359375,0.0020104320719838142,-0.0006452810484915972,0.0005171516677364707
1782812080535078700,4.78107861328125,-0.00019599683582782745,-0.0005933493375778198,-0.0008501152042299509
1782812080545149700,4.791149658203125,-0.0012756529031321406,-0.00011006486602127552,-0.001492860377766192
1782812080555220700,4.801220703125,-0.0011118686525151134,-0.000534306513145566,-0.0014438582584261894
1782812080565291800,4.811291748046875,0.0008532886859029531,-0.00015562621410936117,0.0010920856148004532
1782812080575362600,4.821362548828125,0.001771812909282744,0.0024257758632302284,0.000011907482985407114
1782812080585433600,4.83143359375,0.001377074047923088,0.0006211601430550218,0.0005600651493296027
1782812080595504600,4.841504638671875,-0.00037501961924135685,-0.0015543760964646935,-0.00020799055346287787
1782812080605575700,4.85157568359375,0.000541642599273473,-0.0012873632367700338,-0.0001732594391796738
1782812080615646700,4.861646728515625,-0.0009742286056280136,0.0011531574418768287,-0.00035435438621789217
1782812080625717800,4.8717177734375,-0.00014591997023671865,-0.0012136383447796106,-0.00015594132128171623
1782812080635788800,4.881788818359375,0.0006687410059385002,-0.000586996553465724,0.000783355615567416
1782812080645859800,4.89185986328125,-0.0008739347103983164,-0.0025007782969623804,-0.0030623681377619505
1782812080655931000,4.901930908203125,0.0017910905880853534,-0.0012898389250040054,-0.0011989541817456484
1782812080666002000,4.912001953125,-0.0004324403125792742,-0.0014923803973942995,-0.0010965431574732065
1782812080676073000,4.922072998046875,0.000412846973631531,-0.0013488358817994595,-0.00042409508023411036
1782812080686144000,4.93214404296875,0.00040193257154896855,0.000002468121238052845,0.0011757973115891218
1782812080696214800,4.94221484375,0.00042989576468244195,-0.0009149909019470215,-0.0002354116877540946
1782812080706285800,4.952285888671875,-0.0001079741632565856,-0.00017975922673940659,-0.0004680115671362728
1782812080716355800,4.96235595703125,-0.00034366396721452475,0.0013145405100658536,-0.0020211669616401196
1782812080726427000,4.972427001953125,-0.0014263696502894163,-0.0004617888480424881,0.001547198393382132
1782812080736498000,4.982497802734375,-0.00016376504208892584,0.0004005427472293377,-0.0018443373264744878
1782812080746568700,4.992568603515625,-0.0011659667361527681,-0.0018086251802742481,-0.0007421688642352819
1782812080756639700,5.0026396484375,-0.000012818141840398312,-0.0003297720104455948,0.000602461164817214
1782812080766710800,5.012710693359375,-0.0018836639355868101,-0.0007639193208888173,0.0027546044439077377
1782812080776781800,5.02278173828125,0.0004479335038922727,0.0011905746068805456,0.0006126241059973836
1782812080786852900,5.032852783203125,-0.001279349671676755,-0.0005680756876245141,-0.001424133311957121
1782812080796924000,5.042923828125,-0.0005563013255596161,-0.0002692689886316657,-0.0009439653367735445
1782812080806994700,5.05299462890625,-0.0015926356427371502,-0.0006564866052940488,0.0019109136192128062
1782812080817065700,5.063065673828125,0.0007677240064367652,0.0007174382917582989,-0.003081181552261114
1782812080827136800,5.07313671875,0.0004044266534037888,-0.000044264597818255424,-0.0000063506304286420345
1782812080837207800,5.083207763671875,0.000028388341888785362,-0.0002551870420575142,-0.0008151526562869549
1782812080847278800,5.09327880859375,-0.000821424531750381,0.001795979798771441,0.0005829441361129284
1782812080857350000,5.103349853515625,0.0017687659710645676,0.0008572154911234975,-0.0010266704484820366
1782812080867420700,5.113420654296875,0.000049315858632326126,0.003115553641691804,-0.0004814705753233284
1782812080877491700,5.12349169921875,0.00166771886870265,-0.00010101241059601307,0.002141210250556469
1782812080887562800,5.133562744140625,0.00016437913291156292,-0.0007677861722186208,0.0006023045862093568
1782812080897633800,5.1436337890625,0.00017290131654590368,-0.0005057310918346047,0.0003895179834216833
1782812080907704800,5.153704833984375,0.0013467071112245321,-0.0014321437338367105,-0.00033992284443229437
1782812080917776000,5.16377587890625,0.0005091429920867085,0.0008443262195214629,-0.0019418142037466168
1782812080927846700,5.1738466796875,-0.0013579318765550852,-0.00005747214891016483,0.0006903201574459672
1782812080937916700,5.183916748046875,-0.0016471513081341982,0.0009566594962961972,0.0012972545810043812
1782812080947987700,5.19398779296875,0.00022915261797606945,0.00047137413639575243,-0.0014174726093187928
1782812080958058800,5.204058837890625,-0.0003444923786446452,-0.0014133448712527752,0.00026351463748142123
1782812080968129800,5.2141298828125,0.000005509820766746998,-0.0007297084666788578,-0.0013231760822236538
1782812080978200600,5.22420068359375,-0.0010696082608774304,0.0010897632455453277,-0.0007098500500433147
1782812080988271600,5.234271728515625,0.001017090049572289,0.0016228739405050874,-0.000691334658768028
1782812080998342700,5.2443427734375,-0.00015576614532619715,-0.00018301547970622778,0.00012066314229741693
1782812081008413700,5.25441357421875,-0.00021332234609872103,0.00015263131354004145,-0.0010709386551752687
1782812081018484700,5.264484619140625,0.0012820425909012556,0.0020152460783720016,-0.0006421697326004505
1782812081028555800,5.2745556640625,-0.0009038660209625959,0.0017500383546575904,0.0017175201792269945
1782812081038626600,5.28462646484375,0.0010852490086108446,-0.0004089863505214453,0.000909783411771059
1782812081048697600,5.294697509765625,0.0010506589896976948,0.0009445619070902467,0.000735688372515142
1782812081058765800,5.304765869140625,-0.001301444717682898,0.0007339059375226498,-0.00040174773312173784
1782812081068836600,5.314836669921875,-0.0009432138176634908,0.0017762992065399885,0.0006810609484091401
1782812081078907600,5.32490771484375,-0.0014851669548079371,-0.001417896244674921,0.0003303227131254971
1782812081088978700,5.334978759765625,-0.001192259369418025,-0.0001439596526324749,-0.0009616265306249261
1782812081099049700,5.3450498046875,-0.000013011740520596504,0.0023317148443311453,0.0006916638812981546
1782812081109120800,5.355120849609375,0.000025885063223540783,0.0007596316281706095,-0.0008024823036976159
1782812081119191800,5.36519189453125,0.0015316363424062729,-0.000016679754480719566,-0.00017903628759086132
1782812081129262600,5.3752626953125,0.0006621742504648864,0.0010005311341956258,-0.00006217457121238112
1782812081139333600,5.385333740234375,-0.0014917902881279588,0.001798946876078844,-0.00068349001230672
1782812081149404700,5.39540478515625,0.0005020459648221731,-0.0009277069475501776,0.0008860737434588373
1782812081159475700,5.405475830078125,0.0007012503920122981,-0.0005918825045228004,-0.0018468620255589485
1782812081169546800,5.415546630859375,0.00033698114566504955,-0.0003562809433788061,0.0008850741432979703
1782812081179617800,5.42561767578125,0.0008357912302017212,-0.0009285942651331425,0.0006946581415832043
1782812081189688600,5.4356884765625,0.00023864692775532603,-0.0007880823686718941,0.0029936684295535088
1782812081199759600,5.445759521484375,0.00032493332400918007,-0.0001459941267967224,-0.002194702159613371
1782812081209830700,5.45583056640625,-0.0014163177693262696,-0.0005165126640349627,-0.0006071788375265896
1782812081219901700,5.465901611328125,-0.0013526681577786803,-0.0014193244278430939,-0.00038001121720299125
1782812081229972000,5.475971923828125,-0.0024728586431592703,-0.000726776197552681,-0.0011512036435306072
1782812081240042800,5.486042724609375,-0.0007990619633346796,0.000995490001514554,0.00002831040183082223
1782812081250113800,5.49611376953125,0.00033872260246425867,0.000022194581106305122,0.0017581975553184748
1782812081260184800,5.506184814453125,-0.0015366753796115518,-0.000316559337079525,-0.0015774117782711983
1782812081270255900,5.516255859375,0.0009118730085901916,-0.0009943041950464249,-0.0008080063271336257
1782812081280327000,5.526326904296875,0.00015580153558403254,-0.00035301479510962963,-0.000618122925516218
1782812081290398000,5.53639794921875,-0.002011112403124571,-0.0008776471950113773,0.0013938297051936388
1782812081300468700,5.54646875,0.0007292802911251783,-0.0009873693343251944,-0.002814763691276312
1782812081310539800,5.556539794921875,-0.00042486691381782293,-0.00030451826751232147,-0.000637418997939676
1782812081320610800,5.56661083984375,-0.0004107521381229162,0.0010867170058190823,-0.0005175767582841218
1782812081330681900,5.576681884765625,0.0017111670458689332,-0.0004203587304800749,-0.0010151906171813607
1782812081340753000,5.5867529296875,-0.00044945557601749897,0.0008909817552193999,-0.0002982676378451288
1782812081350824000,5.596823974609375,0.00019826018251478672,-0.00018709711730480194,-0.001029617851600051
1782812081360894700,5.606894775390625,-0.0010606159921735525,0.005399948451668024,-0.004048310685902834
1782812081370965800,5.6169658203125,0.00020714907441288233,0.0214245468378067,0.0008481087279506028
1782812081381036800,5.627036865234375,-0.0016916848253458738,-0.01685519702732563,-0.0009769555181264877
1782812081391107800,5.63710791015625,-0.00009900773875415325,0.0037243333645164967,-0.002917732112109661
1782812081401179000,5.647178955078125,-0.0007315084803849459,0.0034779910929501057,-0.001233815448358655
1782812081411250000,5.65725,0.00043859193101525307,-0.01753385178744793,-0.001292983302846551
1782812081421319700,5.667319580078125,0.0013406046200543642,-0.008068177849054337,-0.0028956737369298935
1782812081431390700,5.677390625,0.0007885152590461075,0.0069554452784359455,0.002529975026845932
1782812081441461000,5.6874609375,0.0010476408060640097,0.0005095303058624268,-0.0002437073562759906
1782812081451535000,5.69753515625,-0.0023323644418269396,-0.0010261163115501404,-0.0014610354555770755
