time,seconds_elapsed,z,y,x
1782661525003167700,0.076167724609375,-0.3835783898830414,-0.13518045842647552,0.2359369993209839
1782661525013238800,0.08623876953125,-0.4408336877822876,-0.09761018306016922,0.17388400435447693
1782661525023309600,0.0963095703125,-0.4565986394882202,-0.06770271807909012,0.0970851257443428
1782661525033381400,0.10638134765625,-0.4404447078704834,0.00806527491658926,0.02971486933529377
1782661525043452400,0.116452392578125,-0.391038179397583,0.1615470051765442,0.0036688847467303276
1782661525053523500,0.1265234375,-0.3217187523841858,0.32659265398979187,-0.0021860746201127768
1782661525063594500,0.136594482421875,-0.24513815343379974,0.4458102881908417,-0.011176354251801968
1782661525073665500,0.14666552734375,-0.1852620393037796,0.5139312744140625,-0.013909289613366127
1782661525083736600,0.156736572265625,-0.1608266681432724,0.5078924894332886,0.00350965466350317
1782661525093807400,0.166807373046875,-0.1680174618959427,0.4610248804092407,0.04896049201488495
1782661525103878400,0.17687841796875,-0.17949213087558746,0.4205145835876465,0.1381039321422577
1782661525113950500,0.186950439453125,-0.17906521260738373,0.3782768249511719,0.2692182660102844
1782661525124021500,0.197021484375,-0.18055865168571472,0.33111506700515747,0.41497549414634705
1782661525134092500,0.207092529296875,-0.18834812939167023,0.27550292015075684,0.5493003129959106
1782661525144163600,0.21716357421875,-0.21334481239318848,0.19869770109653473,0.6282057166099548
1782661525154234600,0.227234619140625,-0.24466411769390106,0.07515072822570801,0.6364300847053528
1782661525164305700,0.2373056640625,-0.2659660577774048,-0.057008665055036545,0.5886428356170654
1782661525174376400,0.24737646484375,-0.25730010867118835,-0.16521316766738892,0.5080018043518066
1782661525184447500,0.257447509765625,-0.21964415907859802,-0.25870683789253235,0.4301488697528839
1782661525194518500,0.2675185546875,-0.16369061172008514,-0.35392099618911743,0.38018715381622314
1782661525204590600,0.277590576171875,-0.09879284352064133,-0.45510751008987427,0.35834258794784546
1782661525214661600,0.28766162109375,-0.0401521660387516,-0.560036838054657,0.35953274369239807
1782661525224732700,0.297732666015625,-0.0060579366981983185,-0.6097421646118164,0.37305495142936707
1782661525234803700,0.3078037109375,0.010685090906918049,-0.5966926217079163,0.37430688738822937
1782661525244874500,0.31787451171875,0.020401621237397194,-0.5735456347465515,0.3676769435405731
1782661525254945500,0.327945556640625,0.04491521790623665,-0.5792163014411926,0.3265945017337799
1782661525265016600,0.3380166015625,0.055363286286592484,-0.5927426815032959,0.26806432008743286
1782661525275087600,0.348087646484375,0.03893477842211723,-0.6271216869354248,0.21093550324440002
1782661525285159700,0.35815966796875,0.0047657182440161705,-0.6057088375091553,0.20437906682491302
1782661525295230700,0.368230712890625,-0.02680179476737976,-0.5009781718254089,0.24045024812221527
1782661525305301800,0.3783017578125,-0.03447859361767769,-0.39342114329338074,0.3007090985774994
1782661525315372500,0.38837255859375,-0.0237583015114069,-0.3008584678173065,0.3465293347835541
1782661525325443600,0.398443603515625,0.0474005863070488,-0.2754048705101013,0.36631473898887634
1782661525335514600,0.4085146484375,0.1620323657989502,-0.2532830536365509,0.34992992877960205
1782661525345585700,0.418585693359375,0.2429346889257431,-0.2721726894378662,0.27373552322387695
1782661525355656700,0.42865673828125,0.19060677289962769,-0.37336456775665283,0.1178433820605278
1782661525365728500,0.438728515625,0.04228351265192032,-0.5504640340805054,-0.05283799022436142
1782661525375799600,0.448799560546875,-0.11552795767784119,-0.819619357585907,-0.21374592185020447
1782661525385870300,0.458870361328125,-0.24910256266593933,-1.0775024890899658,-0.34020376205444336
1782661525395941400,0.46894140625,-0.3407280743122101,-1.256889820098877,-0.4124625325202942
1782661525406012400,0.479012451171875,-0.33537566661834717,-1.3062868118286133,-0.4140809178352356
1782661525416083500,0.48908349609375,-0.2112070918083191,-1.2332783937454224,-0.36027494072914124
1782661525426154500,0.499154541015625,-0.0021907479967921972,-0.9780148863792419,-0.26211246848106384
1782661525436225500,0.5092255859375,0.27005648612976074,-0.6175022125244141,-0.1176769807934761
1782661525446297300,0.51929736328125,0.5445182919502258,-0.1729585826396942,0.05574963241815567
1782661525456368400,0.529368408203125,0.7450822591781616,0.3438837230205536,0.23985715210437775
1782661525466439400,0.539439453125,0.8658320903778076,0.8550101518630981,0.4004577696323395
1782661525476510500,0.549510498046875,0.8633074164390564,1.2345266342163086,0.51051265001297
1782661525486581500,0.55958154296875,0.7194588780403137,1.2770365476608276,0.4866003394126892
1782661525496652500,0.569652587890625,0.5126681327819824,0.8983162045478821,0.2977217435836792
1782661525506723300,0.579723388671875,0.3660499155521393,0.3945592939853668,0.10399072617292404
1782661525516794400,0.58979443359375,0.311524897813797,0.07130400836467743,0.029913831502199173
1782661525526866400,0.599866455078125,0.27186158299446106,-0.08243988454341888,0.05379251390695572
1782661525536937500,0.6099375,0.10106826573610306,-0.19931110739707947,0.10907973349094391
1782661525547008500,0.620008544921875,-0.21842601895332336,-0.28330525755882263,0.22486332058906555
1782661525557079600,0.63007958984375,-0.5233811140060425,-0.2772252559661865,0.4758358895778656
1782661525567150600,0.640150634765625,-0.6713488698005676,-0.14223305881023407,0.8268024921417236
1782661525577221400,0.650221435546875,-0.7073697447776794,-0.024101633578538895,1.1147093772888184
1782661525587292400,0.66029248046875,-0.7422681450843811,0.03444657474756241,1.2791379690170288
1782661525597363500,0.670363525390625,-0.8115193843841553,0.19823338091373444,1.2833425998687744
1782661525607435500,0.680435546875,-0.8149304389953613,0.7315782904624939,0.9708853363990784
1782661525617506600,0.690506591796875,-0.7453396320343018,0.9362009763717651,0.6883106231689453
1782661525627577600,0.70057763671875,-0.5796293616294861,0.9301444888114929,0.4402365982532501
1782661525637648600,0.710648681640625,-0.33373650908470154,0.715181291103363,0.2836592197418213
1782661525647719400,0.720719482421875,0.010706084780395031,0.3907979428768158,0.2604391276836395
1782661525657790500,0.73079052734375,0.2890506386756897,0.21776063740253448,0.39051324129104614
1782661525667861500,0.740861572265625,0.4946330487728119,0.052280351519584656,0.5597323775291443
1782661525677932500,0.7509326171875,0.6036500930786133,-0.08546073734760284,0.700517475605011
1782661525688004600,0.761004638671875,0.5630565881729126,-0.03217727318406105,0.6915708184242249
1782661525698075600,0.77107568359375,0.3932507634162903,0.10072298347949982,0.4858989119529724
1782661525708146700,0.781146728515625,0.18123385310173035,0.10250818729400635,0.12063518166542053
1782661525718217500,0.791217529296875,0.03153704106807709,-0.0962296798825264,-0.3297349214553833
1782661525728288500,0.80128857421875,-0.0157794002443552,-0.2539330720901489,-0.7999078035354614
1782661525738359600,0.811359619140625,-0.027059219777584076,-0.3948361277580261,-1.259979486465454
1782661525748430600,0.8214306640625,-0.03432775288820267,-0.5416187644004822,-1.692983627319336
1782661525758501600,0.831501708984375,-0.09050953388214111,-0.733566403388977,-2.065340995788574
1782661525768573400,0.841573486328125,-0.16308419406414032,-0.9496169090270996,-2.325165033340454
1782661525778644500,0.85164453125,-0.14042441546916962,-1.2410744428634644,-2.423171281814575
1782661525788715500,0.861715576171875,-0.08771444857120514,-1.50856351852417,-2.3379323482513428
1782661525798786300,0.871786376953125,-0.10560929030179977,-1.4459571838378906,-2.1109426021575928
1782661525808857300,0.881857421875,-0.22774797677993774,-1.1549596786499023,-1.8825863599777222
1782661525818928400,0.891928466796875,-0.3650001287460327,-0.8538104891777039,-1.7704293727874756
1782661525828999400,0.90199951171875,-0.44774654507637024,-0.5793666243553162,-1.7483576536178589
1782661525839070500,0.912070556640625,-0.46992748975753784,-0.31018975377082825,-1.7248011827468872
1782661525849141500,0.9221416015625,-0.44630303978919983,-0.09772850573062897,-1.6536545753479004
1782661525859213600,0.932213623046875,-0.40686747431755066,-0.05557306110858917,-1.5240353345870972
1782661525869284400,0.942284423828125,-0.3611457943916321,-0.26460033655166626,-1.3550630807876587
1782661525879355400,0.95235546875,-0.37590768933296204,-0.532124936580658,-1.2089040279388428
1782661525889426400,0.962426513671875,-0.47788453102111816,-0.6891464591026306,-1.1378344297409058
1782661525899497500,0.97249755859375,-0.6238265037536621,-0.7584403157234192,-1.1434078216552734
1782661525909568500,0.982568603515625,-0.7975815534591675,-0.7420327663421631,-1.1672569513320923
1782661525919639600,0.9926396484375,-0.9741408824920654,-0.5077012181282043,-1.0879912376403809
1782661525929710300,1.00271044921875,-1.1377861499786377,0.023983532562851906,-0.6858869791030884
1782661525939782400,1.012782470703125,-1.3191338777542114,0.7396249771118164,-0.08957667648792267
1782661525949853400,1.022853515625,-1.418139934539795,1.3621066808700562,0.6051642894744873
1782661525959924500,1.032924560546875,-1.3426152467727661,1.7142831087112427,1.297226905822754
1782661525969995500,1.04299560546875,-1.116082787513733,1.7646212577819824,1.9196555614471436
1782661525980066600,1.053066650390625,-0.8455250859260559,1.6171423196792603,2.4700591564178467
1782661525990137600,1.0631376953125,-0.6307594180107117,1.4049054384231567,2.9201416969299316
1782661526000208400,1.07320849609375,-0.5121067762374878,1.2407218217849731,3.232187509536743
1782661526010279400,1.083279541015625,-0.4909539520740509,1.2202341556549072,3.388065814971924
1782661526020351500,1.0933515625,-0.5108458995819092,1.2883471250534058,3.416656732559204
1782661526030422500,1.103422607421875,-0.5364314913749695,1.408951759338379,3.351519823074341
1782661526040493600,1.11349365234375,-0.5572821497917175,1.4921035766601562,3.2259886264801025
1782661526050564600,1.123564697265625,-0.5618162751197815,1.445403814315796,2.986398935317993
1782661526060635600,1.1336357421875,-0.528975248336792,1.224692702293396,2.495495557785034
1782661526070706700,1.143706787109375,-0.4407646954059601,0.9710479974746704,1.8422363996505737
1782661526080777500,1.153777587890625,-0.3457396328449249,0.9415881037712097,1.3041119575500488
1782661526090848500,1.1638486328125,-0.14491039514541626,1.1332558393478394,0.929132878780365
1782661526100920300,1.17392041015625,0.16501125693321228,1.3755334615707397,0.6631217002868652
1782661526110991400,1.183991455078125,0.46940770745277405,1.5309330224990845,0.5310642123222351
1782661526121062400,1.1940625,0.6976408958435059,1.4888944625854492,0.5358810424804688
1782661526131133400,1.204133544921875,0.8229861259460449,1.1877858638763428,0.6524638533592224
1782661526141204500,1.21420458984375,0.8429747819900513,0.7406570315361023,0.8309811353683472
1782661526151275500,1.224275634765625,0.736461877822876,0.30027323961257935,1.041670560836792
1782661526161346600,1.2343466796875,0.4822154939174652,-0.08869076520204544,1.263049840927124
1782661526171417600,1.24441748046875,0.11876550316810608,-0.5114855170249939,1.3519269227981567
1782661526181488600,1.254488525390625,-0.2317773401737213,-1.0814707279205322,1.0523362159729004
1782661526191560400,1.264560546875,-0.4285954535007477,-1.4364959001541138,0.2716939151287079
1782661526201631500,1.274631591796875,-0.4390408992767334,-1.4702762365341187,-0.8375427722930908
1782661526211702500,1.28470263671875,-0.24855180084705353,-1.208861231803894,-1.9548349380493164
1782661526221773300,1.294773193359375,0.03004627116024494,-0.7453566789627075,-2.771379232406616
1782661526231844400,1.30484423828125,0.23890072107315063,-0.44819629192352295,-3.2465147972106934
1782661526241915400,1.314915283203125,0.2694184482097626,-0.3520178496837616,-3.370129108428955
1782661526251986400,1.324986328125,0.15056023001670837,-0.2974141836166382,-3.239955425262451
1782661526262057500,1.335057373046875,-0.08112333714962006,-0.33173486590385437,-3.0767509937286377
1782661526272129500,1.345129638671875,-0.4071301519870758,-0.4728408753871918,-2.991363525390625
1782661526282200600,1.35520068359375,-0.7337812185287476,-0.8337375521659851,-2.993887186050415
1782661526292271400,1.365271240234375,-0.9363846778869629,-1.3852425813674927,-2.994677782058716
1782661526302342400,1.37534228515625,-0.9494714736938477,-1.8383234739303589,-2.8257083892822266
1782661526312413400,1.385413330078125,-0.8648520112037659,-1.9992332458496094,-2.538628101348877
1782661526322484500,1.395484375,-0.786697506904602,-1.806489109992981,-2.1997227668762207
1782661526332555500,1.405555419921875,-0.7632970809936523,-1.4607317447662354,-1.9189854860305786
1782661526342626600,1.41562646484375,-0.7812042236328125,-1.1077531576156616,-1.716308832168579
1782661526352697300,1.425697265625,-0.8125295639038086,-0.8190644979476929,-1.554074764251709
1782661526362769700,1.435769775390625,-0.8408264517784119,-0.6495180726051331,-1.411969542503357
1782661526372840400,1.44584033203125,-0.8317490220069885,-0.6071981191635132,-1.2837425470352173
1782661526382911500,1.455911376953125,-0.8011754155158997,-0.6449239253997803,-1.1315008401870728
1782661526392982500,1.465982421875,-0.7555080652236938,-0.7919275760650635,-0.9422641396522522
1782661526403053600,1.476053466796875,-0.7010371088981628,-1.0256359577178955,-0.7242287397384644
1782661526413124400,1.486124267578125,-0.6276659965515137,-1.2276175022125244,-0.47367772459983826
1782661526423195400,1.4961953125,-0.538870096206665,-1.3265188932418823,-0.21429701149463654
1782661526433266400,1.506266357421875,-0.44975465536117554,-1.3728352785110474,0.016117028892040253
1782661526443338500,1.51633837890625,-0.37577924132347107,-1.4137110710144043,0.1938241720199585
1782661526453409500,1.526409423828125,-0.33519524335861206,-1.3438609838485718,0.3299993574619293
1782661526463480300,1.536480224609375,-0.32777273654937744,-1.1545605659484863,0.4513193964958191
1782661526473551400,1.54655126953125,-0.3471393585205078,-0.8805419206619263,0.5505697727203369
1782661526483622400,1.556622314453125,-0.3541695773601532,-0.6011925935745239,0.6378162503242493
1782661526493693400,1.566693359375,-0.3510635197162628,-0.26588553190231323,0.7798216342926025
1782661526503764500,1.576764404296875,-0.3591179847717285,0.15658369660377502,0.9688128232955933
1782661526513835500,1.58683544921875,-0.40266579389572144,0.6342803239822388,1.1515538692474365
1782661526523907300,1.5969072265625,-0.46688154339790344,1.0751240253448486,1.2739591598510742
1782661526533978000,1.60697802734375,-0.5137358903884888,1.3298312425613403,1.3214569091796875
1782661526544049200,1.617049072265625,-0.48992833495140076,1.2619056701660156,1.318642497062683
1782661526554120200,1.6271201171875,-0.42548850178718567,0.8653087615966797,1.2868081331253052
1782661526564191200,1.637191162109375,-0.3685096502304077,0.32691690325737,1.2571487426757812
1782661526574262300,1.64726220703125,-0.33349019289016724,-0.11666784435510635,1.2670804262161255
1782661526584333300,1.657333251953125,-0.3346201777458191,-0.3939918875694275,1.3096731901168823
1782661526594404000,1.667404052734375,-0.3753465712070465,-0.6368468999862671,1.3528268337249756
1782661526604475100,1.67747509765625,-0.38746580481529236,-0.8691994547843933,1.4033533334732056
1782661526614547200,1.687547119140625,-0.32968848943710327,-0.790593147277832,1.5631943941116333
1782661526624618200,1.6976181640625,-0.20690906047821045,-0.23078413307666779,1.9014923572540283
1782661526634689300,1.707689208984375,-0.016335029155015945,0.4862286150455475,2.372393846511841
1782661526644760300,1.71776025390625,0.16302327811717987,1.1086595058441162,2.8867688179016113
1782661526654831400,1.727831298828125,0.2305850386619568,1.3995912075042725,3.2929611206054688
1782661526664902100,1.737902099609375,0.23697076737880707,1.217902660369873,3.4609251022338867
1782661526674973200,1.74797314453125,0.28617173433303833,0.5954532623291016,3.243603229522705
1782661526685044200,1.758044189453125,0.22326281666755676,-0.09863682836294174,2.5273380279541016
1782661526695115300,1.768115234375,-0.04731985554099083,-0.29817840456962585,1.4843385219573975
1782661526705187300,1.778187255859375,-0.21744418144226074,-0.21054016053676605,0.4025563597679138
1782661526715258400,1.78825830078125,-0.06223326921463013,-0.4205281138420105,-0.7449678778648376
1782661526725329400,1.798329345703125,0.2649078369140625,-0.9386476874351501,-1.8364523649215698
1782661526735400400,1.808400390625,0.5620083212852478,-1.4079922437667847,-2.579692840576172
1782661526745471200,1.81847119140625,0.733471155166626,-1.677707552909851,-2.9486749172210693
1782661526755542300,1.828542236328125,0.733406126499176,-1.6326165199279785,-3.067734956741333
1782661526765613300,1.83861328125,0.5790956020355225,-1.211738109588623,-3.238478899002075
1782661526775684400,1.848684326171875,0.2565906345844269,-0.6740228533744812,-3.725189447402954
1782661526785756400,1.85875634765625,-0.20582173764705658,-0.172668918967247,-4.408529758453369
1782661526795827500,1.868827392578125,-0.5778396725654602,0.308083176612854,-4.883584022521973
1782661526805898500,1.8788984375,-0.6032316088676453,0.6801089644432068,-4.862396240234375
1782661526815969300,1.88896923828125,-0.29490500688552856,0.7780256867408752,-4.293907165527344
1782661526826040300,1.899040283203125,0.19706261157989502,0.4803660213947296,-3.33554744720459
1782661526836111400,1.909111328125,0.7581052780151367,0.04076455533504486,-2.2888553142547607
1782661526846182400,1.919182373046875,1.189857006072998,-0.033046022057533264,-1.159529685974121
1782661526856253400,1.92925341796875,1.368497371673584,0.06989505887031555,-0.1148567721247673
1782661526866324500,1.939324462890625,1.1966729164123535,0.11341723799705505,0.6477479338645935
1782661526876396500,1.949396484375,0.689470648765564,-0.048487234860658646,1.0229668617248535
1782661526886467300,1.95946728515625,0.18188653886318207,-0.3236120343208313,1.0435727834701538
1782661526896538400,1.969538330078125,-0.08841708302497864,-0.4678639769554138,0.908406138420105
1782661526906609400,1.979609375,-0.19182896614074707,-0.39795681834220886,0.7743932008743286
1782661526916680400,1.989680419921875,-0.22964617609977722,-0.12432103604078293,0.7146864533424377
1782661526926751500,1.99975146484375,-0.23481430113315582,0.11940799653530121,0.7000116109848022
1782661526936822500,2.009822509765625,-0.18759790062904358,0.1999758630990982,0.7181246280670166
1782661526946893300,2.019893310546875,-0.09941105544567108,0.09916749596595764,0.762467086315155
1782661526956964400,2.02996435546875,-0.025304697453975677,-0.0695219561457634,0.83233243227005
1782661526967036200,2.0400361328125,0.04670664295554161,-0.12431889772415161,0.9482859373092651
1782661526977107200,2.050107177734375,0.1248982846736908,-0.08871547132730484,1.1144754886627197
1782661526987178200,2.06017822265625,0.21076153218746185,0.07525216042995453,1.3224081993103027
1782661526997249300,2.070249267578125,0.2931423485279083,0.30543988943099976,1.5724844932556152
1782661527007320300,2.0803203125,0.3378773331642151,0.4970434010028839,1.8285237550735474
1782661527017391000,2.09039111328125,0.34183987975120544,0.6256076693534851,2.070845603942871
1782661527027462100,2.100462158203125,0.3209819793701172,0.670379638671875,2.263237714767456
1782661527037533200,2.110533203125,0.29856401681900024,0.628969132900238,2.3817198276519775
1782661527047604200,2.120604248046875,0.2687278389930725,0.5482471585273743,2.4047107696533203
1782661527057676300,2.13067626953125,0.21858328580856323,0.4455878734588623,2.347490072250366
1782661527067747300,2.140747314453125,0.15283943712711334,0.3170589506626129,2.219266414642334
1782661527077818400,2.150818359375,0.0684424340724945,0.1743481308221817,2.0186727046966553
1782661527087889400,2.160889404296875,-0.01686873659491539,0.07338396459817886,1.790413737297058
1782661527097960200,2.170960205078125,-0.08789171278476715,0.012028278782963753,1.5826287269592285
1782661527108031200,2.18103125,-0.13257262110710144,-0.05183166265487671,1.4040204286575317
1782661527118102300,2.191102294921875,-0.1657310575246811,-0.123430997133255,1.2478965520858765
1782661527128173300,2.20117333984375,-0.20073936879634857,-0.13702510297298431,1.0916001796722412
1782661527138244400,2.211244384765625,-0.225155308842659,-0.0839524045586586,0.8996131420135498
1782661527148316400,2.22131640625,-0.22816413640975952,0.06546877324581146,0.7021163105964661
1782661527158387500,2.231387451171875,-0.23968346416950226,0.2121679037809372,0.5322220921516418
1782661527168458200,2.241458251953125,-0.28618013858795166,0.22557026147842407,0.3796687722206116
1782661527178529300,2.251529296875,-0.4275868535041809,0.017148597165942192,0.129994198679924
1782661527188600300,2.261600341796875,-0.7305499315261841,-0.42430630326271057,-0.2879497706890106
1782661527198671400,2.27167138671875,-1.0886163711547852,-0.8292444944381714,-0.8028197884559631
1782661527208742400,2.281742431640625,-1.301477313041687,-0.9143109321594238,-1.373602271080017
1782661527218813400,2.2918134765625,-1.2861393690109253,-0.710910439491272,-1.8986711502075195
1782661527228884200,2.30188427734375,-1.1019243001937866,-0.3259270489215851,-2.16133451461792
1782661527238955300,2.311955322265625,-0.793474018573761,0.23733066022396088,-2.094672441482544
1782661527249027300,2.32202734375,-0.44701650738716125,0.765956461429596,-1.948172688484192
1782661527259098400,2.332098388671875,-0.2509714961051941,1.050182819366455,-1.9087234735488892
1782661527269169400,2.34216943359375,-0.2818319499492645,1.0136700868606567,-1.954902172088623
1782661527279240400,2.352240478515625,-0.4322235882282257,0.6840296387672424,-2.0070390701293945
1782661527289311500,2.3623115234375,-0.6018805503845215,0.1650003045797348,-2.00046443939209
1782661527299382300,2.37238232421875,-0.7148887515068054,-0.3808440864086151,-1.897365927696228
1782661527309453300,2.382453369140625,-0.7726407051086426,-0.8116756081581116,-1.7916808128356934
1782661527319524400,2.3925244140625,-0.7668628096580505,-1.0138837099075317,-1.8023371696472168
1782661527329595400,2.402595458984375,-0.6933760643005371,-0.8976157307624817,-1.9494637250900269
1782661527339667200,2.412667236328125,-0.5462111830711365,-0.5206747055053711,-2.1307151317596436
1782661527349738200,2.42273828125,-0.38130074739456177,0.005422635469585657,-2.270374059677124
1782661527359809300,2.432809326171875,-0.23919053375720978,0.5620729923248291,-2.29829740524292
1782661527369880300,2.44288037109375,-0.14500172436237335,1.0571295022964478,-2.199375629425049
1782661527379951400,2.452951416015625,-0.10599206387996674,1.3871092796325684,-1.9660080671310425
1782661527390022400,2.4630224609375,-0.10618993639945984,1.5351792573928833,-1.6156593561172485
1782661527400093400,2.473093505859375,-0.08303757011890411,1.510981798171997,-1.199275016784668
1782661527410164500,2.48316455078125,-0.04929424822330475,1.349662184715271,-0.761075496673584
1782661527420235500,2.493235595703125,0.009806234389543533,1.0745474100112915,-0.326267808675766
1782661527430307300,2.503307373046875,0.10842148959636688,0.7179238796234131,0.08880768716335297
1782661527440378400,2.51337841796875,0.24022988975048065,0.33805304765701294,0.47666534781455994
1782661527450449400,2.523449462890625,0.39307430386543274,0.008471688255667686,0.8209963440895081
1782661527460520400,2.5335205078125,0.559889554977417,-0.21941521763801575,1.094388723373413
1782661527470591500,2.543591552734375,0.7096846103668213,-0.3244470953941345,1.3386250734329224
1782661527480662300,2.553662353515625,0.8188526034355164,-0.3370990753173828,1.5690069198608398
1782661527490733300,2.5637333984375,0.8723352551460266,-0.2668379545211792,1.7704674005508423
1782661527500804400,2.573804443359375,0.8731420040130615,-0.1500430554151535,1.932873010635376
1782661527510875400,2.58387548828125,0.8284043669700623,-0.01096772588789463,2.0315606594085693
1782661527520946400,2.593946533203125,0.7588695883750916,0.15696504712104797,2.0727572441101074
1782661527531018500,2.6040185546875,0.6705895662307739,0.3214016556739807,2.0521914958953857
1782661527541089500,2.614089599609375,0.5725942254066467,0.46438995003700256,1.977903127670288
1782661527551160300,2.624160400390625,0.47135069966316223,0.5672492384910583,1.9112966060638428
1782661527561231400,2.6342314453125,0.404316246509552,0.591236412525177,1.896301031112671
1782661527571302400,2.644302490234375,0.4086715579032898,0.473564088344574,1.9638580083847046
1782661527581373400,2.65437353515625,0.4821178913116455,0.19044290482997894,2.084704875946045
1782661527591444500,2.664444580078125,0.5630588531494141,-0.12338478118181229,2.1732075214385986
1782661527601515500,2.674515625,0.5812646150588989,-0.3621075451374054,2.143982410430908
1782661527611586300,2.68458642578125,0.519453227519989,-0.5929068922996521,1.977776050567627
1782661527621657300,2.6946572265625,0.4154457747936249,-0.7542979717254639,1.7566802501678467
1782661527631729400,2.7047294921875,0.2987891733646393,-0.8579540252685547,1.651582956314087
1782661527641800400,2.714800537109375,0.1820022165775299,-0.8895279169082642,1.800497055053711
1782661527651871500,2.72487158203125,0.1299680471420288,-0.9069364666938782,2.1500697135925293
1782661527661942500,2.734942626953125,0.1632745862007141,-0.6288938522338867,2.635493040084839
1782661527672013600,2.745013671875,0.27100902795791626,-0.1884605586528778,2.9856841564178467
1782661527682084600,2.755084716796875,0.36953747272491455,-0.23929354548454285,2.6478633880615234
1782661527692155400,2.7651552734375,0.3393494784832001,-0.5735258460044861,1.5888726711273193
1782661527702226400,2.775226318359375,0.24964942038059235,-0.6033257246017456,0.3147014379501343
1782661527712297500,2.78529736328125,0.158708855509758,-0.27991732954978943,-0.8623601198196411
1782661527722368500,2.795368408203125,0.0980004370212555,0.040810342878103256,-1.7074432373046875
1782661527732440600,2.805440673828125,0.11599914729595184,0.08549419045448303,-2.1373627185821533
1782661527742511600,2.81551171875,0.19271346926689148,-0.12465481460094452,-2.1370279788970947
1782661527752582700,2.825582763671875,0.3177909553050995,-0.22765310108661652,-1.7970050573349
1782661527762653400,2.8356533203125,0.3873930275440216,-0.25177523493766785,-1.43172025680542
1782661527772724500,2.845724365234375,0.26395100355148315,-0.36533108353614807,-1.2908670902252197
1782661527782795500,2.85579541015625,-0.017692239955067635,-0.6244061589241028,-1.4484736919403076
1782661527792866600,2.865866455078125,-0.3597355782985687,-0.9507877230644226,-1.860512137413025
1782661527802937600,2.8759375,-0.6741787195205688,-1.2309361696243286,-2.413881540298462
1782661527813008600,2.886008544921875,-0.9112392067909241,-1.3811103105545044,-2.9708054065704346
1782661527823079400,2.896079345703125,-1.0054832696914673,-1.3321435451507568,-3.388126850128174
1782661527833151200,2.906151123046875,-0.9533824920654297,-1.0534677505493164,-3.556149482727051
1782661527843222300,2.91622216796875,-0.7972019910812378,-0.59449702501297,-3.4561944007873535
1782661527853293300,2.926293212890625,-0.6389042139053345,-0.16039350628852844,-3.218205690383911
1782661527863364400,2.9363642578125,-0.4668486416339874,0.17953206598758698,-2.828853130340576
1782661527873435400,2.946435302734375,-0.29024165868759155,0.4129544198513031,-2.362389087677002
1782661527883506400,2.95650634765625,-0.10161208361387253,0.5462968349456787,-1.8772789239883423
1782661527893577200,2.9665771484375,0.08684331178665161,0.6120838522911072,-1.4016082286834717
1782661527903648300,2.976648193359375,0.24999794363975525,0.5972846746444702,-0.9950398802757263
1782661527913719300,2.98671923828125,0.33621618151664734,0.48313865065574646,-0.6897726058959961
1782661527923790300,2.996790283203125,0.32426679134368896,0.3243800699710846,-0.4685429036617279
1782661527933862400,3.0068623046875,0.2294183373451233,0.1492612510919571,-0.32111936807632446
1782661527943933400,3.016933349609375,0.0896664410829544,-0.002062318380922079,-0.25608035922050476
1782661527954004500,3.02700439453125,-0.07540133595466614,-0.0691811665892601,-0.24571135640144348
1782661527964075300,3.0370751953125,-0.22834891080856323,-0.057625047862529755,-0.2564217746257782
1782661527974146300,3.047146240234375,-0.31875255703926086,-0.0028771162033081055,-0.24270221590995789
1782661527984217300,3.05721728515625,-0.3341657817363739,0.06816054880619049,-0.1766984760761261
1782661527994288400,3.067288330078125,-0.27347418665885925,0.13362771272659302,-0.04187595471739769
1782661528004359400,3.077359375,-0.1541135460138321,0.21282492578029633,0.16219383478164673
1782661528014430500,3.087430419921875,0.002961554564535618,0.31375446915626526,0.40531274676322937
1782661528024501500,3.09750146484375,0.1639336347579956,0.418097585439682,0.6297893524169922
1782661528034572300,3.107572265625,0.2987372577190399,0.5319573283195496,0.8302497267723083
1782661528044644400,3.117644287109375,0.3854166865348816,0.6444199681282043,1.0147862434387207
1782661528054715400,3.12771533203125,0.41304194927215576,0.7137524485588074,1.182664394378662
1782661528064786400,3.137786376953125,0.40726304054260254,0.7514139413833618,1.353529930114746
1782661528074857500,3.147857421875,0.3723439574241638,0.754317581653595,1.4976391792297363
1782661528084928500,3.157928466796875,0.32837769389152527,0.7164204716682434,1.5985010862350464
1782661528094999600,3.16799951171875,0.29848265647888184,0.6380196809768677,1.6490761041641235
1782661528105070300,3.1780703125,0.3319168984889984,0.5372114777565002,1.6816827058792114
1782661528115141400,3.188141357421875,0.43006929755210876,0.3945672810077667,1.7313406467437744
1782661528125212400,3.19821240234375,0.5944109559059143,0.15339218080043793,1.8234552145004272
1782661528135283500,3.208283447265625,0.7915032505989075,-0.17076565325260162,2.0302376747131348
1782661528145355500,3.21835546875,0.9826488494873047,-0.47556227445602417,2.447688579559326
1782661528155426600,3.228426513671875,1.0849547386169434,-0.805374264717102,3.0872745513916016
1782661528165497600,3.23849755859375,0.9518242478370667,-1.2112010717391968,3.8171029090881348
1782661528175568400,3.248568359375,0.4649651348590851,-1.7291836738586426,4.439199924468994
1782661528185639400,3.258639404296875,-0.2221589982509613,-2.6080405712127686,4.655735969543457
1782661528195710500,3.26871044921875,-0.7581049799919128,-3.8752007484436035,3.924720048904419
1782661528205781500,3.278781494140625,-0.9989820122718811,-4.316573619842529,2.4365875720977783
1782661528215852500,3.2888525390625,-0.8077822327613831,-3.8230955600738525,0.6750403642654419
1782661528225923600,3.298923583984375,-0.12247846275568008,-3.073864698410034,-1.3417593240737915
1782661528235994400,3.308994384765625,0.6047525405883789,-1.4364290237426758,-3.026865005493164
1782661528246065400,3.3190654296875,0.9210341572761536,0.37361767888069153,-3.693455934524536
1782661528256137500,3.329137451171875,0.8457226753234863,1.54812490940094,-3.2123477458953857
1782661528266208500,3.33920849609375,0.5637274384498596,1.9749828577041626,-1.9573330879211426
1782661528276279600,3.349279541015625,0.3242783844470978,1.659193992614746,-0.5591535568237305
1782661528286350600,3.3593505859375,0.27500444650650024,0.8104479908943176,0.5122290849685669
1782661528296421600,3.369421630859375,0.2996392250061035,-0.23453989624977112,1.089424729347229
1782661528306492400,3.379492431640625,0.29466789960861206,-1.173867106437683,1.161520004272461
1782661528316563500,3.3895634765625,0.2258257120847702,-1.6908063888549805,0.78062504529953
1782661528326634500,3.399634521484375,0.061070773750543594,-1.560577154159546,0.010289470665156841
1782661528336705500,3.40970556640625,-0.16663534939289093,-0.8021717071533203,-1.0215181112289429
1782661528346776600,3.419776611328125,-0.41732510924339294,0.33132603764533997,-2.1404385566711426
1782661528356847600,3.42984765625,-0.6634025573730469,1.5350894927978516,-3.133159875869751
1782661528366919400,3.43991943359375,-0.8409180045127869,2.4582440853118896,-3.8394763469696045
1782661528376990500,3.449990478515625,-0.9016308784484863,2.937256097793579,-4.165799140930176
1782661528387061200,3.460061279296875,-0.8894907236099243,3.0060079097747803,-4.110177040100098
1782661528397132300,3.47013232421875,-0.8365963697433472,2.823298692703247,-3.733574867248535
1782661528407203300,3.480203369140625,-0.7797308564186096,2.5230374336242676,-3.1460959911346436
1782661528417274600,3.490274658203125,-0.7305058240890503,2.195624589920044,-2.4751412868499756
1782661528427345700,3.500345703125,-0.6952373385429382,1.8817875385284424,-1.8018678426742554
1782661528437416700,3.510416748046875,-0.6553096175193787,1.6048225164413452,-1.1847710609436035
1782661528447487700,3.52048779296875,-0.6136746406555176,1.3149770498275757,-0.6517444252967834
1782661528457558500,3.53055859375,-0.5652690529823303,1.020843505859375,-0.20302066206932068
1782661528467629600,3.540629638671875,-0.5245264768600464,0.7743790745735168,0.17080241441726685
1782661528477701600,3.55070166015625,-0.47779250144958496,0.5777373909950256,0.4877537488937378
1782661528487772700,3.560772705078125,-0.4308348000049591,0.4269523322582245,0.7624177932739258
1782661528497843700,3.57084375,-0.3762738108634949,0.30961692333221436,0.9990189075469971
1782661528507914800,3.580914794921875,-0.3215390145778656,0.2244475781917572,1.2156895399093628
1782661528517985800,3.59098583984375,-0.27912765741348267,0.17170260846614838,1.4081095457077026
1782661528528056600,3.601056640625,-0.24205757677555084,0.15290561318397522,1.5656827688217163
1782661528538127600,3.611127685546875,-0.22148172557353973,0.17999102175235748,1.6623233556747437
1782661528548198700,3.62119873046875,-0.2234361469745636,0.19272209703922272,1.7102105617523193
1782661528558269700,3.631269775390625,-0.25243744254112244,0.12291398644447327,1.7317222356796265
1782661528568340700,3.6413408203125,-0.33299505710601807,0.00558047229424119,1.7006444931030273
1782661528578411800,3.651411865234375,-0.44613784551620483,-0.13767603039741516,1.604748249053955
1782661528588483800,3.66148388671875,-0.539527177810669,-0.2731170356273651,1.4531835317611694
1782661528598555000,3.671554931640625,-0.5561264157295227,-0.37515124678611755,1.30050528049469
1782661528608625700,3.681625732421875,-0.41879162192344666,-0.46114474534988403,1.2565523386001587
1782661528618696700,3.69169677734375,-0.15044350922107697,-0.6322115659713745,1.3173677921295166
1782661528628767700,3.701767822265625,0.10816318541765213,-0.7837540507316589,1.3855533599853516
1782661528638838800,3.7118388671875,0.2513328492641449,-0.7139425277709961,1.472779631614685
1782661528648909800,3.721909912109375,0.1820475310087204,-0.4803420305252075,1.6993871927261353
1782661528658980900,3.73198095703125,-0.0880284309387207,-0.08688421547412872,2.1372318267822266
1782661528669051600,3.7420517578125,-0.5532010793685913,0.38477015495300293,2.6710236072540283
1782661528679122700,3.752122802734375,-1.0728144645690918,0.6962929368019104,3.044367551803589
1782661528689193700,3.76219384765625,-1.352180004119873,0.3439958691596985,2.8541147708892822
1782661528699265800,3.772265869140625,-1.2084835767745972,-0.336500883102417,2.0912935733795166
1782661528709336800,3.7823369140625,-0.8499327898025513,-0.7806128263473511,1.0701277256011963
1782661528719407900,3.792407958984375,-0.4015217423439026,-1.2723133563995361,-0.1141280084848404
1782661528729479000,3.80247900390625,0.10108522325754166,-1.5548259019851685,-1.4583275318145752
1782661528739549700,3.8125498046875,0.5959658026695251,-1.2216806411743164,-2.661747694015503
1782661528749620700,3.822620849609375,0.9914036393165588,-0.5425484776496887,-3.3794448375701904
1782661528759691800,3.83269189453125,1.1142587661743164,0.1865815967321396,-3.358978748321533
1782661528769762800,3.8427626953125,0.9723215699195862,0.7872212529182434,-2.7776191234588623
1782661528779833900,3.852833740234375,0.6903594136238098,1.0589649677276611,-2.093503952026367
1782661528789905000,3.86290478515625,0.3599352240562439,0.9625808000564575,-1.6307729482650757
1782661528799975700,3.8729755859375,0.02572077326476574,0.5407850742340088,-1.4803128242492676
1782661528810047700,3.8830478515625,-0.252489298582077,-0.027546055614948273,-1.5650932788848877
1782661528820118800,3.893118896484375,-0.3908865749835968,-0.5049072504043579,-1.7396246194839478
1782661528830189800,3.90318994140625,-0.28080642223358154,-0.7533732652664185,-1.8536564111709595
1782661528840260900,3.9132607421875,0.001732083037495613,-0.808402419090271,-1.8393301963806152
1782661528850332000,3.923331787109375,0.2781233489513397,-0.7124868631362915,-1.691057562828064
1782661528860403000,3.93340283203125,0.46578672528266907,-0.525887131690979,-1.4801533222198486
1782661528870473700,3.9434736328125,0.5633516311645508,-0.3167172372341156,-1.2650747299194336
1782661528880544800,3.953544677734375,0.5710697770118713,-0.11259924620389938,-1.0562069416046143
1782661528890615800,3.96361572265625,0.49634021520614624,0.06383195519447327,-0.8563313484191895
1782661528900686800,3.973686767578125,0.37368059158325195,0.18796774744987488,-0.6626157164573669
1782661528910758000,3.9837578125,0.25019222497940063,0.2528146803379059,-0.4719487726688385
1782661528920829700,3.99382958984375,0.1607249230146408,0.2674058675765991,-0.28600767254829407
1782661528930900700,4.003900634765625,0.12323267757892609,0.23202718794345856,-0.13809973001480103
1782661528940971800,4.0139716796875,0.15122731029987335,0.20031826198101044,-0.023156901821494102
1782661528951042600,4.02404248046875,0.2276628017425537,0.21957527101039886,0.06425434350967407
1782661528961113600,4.034113525390625,0.3345932364463806,0.24724072217941284,0.13317163288593292
1782661528971184600,4.0441845703125,0.46192196011543274,0.2885690927505493,0.19470350444316864
1782661528981255700,4.054255615234375,0.6020125150680542,0.36879202723503113,0.2736468017101288
1782661528991326700,4.06432666015625,0.7292285561561584,0.48011866211891174,0.37930455803871155
1782661529001397800,4.074397705078125,0.8016343116760254,0.5876975655555725,0.49149367213249207
1782661529011468500,4.084468505859375,0.8062909245491028,0.6968235969543457,0.6229683756828308
1782661529021539600,4.09453955078125,0.744194507598877,0.783029317855835,0.7966024875640869
1782661529031611600,4.104611572265625,0.6465941667556763,0.8202275633811951,0.9910997748374939
1782661529041682700,4.1146826171875,0.5317543745040894,0.8218867182731628,1.1705249547958374
1782661529051753700,4.124753662109375,0.4235170781612396,0.8401080965995789,1.3407173156738281
1782661529061824800,4.13482470703125,0.30776384472846985,0.8622347116470337,1.5046937465667725
1782661529071895800,4.144895751953125,0.17556504905223846,0.875686764717102,1.6676315069198608
1782661529081966600,4.154966552734375,0.025483138859272003,0.7934883236885071,1.834059715270996
1782661529092037600,4.16503759765625,-0.13022835552692413,0.6098634004592896,1.9774515628814697
1782661529102108700,4.175108642578125,-0.28232520818710327,0.37238025665283203,2.065300941467285
1782661529112179700,4.1851796875,-0.4068848490715027,0.17487306892871857,2.0950706005096436
1782661529122250800,4.195250732421875,-0.4527636766433716,0.05843408778309822,2.049023389816284
1782661529132321800,4.20532177734375,-0.37043195962905884,-0.0046938639134168625,1.9447650909423828
1782661529142392600,4.215392578125,-0.1789988875389099,-0.10386199504137039,1.8406875133514404
1782661529152464600,4.225464599609375,0.11420003324747086,-0.32470184564590454,1.8309599161148071
1782661529162535700,4.23553564453125,0.41330310702323914,-0.7001750469207764,1.9585069417953491
1782661529172606700,4.245606689453125,0.5809033513069153,-1.1793221235275269,2.243361473083496
1782661529182677800,4.255677734375,0.5354248285293579,-1.5839694738388062,2.6516525745391846
1782661529192748800,4.265748779296875,0.2690531313419342,-1.9854830503463745,3.0064916610717773
1782661529202819800,4.27581982421875,-0.15462972223758698,-2.404473066329956,2.911123275756836
1782661529212890600,4.285890625,-0.6493691802024841,-2.2928543090820312,2.3345720767974854
1782661529222961700,4.295961669921875,-1.213228464126587,-1.7173633575439453,1.3979885578155518
1782661529233032700,4.30603271484375,-1.531267762184143,-1.168636679649353,0.2724297046661377
1782661529243103700,4.316103759765625,-1.4142799377441406,-0.6009063720703125,-0.8421348333358765
1782661529253174800,4.3261748046875,-0.9871730804443359,0.009406588040292263,-1.7031511068344116
1782661529263246800,4.336246826171875,-0.4659024775028229,0.3837437033653259,-2.1793675422668457
1782661529273318000,4.34631787109375,0.023260096088051796,0.3878742456436157,-2.192993640899658
1782661529283389000,4.356388916015625,0.4438307583332062,0.1761889010667801,-1.939624547958374
1782661529293459700,4.366459716796875,0.6889092326164246,-0.1103728786110878,-1.7318943738937378
1782661529303530800,4.37653076171875,0.6507717370986938,-0.4176100492477417,-1.754132866859436
1782661529313601800,4.386601806640625,0.4183811545372009,-0.7463746070861816,-2.034376621246338
1782661529323672800,4.3966728515625,0.14583218097686768,-0.9707794785499573,-2.4986562728881836
1782661529333743900,4.406743896484375,-0.10906650871038437,-0.9457436800003052,-2.9994146823883057
1782661529343815000,4.41681494140625,-0.29481667280197144,-0.712803065776825,-3.4136013984680176
1782661529353885700,4.4268857421875,-0.3301650285720825,-0.35135310888290405,-3.597527265548706
1782661529363956700,4.436956787109375,-0.192739799618721,0.019389260560274124,-3.5036163330078125
1782661529374028800,4.44702880859375,0.08173193037509918,0.28737330436706543,-3.1203606128692627
1782661529384099800,4.457099853515625,0.38884979486465454,0.48905980587005615,-2.5334901809692383
1782661529394171000,4.4671708984375,0.5875515341758728,0.5400197505950928,-1.939021348953247
1782661529404242000,4.477241943359375,0.6077185869216919,0.49209246039390564,-1.3923639059066772
1782661529414313000,4.48731298828125,0.4728600084781647,0.3117348849773407,-0.907263457775116
1782661529424383700,4.4973837890625,0.2454044669866562,0.07028472423553467,-0.46771541237831116
1782661529434454800,4.507454833984375,-0.007619261741638184,-0.16258074343204498,-0.08067288994789124
1782661529444525800,4.51752587890625,-0.21981701254844666,-0.3328275978565216,0.2549562454223633
1782661529454596900,4.527596923828125,-0.35031744837760925,-0.4258466362953186,0.562708854675293
1782661529464668000,4.53766796875,-0.38403385877609253,-0.4584767520427704,0.8533758521080017
1782661529474739000,4.547739013671875,-0.3391958177089691,-0.46493980288505554,1.1109789609909058
1782661529484809700,4.557809814453125,-0.24742624163627625,-0.46831563115119934,1.3040934801101685
1782661529494881500,4.567881591796875,-0.19228629767894745,-0.4708140194416046,1.425232172012329
1782661529504952600,4.57795263671875,-0.2075296938419342,-0.4155358374118805,1.5056389570236206
1782661529515023600,4.588023681640625,-0.2941054105758667,-0.4314262568950653,1.5792087316513062
1782661529525094700,4.5980947265625,-0.4489269256591797,-0.6185084581375122,1.6555259227752686
1782661529535165700,4.608165771484375,-0.6470108032226562,-0.99399733543396,1.7454677820205688
1782661529545236700,4.61823681640625,-0.859820544719696,-1.5438518524169922,1.8273735046386719
1782661529555307500,4.6283076171875,-1.0446091890335083,-1.9607535600662231,1.8347467184066772
1782661529565378600,4.638378662109375,-1.1844227313995361,-2.075161933898926,1.7769756317138672
1782661529575449600,4.64844970703125,-1.248249888420105,-1.9183820486068726,1.6665873527526855
1782661529585520600,4.658520751953125,-1.2310495376586914,-1.5612915754318237,1.5164371728897095
1782661529595591700,4.668591796875,-1.144635796546936,-0.9378929138183594,1.3557425737380981
1782661529605663700,4.678663818359375,-1.0135706663131714,-0.2562054693698883,1.1430153846740723
1782661529615734800,4.68873486328125,-0.900094747543335,0.3993339240550995,0.8160892724990845
1782661529625805800,4.698805908203125,-0.8324198126792908,1.0185236930847168,0.3861418664455414
1782661529635876600,4.708876708984375,-0.7693515419960022,1.4151870012283325,-0.10181029886007309
1782661529645947600,4.71894775390625,-0.6613526344299316,1.5369038581848145,-0.5809470415115356
1782661529656018700,4.729018798828125,-0.5271730422973633,1.5833991765975952,-0.9276244640350342
1782661529666089700,4.73908984375,-0.3908604681491852,1.619402527809143,-1.128191351890564
1782661529676160800,4.749160888671875,-0.26265856623649597,1.6662087440490723,-1.249786615371704
1782661529686231800,4.759231689453125,-0.06857483088970184,1.7735704183578491,-1.2901585102081299
1782661529696302600,4.769302490234375,0.20339126884937286,1.859802484512329,-1.232776165008545
1782661529706373600,4.77937353515625,0.34323862195014954,1.6047248840332031,-1.195702314376831
1782661529716444700,4.789444580078125,0.14779096841812134,1.1022026538848877,-1.4485669136047363
1782661529726516700,4.799516845703125,-0.18979185819625854,0.564222514629364,-1.793324589729309
1782661529736587800,4.809587890625,-0.46316197514533997,-0.009552418254315853,-2.113101005554199
1782661529746658800,4.819658935546875,-0.7274908423423767,-0.7937039732933044,-2.419142007827759
1782661529756729900,4.829729736328125,-1.0816384553909302,-1.6734408140182495,-2.571056604385376
1782661529766800600,4.839800537109375,-1.0803416967391968,-1.7390216588974,-2.8406383991241455
1782661529776871700,4.84987158203125,-0.8237109184265137,-0.918066680431366,-2.9667019844055176
1782661529786942700,4.859942626953125,-0.6261797547340393,-0.5312116742134094,-2.829155921936035
1782661529797013800,4.870013671875,-0.41335979104042053,-0.023562397807836533,-2.6597893238067627
1782661529807084800,4.880084716796875,-0.25568947196006775,0.7645084857940674,-2.4916465282440186
1782661529817155800,4.89015576171875,-0.2550387978553772,0.7647029757499695,-2.3171141147613525
1782661529827226600,4.9002265625,-0.432722270488739,0.25470447540283203,-2.0098161697387695
1782661529837298700,4.910298583984375,-0.7770166993141174,-0.6796958446502686,-1.6581182479858398
1782661529847369700,4.92036962890625,-1.1589105129241943,-1.6622505187988281,-1.2462207078933716
1782661529857440800,4.930440673828125,-1.4737002849578857,-2.1859002113342285,-0.7046231627464294
1782661529867511800,4.94051171875,-1.6287809610366821,-2.4085001945495605,-0.11027516424655914
1782661529877582800,4.950582763671875,-1.6141188144683838,-2.4069790840148926,0.5326579213142395
1782661529887654000,4.96065380859375,-1.2765055894851685,-1.7209057807922363,1.045932412147522
1782661529897724700,4.970724609375,-0.741197943687439,-1.018296241760254,1.4979315996170044
1782661529907795700,4.980795654296875,-0.17278322577476501,-0.3581945598125458,1.9494681358337402
1782661529917866800,4.99086669921875,0.46338728070259094,0.2724916338920593,2.1367063522338867
1782661529927937800,5.000937744140625,0.9854975938796997,0.8175733089447021,2.0914363861083984
1782661529938008800,5.0110087890625,1.1481560468673706,1.3878132104873657,1.8765828609466553
1782661529948079900,5.021079833984375,1.0765936374664307,1.737317442893982,1.5181810855865479
1782661529958150700,5.031150634765625,0.9137300848960876,1.8778027296066284,1.0926339626312256
1782661529968222700,5.04122265625,0.776432454586029,1.9808961153030396,0.7278441190719604
1782661529978293800,5.051293701171875,0.7369668483734131,2.1262435913085938,0.5351619124412537
1782661529988364800,5.06136474609375,0.7687612771987915,2.3062968254089355,0.4569810926914215
1782661529998435800,5.071435791015625,0.7626407742500305,2.3404440879821777,0.4061778485774994
1782661530008507000,5.0815068359375,0.6929242610931396,2.1430633068084717,0.38492584228515625
1782661530018578000,5.091577880859375,0.6258891820907593,1.8690285682678223,0.4483579695224762
1782661530028649000,5.10164892578125,0.6060499548912048,1.6045154333114624,0.5953871011734009
1782661530038719700,5.1117197265625,0.6197825074195862,1.3582146167755127,0.7395174503326416
1782661530048790800,5.121790771484375,0.6456828117370605,1.1530479192733765,0.8860349655151367
1782661530058861800,5.13186181640625,0.6450771689414978,1.0679532289505005,1.0710288286209106
1782661530068932900,5.141932861328125,0.6043885946273804,1.024352788925171,1.286786437034607
1782661530079004000,5.15200390625,0.520965039730072,0.9201348423957825,1.5145328044891357
1782661530089075700,5.16207568359375,0.4150538146495819,0.731880784034729,1.7351360321044922
1782661530099146800,5.172146728515625,0.30971232056617737,0.45209288597106934,1.9707496166229248
1782661530109217500,5.182217529296875,0.19896580278873444,0.18632858991622925,2.212674379348755
1782661530119288600,5.19228857421875,0.11138010770082474,0.12877169251441956,2.4752585887908936
1782661530129359600,5.202359619140625,0.07933215796947479,0.31231167912483215,2.6902079582214355
1782661530139430700,5.2124306640625,0.07965486496686935,0.5903752446174622,2.8284406661987305
1782661530149501700,5.222501708984375,0.051456257700920105,0.8282277584075928,2.8415682315826416
1782661530159572700,5.23257275390625,-0.029204051941633224,0.8493921160697937,2.746490240097046
1782661530169643500,5.2426435546875,-0.09298568964004517,0.570228636264801,2.584347724914551
1782661530179714600,5.252714599609375,-0.04585334658622742,0.1755916029214859,2.469284772872925
1782661530189785600,5.26278564453125,0.08824160695075989,-0.1570526659488678,2.4498190879821777
1782661530199856600,5.272856689453125,0.24247460067272186,-0.3032058775424957,2.4808433055877686
1782661530209928700,5.2829287109375,0.37480467557907104,-0.11168091744184494,2.460111618041992
1782661530219999700,5.292999755859375,0.38307735323905945,0.4572714865207672,2.2972259521484375
1782661530230070800,5.30307080078125,0.14237098395824432,1.1097252368927002,2.0146114826202393
1782661530240141600,5.3131416015625,-0.29957154393196106,0.8403950333595276,1.6405590772628784
1782661530250211800,5.3232119140625,-0.7620454430580139,-0.138011172413826,1.2520331144332886
1782661530260283000,5.333282958984375,-1.0849382877349854,-0.7562077641487122,0.9402071833610535
1782661530270354000,5.34335400390625,-1.1837455034255981,-0.8372685313224792,0.5950170755386353
1782661530280425000,5.353425048828125,-1.092089295387268,-0.5489351153373718,0.1092715933918953
1782661530290495700,5.363495849609375,-0.8238372802734375,-0.03853202238678932,-0.40409690141677856
1782661530300566800,5.37356689453125,-0.4412529468536377,0.43285608291625977,-0.7938665151596069
1782661530310637800,5.383637939453125,-0.10120083391666412,0.5444313287734985,-1.0207796096801758
1782661530320709600,5.393709716796875,0.07401963323354721,0.341219037771225,-1.1089110374450684
1782661530330780700,5.40378076171875,0.06636064499616623,0.03170299530029297,-1.113633394241333
1782661530340851700,5.413851806640625,-0.07435910403728485,-0.3346024751663208,-1.1198012828826904
1782661530350922800,5.4239228515625,-0.2860569655895233,-0.6635878682136536,-1.1823993921279907
1782661530360993500,5.43399365234375,-0.5122206211090088,-0.7952442765235901,-1.356598138809204
1782661530371064600,5.444064697265625,-0.7130817770957947,-0.6949632167816162,-1.6776543855667114
1782661530381135600,5.454135498046875,-0.871498703956604,-0.4502597153186798,-2.0946431159973145
1782661530391206700,5.46420654296875,-0.9520694613456726,-0.164093479514122,-2.469874382019043
1782661530401277700,5.474277587890625,-0.9011340737342834,0.12709586322307587,-2.6735363006591797
1782661530411348700,5.4843486328125,-0.7115809321403503,0.3770007789134979,-2.636241912841797
1782661530421419500,5.49441943359375,-0.4568447768688202,0.48375385999679565,-2.362159490585327
1782661530431490600,5.504490478515625,-0.22283121943473816,0.3994312584400177,-1.9039483070373535
1782661530441562600,5.514562744140625,-0.1114637702703476,0.17313252389431,-1.3654136657714844
1782661530451633400,5.52463330078125,-0.14036652445793152,-0.08486280590295792,-0.8744266629219055
1782661530461704400,5.534704345703125,-0.2629125714302063,-0.33511269092559814,-0.5664566159248352
1782661530471775500,5.544775390625,-0.38387763500213623,-0.5477488040924072,-0.46845176815986633
1782661530481846500,5.554846435546875,-0.4752403795719147,-0.6895241737365723,-0.5324668884277344
1782661530491917600,5.56491748046875,-0.5109320878982544,-0.6690724492073059,-0.6458852887153625
1782661530501988600,5.574988525390625,-0.45699214935302734,-0.5081111192703247,-0.7350822687149048
1782661530512059600,5.5850595703125,-0.3118080496788025,-0.2612752318382263,-0.7764073610305786
1782661530522130400,5.59513037109375,-0.10946639627218246,0.025028664618730545,-0.7487648725509644
1782661530532201500,5.605201416015625,0.08368042856454849,0.294381320476532,-0.6316875219345093
1782661530542272500,5.6152724609375,0.21472375094890594,0.48276272416114807,-0.44963300228118896
1782661530552343600,5.625343505859375,0.28144630789756775,0.5970064997673035,-0.20232920348644257
1782661530562414600,5.63541455078125,0.2898344099521637,0.6213265657424927,0.08242364227771759
1782661530572486700,5.645486572265625,0.24126845598220825,0.5665737986564636,0.37193721532821655
1782661530582557700,5.6555576171875,0.18171334266662598,0.42892104387283325,0.6619917154312134
1782661530592628500,5.66562841796875,0.15260738134384155,0.3300000727176666,0.9590036869049072
1782661530602699500,5.675699462890625,0.17388878762722015,0.37148115038871765,1.2218928337097168
1782661530612770600,5.6857705078125,0.21435391902923584,0.518621027469635,1.417341709136963
1782661530622841600,5.695841552734375,0.2432972490787506,0.7123228311538696,1.536963701248169
1782661530632912600,5.70591259765625,0.24986808001995087,0.8135613203048706,1.553862452507019
1782661530642985500,5.7159853515625,0.24938364326953888,0.7617273926734924,1.50252366065979
1782661530653056500,5.726056396484375,0.2395227551460266,0.6376909613609314,1.4258427619934082
1782661530663127600,5.73612744140625,0.21747088432312012,0.5244392156600952,1.3402594327926636
1782661530673198300,5.7461982421875,0.19241108000278473,0.49346083402633667,1.2479214668273926
1782661530683269400,5.756269287109375,0.15452246367931366,0.49149999022483826,1.1831852197647095
1782661530693340400,5.76634033203125,0.06841155141592026,0.5650026798248291,1.1632970571517944
1782661530703411500,5.776411376953125,-0.04358156770467758,1.0052465200424194,1.2046674489974976
1782661530713482500,5.786482421875,-0.12599654495716095,1.8588082790374756,1.1967169046401978
1782661530723553500,5.796553466796875,-0.18129761517047882,2.161043405532837,0.9435641765594482
1782661530733625600,5.80662548828125,-0.4074271619319916,1.213533639907837,0.3385683298110962
1782661530743696400,5.8166962890625,-0.7803400754928589,-0.016912294551730156,-0.3526179790496826
1782661530753767400,5.826767333984375,-0.9503714442253113,-0.5852764248847961,-0.9098280072212219
1782661530763838500,5.83683837890625,-0.6562655568122864,-0.8045707941055298,-1.3028669357299805
1782661530773909500,5.846909423828125,-0.10395924001932144,-1.2174032926559448,-1.488783836364746
1782661530783980500,5.85698046875,0.5012246370315552,-1.6069034337997437,-1.418056845664978
1782661530794051600,5.867051513671875,1.0122687816619873,-1.5307639837265015,-0.922079861164093
1782661530804122600,5.87712255859375,1.3236305713653564,-1.4683213233947754,-0.1488068848848343
1782661530814193400,5.887193359375,1.3313177824020386,-1.4621119499206543,0.549801766872406
1782661530824264400,5.897264404296875,1.0654162168502808,-1.264674425125122,0.9068737030029297
1782661530834335500,5.90733544921875,0.6721418499946594,-0.919883131980896,0.7861901521682739
1782661530844406500,5.917406494140625,0.28682368993759155,-0.5768640041351318,0.24291585385799408
1782661530854478600,5.927478515625,-0.04243968799710274,-0.3623708486557007,-0.5431209802627563
1782661530864549600,5.937549560546875,-0.3301714360713959,-0.2865114212036133,-1.3372873067855835
1782661530874620700,5.94762060546875,-0.5414136052131653,-0.4133359491825104,-2.0221445560455322
1782661530884691500,5.95769140625,-0.6179629564285278,-0.7029510140419006,-2.5537729263305664
1782661530894762500,5.967762451171875,-0.5225937962532043,-1.0450934171676636,-2.8474843502044678
