time,seconds_elapsed,z,y,x
1782661267641256400,0.08125634765625,-0.054748959839344025,-1.1447832584381104,0.8723725080490112
1782661267651327500,0.091327392578125,-0.03311503678560257,-1.2120280265808105,0.7316787242889404
1782661267661398500,0.1013984375,-0.02088729292154312,-1.1448454856872559,0.543358325958252
1782661267671470600,0.111470703125,-0.017886973917484283,-0.9289507269859314,0.31776779890060425
1782661267681541600,0.121541748046875,0.02557794377207756,-0.638024628162384,0.08547491580247879
1782661267691612700,0.13161279296875,0.1209859549999237,-0.4451132118701935,-0.11238943040370941
1782661267701684700,0.141684814453125,0.2012089490890503,-0.3088548183441162,-0.2735348641872406
1782661267711755800,0.151755859375,0.22471879422664642,-0.2015605866909027,-0.38917064666748047
1782661267721826600,0.16182666015625,0.19801576435565948,-0.09552289545536041,-0.45676931738853455
1782661267731898600,0.171898681640625,0.14246301352977753,-0.06924734264612198,-0.48729953169822693
1782661267741969700,0.1819697265625,0.0741237998008728,-0.12198162823915482,-0.497972697019577
1782661267752040700,0.192040771484375,0.026847362518310547,-0.27152878046035767,-0.5139636397361755
1782661267762112500,0.202112548828125,0.01913447678089142,-0.4126608371734619,-0.5274991989135742
1782661267772183600,0.21218359375,0.05746481940150261,-0.4395694136619568,-0.5313165783882141
1782661267782254600,0.222254638671875,0.13690808415412903,-0.3616625964641571,-0.5408532619476318
1782661267792326700,0.23232666015625,0.24426516890525818,-0.1846499741077423,-0.5669050812721252
1782661267802397700,0.242397705078125,0.3718564808368683,0.07276876270771027,-0.6418870091438293
1782661267812468500,0.252468505859375,0.5527532696723938,0.3131491243839264,-0.7747449278831482
1782661267822540500,0.26254052734375,0.7451145648956299,0.4322238266468048,-0.9101855754852295
1782661267832611600,0.272611572265625,0.8705793023109436,0.37318339943885803,-0.9877163171768188
1782661267842682600,0.2826826171875,0.9188769459724426,0.2603820562362671,-0.986722469329834
1782661267852754700,0.292754638671875,0.9267463088035583,0.13781912624835968,-0.9359849691390991
1782661267862825700,0.30282568359375,0.8799871206283569,0.0442015565931797,-0.8424583077430725
1782661267872896800,0.312896728515625,0.7545562386512756,-0.05691094696521759,-0.7088219523429871
1782661267882968600,0.322968505859375,0.5810349583625793,-0.17061270773410797,-0.5322350859642029
1782661267893039600,0.33303955078125,0.40287989377975464,-0.13955704867839813,-0.2792416512966156
1782661267903110700,0.343110595703125,0.24940457940101624,0.059129565954208374,0.05158274248242378
1782661267913182700,0.3531826171875,0.11450589448213577,0.2918546795845032,0.4061903655529022
1782661267923253500,0.36325341796875,-0.058788299560546875,0.44984593987464905,0.6723874807357788
1782661267933324500,0.373324462890625,-0.28398653864860535,0.4314197897911072,0.7598086595535278
1782661267943396600,0.383396728515625,-0.4279496371746063,0.40909048914909363,0.6016029119491577
1782661267953467600,0.393467529296875,-0.4103434681892395,0.5542786121368408,0.2940184473991394
1782661267963538700,0.40353857421875,-0.36916300654411316,0.7001625299453735,0.09474974125623703
1782661267973610800,0.41361083984375,-0.30467721819877625,0.6980604529380798,-0.0945858284831047
1782661267983681800,0.423681884765625,-0.23379594087600708,0.5119866132736206,-0.2920268774032593
1782661267993752800,0.4337529296875,-0.17992232739925385,0.26293128728866577,-0.43175068497657776
1782661268003824600,0.44382470703125,-0.09449217468500137,0.009661918506026268,-0.4994197189807892
1782661268013895700,0.453895751953125,0.05530744418501854,-0.2800375521183014,-0.5011523365974426
1782661268023966500,0.463966552734375,0.18600782752037048,-0.5020186901092529,-0.44406014680862427
1782661268034038500,0.47403857421875,0.279257595539093,-0.6574404835700989,-0.3691425025463104
1782661268044109600,0.484109619140625,0.3349788188934326,-0.7555734515190125,-0.31924283504486084
1782661268054180600,0.4941806640625,0.3569642901420593,-0.7774883508682251,-0.2788197994232178
1782661268064252700,0.504252685546875,0.3440578579902649,-0.6625232100486755,-0.22434180974960327
1782661268074323700,0.51432373046875,0.31671491265296936,-0.5486288666725159,-0.19366273283958435
1782661268084395500,0.5243955078125,0.28340944647789,-0.49996140599250793,-0.220549538731575
1782661268094466600,0.534466552734375,0.23530985414981842,-0.4751535654067993,-0.32250094413757324
1782661268104537600,0.54453759765625,0.16739009320735931,-0.4059741497039795,-0.4928319454193115
1782661268114609700,0.554609619140625,0.09843339025974274,-0.2568874657154083,-0.69730544090271
1782661268124680400,0.564680419921875,0.048256319016218185,0.04368457570672035,-0.8987454175949097
1782661268134751500,0.57475146484375,0.042904164642095566,0.28986504673957825,-1.1005879640579224
1782661268144823600,0.584823486328125,0.07719488441944122,0.3560662567615509,-1.3068115711212158
1782661268154894600,0.59489453125,0.11484985053539276,0.38324621319770813,-1.4855780601501465
1782661268164965600,0.604965576171875,0.14321069419384003,0.32066667079925537,-1.606359839439392
1782661268175037700,0.61503759765625,0.12191951274871826,0.20258373022079468,-1.657474398612976
1782661268185108700,0.625108642578125,0.02663709782063961,0.08236867189407349,-1.6166406869888306
1782661268195179800,0.6351796875,-0.12306930124759674,-0.0628681480884552,-1.5064977407455444
1782661268205251600,0.64525146484375,-0.30062738060951233,-0.2739957273006439,-1.3736661672592163
1782661268215322600,0.655322509765625,-0.4829851984977722,-0.5171068906784058,-1.2351008653640747
1782661268225393400,0.665393310546875,-0.6183632016181946,-0.6882915496826172,-1.0889710187911987
1782661268235465500,0.675465576171875,-0.6568533182144165,-0.7022771835327148,-0.9397865533828735
1782661268245536500,0.68553662109375,-0.618108868598938,-0.6694546341896057,-0.8261750936508179
1782661268255607600,0.695607666015625,-0.5504043698310852,-0.6347978711128235,-0.7773516774177551
1782661268265679600,0.7056796875,-0.47119978070259094,-0.5666945576667786,-0.7693724036216736
1782661268275750700,0.715750732421875,-0.4074713885784149,-0.4724665880203247,-0.7709183692932129
1782661268285822700,0.72582275390625,-0.3624153733253479,-0.37051624059677124,-0.7571647763252258
1782661268295893800,0.735893798828125,-0.33869674801826477,-0.28784504532814026,-0.7118500471115112
1782661268305964800,0.74596484375,-0.32868683338165283,-0.25494080781936646,-0.641128659248352
1782661268316036600,0.75603662109375,-0.32699811458587646,-0.24633212387561798,-0.5345183610916138
1782661268326107600,0.766107666015625,-0.3310246169567108,-0.2505961060523987,-0.3978723883628845
1782661268336178400,0.776178466796875,-0.34220457077026367,-0.2656192481517792,-0.25949186086654663
1782661268346250500,0.78625048828125,-0.35488778352737427,-0.2923681139945984,-0.13785596191883087
1782661268356321500,0.796321533203125,-0.3743235468864441,-0.3153807520866394,-0.054768260568380356
1782661268366392600,0.806392578125,-0.3955094814300537,-0.31511190533638,-0.019179128110408783
1782661268376464600,0.816464599609375,-0.3998720049858093,-0.25647762417793274,-0.02925652638077736
1782661268386535700,0.82653564453125,-0.37703144550323486,-0.17485928535461426,-0.08127302676439285
1782661268396606700,0.836606689453125,-0.3269352316856384,-0.07904939353466034,-0.13751019537448883
1782661268406678800,0.8466787109375,-0.25720033049583435,0.019919579848647118,-0.17036812007427216
1782661268416749800,0.856749755859375,-0.20185397565364838,0.10311514139175415,-0.18696361780166626
1782661268426821600,0.866821533203125,-0.17603972554206848,0.13952718675136566,-0.1745395064353943
1782661268436892700,0.876892578125,-0.18849879503250122,0.10599080473184586,-0.16027401387691498
1782661268446963500,0.88696337890625,-0.22823090851306915,0.03656662255525589,-0.1564178317785263
1782661268457035500,0.897035400390625,-0.2717890441417694,-0.04683985188603401,-0.17512094974517822
1782661268467106600,0.9071064453125,-0.30492597818374634,-0.11101250350475311,-0.2156352400779724
1782661268477177600,0.917177490234375,-0.3142715394496918,-0.15397648513317108,-0.2698718309402466
1782661268487249700,0.927249755859375,-0.2983987331390381,-0.1811700463294983,-0.3204212486743927
1782661268497320700,0.93732080078125,-0.26553717255592346,-0.19772104918956757,-0.3585105836391449
1782661268507391700,0.947391845703125,-0.23410332202911377,-0.20981623232364655,-0.37925660610198975
1782661268517463800,0.9574638671875,-0.20927919447422028,-0.21928644180297852,-0.36769261956214905
1782661268527534800,0.967534912109375,-0.1752515584230423,-0.2109789252281189,-0.32424530386924744
1782661268537606700,0.977606689453125,-0.12721557915210724,-0.18787121772766113,-0.2610442340373993
1782661268547677700,0.987677734375,-0.07215778529644012,-0.18322664499282837,-0.18826225399971008
1782661268557748500,0.99774853515625,-0.02710987813770771,-0.16293281316757202,-0.09963998198509216
1782661268567820500,1.007820556640625,-0.0006642623338848352,-0.12605276703834534,0.006654189433902502
1782661268577891600,1.0178916015625,-0.00041099567897617817,-0.14485947787761688,0.09370413422584534
1782661268587962600,1.027962646484375,-0.022223899140954018,-0.2397162765264511,0.16622380912303925
1782661268598034700,1.03803466796875,-0.06608802825212479,-0.3292136788368225,0.25089478492736816
1782661268608105700,1.048105712890625,-0.09747709333896637,-0.32063132524490356,0.3762488067150116
1782661268618177500,1.058177490234375,-0.11668141186237335,-0.24397648870944977,0.5416433215141296
1782661268628248600,1.06824853515625,-0.1368679404258728,-0.18257072567939758,0.6983789801597595
1782661268638319600,1.078319580078125,-0.15791410207748413,-0.1555875688791275,0.8265353441238403
1782661268648392000,1.088391845703125,-0.16874824464321136,-0.2481907308101654,0.8903909921646118
1782661268658462700,1.098462646484375,-0.1621910035610199,-0.4449661076068878,0.8894029259681702
1782661268668533800,1.10853369140625,-0.15346255898475647,-0.5450275540351868,0.8926279544830322
1782661268678605800,1.118605712890625,-0.13776721060276031,-0.40743935108184814,0.9564402103424072
1782661268688676900,1.1286767578125,-0.107283815741539,-0.11461642384529114,1.0667470693588257
1782661268698749000,1.1387490234375,-0.06319278478622437,0.2140227109193802,1.2210522890090942
1782661268708820000,1.148820068359375,-0.011945163831114769,0.4476996958255768,1.3733398914337158
1782661268718891000,1.15889111328125,0.047161299735307693,0.5474563837051392,1.5179146528244019
1782661268728962800,1.168962890625,0.12204788625240326,0.5333032011985779,1.6881214380264282
1782661268739033900,1.179033935546875,0.2484859824180603,0.4159371256828308,1.8396044969558716
1782661268749104600,1.189104736328125,0.40187737345695496,0.2376839965581894,1.93922758102417
1782661268759176700,1.1991767578125,0.5307906270027161,-0.03712279349565506,1.929566502571106
1782661268769247700,1.209247802734375,0.5980105400085449,-0.30645814538002014,1.7351963520050049
1782661268779319800,1.21931982421875,0.5281203985214233,-0.5243108868598938,1.3185961246490479
1782661268789390800,1.229390869140625,0.3032567799091339,-0.6450539827346802,0.7243587970733643
1782661268799462000,1.2394619140625,-0.06646054238080978,-0.5742765069007874,0.035906314849853516
1782661268809534000,1.249533935546875,-0.4743558466434479,-0.3044573664665222,-0.6645873785018921
1782661268819605000,1.25960498046875,-0.8149133920669556,-0.015581103041768074,-1.3025954961776733
1782661268829676800,1.2696767578125,-1.0570483207702637,0.17616072297096252,-1.7703057527542114
1782661268839747800,1.279747802734375,-1.2129007577896118,0.18998998403549194,-1.999816656112671
1782661268849819000,1.28981884765625,-1.2904384136199951,-0.08874817192554474,-2.0180842876434326
1782661268859891000,1.299890869140625,-1.3478258848190308,-0.6626381874084473,-1.920437216758728
1782661268869961700,1.309961669921875,-1.4465482234954834,-1.2450381517410278,-1.7917367219924927
1782661268880032800,1.32003271484375,-1.5904265642166138,-1.593196153640747,-1.7588764429092407
1782661268890104800,1.330104736328125,-1.7845232486724854,-1.6244443655014038,-1.9473636150360107
1782661268900176000,1.34017578125,-2.0207839012145996,-1.3718568086624146,-2.3172430992126465
1782661268910247700,1.35024755859375,-2.2878916263580322,-0.8579151630401611,-2.676711082458496
1782661268920318700,1.360318603515625,-2.5212719440460205,-0.08405353128910065,-2.9172582626342773
1782661268930389800,1.3703896484375,-2.6622955799102783,0.6863039135932922,-3.0664584636688232
1782661268940461800,1.3804619140625,-2.700119733810425,1.1979265213012695,-3.1150786876678467
1782661268950532900,1.390532958984375,-2.629366397857666,1.4356651306152344,-3.0533130168914795
1782661268960604000,1.40060400390625,-2.4368090629577637,1.330782413482666,-2.8813557624816895
1782661268970676000,1.410676025390625,-2.1328437328338623,0.9443212747573853,-2.5800442695617676
1782661268980746800,1.420746826171875,-1.7505230903625488,0.3835929334163666,-2.1548237800598145
1782661268990818800,1.43081884765625,-1.3134331703186035,-0.24392317235469818,-1.6306411027908325
1782661269000889900,1.440889892578125,-0.8675850629806519,-0.8501046895980835,-1.0485119819641113
1782661269010961000,1.4509609375,-0.4871402680873871,-1.2400319576263428,-0.45505720376968384
1782661269021032700,1.46103271484375,-0.21741583943367004,-1.3035261631011963,0.1292906552553177
1782661269031103700,1.471103759765625,-0.08670476824045181,-1.1118767261505127,0.6566300392150879
1782661269041175800,1.48117578125,-0.0922505334019661,-0.7800169587135315,1.047898769378662
1782661269051246800,1.491246826171875,-0.1326909214258194,-0.47595784068107605,1.2449071407318115
1782661269061318000,1.50131787109375,-0.12230964004993439,-0.28648748993873596,1.2475000619888306
1782661269071390000,1.511389892578125,-0.06649226695299149,-0.17954282462596893,1.1562244892120361
1782661269081461000,1.5214609375,-0.03506270423531532,-0.07888544350862503,1.08236563205719
1782661269091531800,1.53153173828125,-0.047592341899871826,0.011900648474693298,1.0926910638809204
1782661269101603800,1.541603759765625,-0.0686800479888916,0.07282684743404388,1.172737956047058
1782661269111675000,1.5516748046875,-0.08589580655097961,0.07404550164937973,1.2844756841659546
1782661269121746700,1.56174658203125,-0.16599172353744507,0.048388078808784485,1.4198284149169922
1782661269131817700,1.571817626953125,-0.3029971420764923,0.03732019662857056,1.621964931488037
1782661269141888800,1.581888671875,-0.45621970295906067,0.08037365972995758,1.8952311277389526
1782661269151960800,1.5919609375,-0.5969984531402588,0.151911199092865,2.1872386932373047
1782661269162031900,1.602031982421875,-0.6806840300559998,0.2382439523935318,2.4152019023895264
1782661269172104000,1.61210400390625,-0.6766499280929565,0.27725544571876526,2.5330874919891357
1782661269182175000,1.622175048828125,-0.5903549790382385,0.23756343126296997,2.5571696758270264
1782661269192246000,1.63224609375,-0.4490495026111603,0.11043840646743774,2.550381660461426
1782661269202318000,1.642318115234375,-0.28222137689590454,-0.002698534168303013,2.5874688625335693
1782661269212388900,1.652388916015625,-0.08204993605613708,-0.015497693791985512,2.7428534030914307
1782661269222460700,1.662460693359375,0.17431259155273438,0.07122281938791275,3.0240609645843506
1782661269232531700,1.67253173828125,0.45910269021987915,0.2979002296924591,3.3684113025665283
1782661269242602800,1.682602783203125,0.7075884342193604,0.7815039157867432,3.663984537124634
1782661269252674800,1.6926748046875,0.8279188871383667,1.2034417390823364,3.680243968963623
1782661269262745900,1.702745849609375,0.7586343288421631,1.3249313831329346,3.219503164291382
1782661269272818000,1.71281787109375,0.49372389912605286,1.2662042379379272,2.388528823852539
1782661269282889000,1.722888916015625,0.04878344386816025,1.030109167098999,1.4013489484786987
1782661269292960000,1.7329599609375,-0.3392949402332306,0.6408718824386597,0.42319920659065247
1782661269303031800,1.74303173828125,-0.521003246307373,0.2940875291824341,-0.34921765327453613
1782661269313102800,1.753102783203125,-0.5252524614334106,0.01223263330757618,-0.7800153493881226
1782661269323174000,1.763173828125,-0.440645694732666,-0.15914711356163025,-0.8134819865226746
1782661269333245700,1.77324560546875,-0.274091511964798,-0.10339255630970001,-0.6102766990661621
1782661269343316700,1.783316650390625,-0.10019560903310776,0.1101178526878357,-0.47967398166656494
1782661269353388800,1.793388916015625,-0.031014829874038696,0.29501524567604065,-0.6041663289070129
1782661269363459800,1.8034599609375,-0.11911725997924805,0.396157830953598,-0.9639818072319031
1782661269373531000,1.81353076171875,-0.36350131034851074,0.44741538166999817,-1.4509103298187256
1782661269383606000,1.82360595703125,-0.7127442359924316,0.4882272481918335,-1.9691436290740967
1782661269393676800,1.8336767578125,-1.0515295267105103,0.48795586824417114,-2.4353318214416504
1782661269403747800,1.843747802734375,-1.2429412603378296,0.4023429751396179,-2.7613253593444824
1782661269413820000,1.85381982421875,-1.2526848316192627,0.2091582715511322,-2.8463282585144043
1782661269423891000,1.863890869140625,-1.1477539539337158,-0.05887957662343979,-2.6760571002960205
1782661269433962800,1.873962646484375,-1.0273150205612183,-0.36644336581230164,-2.3342154026031494
1782661269444033800,1.88403369140625,-0.9471557140350342,-0.646331250667572,-1.9386334419250488
1782661269454104800,1.894104736328125,-0.8843894600868225,-0.8318026661872864,-1.6021320819854736
1782661269464177000,1.904177001953125,-0.8076882362365723,-0.7688735127449036,-1.3062556982040405
1782661269474248000,1.914248046875,-0.6746463775634766,-0.5387594699859619,-1.0348379611968994
1782661269484320000,1.924320068359375,-0.5365020632743835,-0.2917789816856384,-0.8106319308280945
1782661269494391000,1.93439111328125,-0.46243056654930115,-0.019423717632889748,-0.645807147026062
1782661269504461800,1.9444619140625,-0.42668160796165466,0.2497294396162033,-0.5538111925125122
1782661269514533600,1.95453369140625,-0.35937756299972534,0.46856942772865295,-0.5618419647216797
1782661269524604700,1.964604736328125,-0.25119757652282715,0.6256074905395508,-0.6231039762496948
1782661269534676700,1.9746767578125,-0.08254694938659668,0.71348637342453,-0.6491309404373169
1782661269544747800,1.984747802734375,0.14320895075798035,0.7648571729660034,-0.5546614527702332
1782661269554818800,1.99481884765625,0.4000087380409241,0.8004118204116821,-0.3228726387023926
1782661269564891000,2.004890869140625,0.6525453329086304,0.79429692029953,0.017532076686620712
1782661269574962000,2.0149619140625,0.8637575507164001,0.7667595148086548,0.4158778786659241
1782661269585033000,2.025032958984375,0.9968240261077881,0.6920642256736755,0.8247607350349426
1782661269595105000,2.03510498046875,1.0386890172958374,0.5758071541786194,1.1923816204071045
1782661269605175800,2.04517578125,1.0082322359085083,0.4776749908924103,1.4876854419708252
1782661269615247600,2.05524755859375,0.9323053359985352,0.414991170167923,1.6983660459518433
1782661269625318700,2.065318603515625,0.8476203083992004,0.4277746081352234,1.840344786643982
1782661269635389700,2.0753896484375,0.8038484454154968,0.49367818236351013,1.9213361740112305
1782661269645462800,2.085462890625,0.7674432992935181,0.6149787902832031,1.9285216331481934
1782661269655533800,2.095533935546875,0.6739108562469482,0.7742694616317749,1.8655290603637695
1782661269665606000,2.10560595703125,0.5497497320175171,0.9496750831604004,1.7674314975738525
1782661269675677000,2.115677001953125,0.49779969453811646,1.0902917385101318,1.670400619506836
1782661269685748000,2.125748046875,0.5089857578277588,1.154246211051941,1.653080701828003
1782661269695819800,2.13581982421875,0.4728925824165344,1.1079751253128052,1.774945855140686
1782661269705890800,2.145890869140625,0.329093337059021,0.9830361008644104,1.9514572620391846
1782661269715963000,2.155962890625,0.1498192399740219,0.7245482206344604,2.134941577911377
1782661269726034000,2.166033935546875,0.01925298571586609,0.31642842292785645,2.301335096359253
1782661269736104700,2.176104736328125,-0.024848325178027153,-0.04913906008005142,2.3945233821868896
1782661269746177000,2.186177001953125,0.044287070631980896,-0.20375393331050873,2.4225752353668213
1782661269756247800,2.196247802734375,0.23294028639793396,-0.1709281951189041,2.4637062549591064
1782661269766319900,2.20631982421875,0.46889153122901917,-0.026554236188530922,2.54994535446167
1782661269776391000,2.216390869140625,0.5364557504653931,0.10290436446666718,2.576608180999756
1782661269786462000,2.2264619140625,0.2779325842857361,-0.11896810680627823,2.2143073081970215
1782661269796533800,2.23653369140625,-0.2621362507343292,-0.7584280967712402,1.341841459274292
1782661269806604800,2.246604736328125,-0.7278922200202942,-1.17470383644104,0.4906749129295349
1782661269816676900,2.2566767578125,-1.1269294023513794,-1.319759488105774,-0.26606297492980957
1782661269826748000,2.266747802734375,-1.4986624717712402,-1.3513888120651245,-1.2032830715179443
1782661269836819000,2.27681884765625,-1.6874198913574219,-1.4640164375305176,-2.094853162765503
1782661269846891000,2.28689111328125,-1.6069061756134033,-1.4968366622924805,-2.538700819015503
1782661269856961800,2.2969619140625,-1.4008499383926392,-1.253086805343628,-2.6315500736236572
1782661269867033900,2.307033935546875,-1.1717654466629028,-0.822502613067627,-2.73087739944458
1782661269877104600,2.317104736328125,-0.9797244668006897,-0.3769073486328125,-2.9783756732940674
1782661269887175700,2.32717578125,-0.9642957448959351,0.06555422395467758,-3.2879621982574463
1782661269897247700,2.337247802734375,-1.1462392807006836,0.24088311195373535,-3.6154510974884033
1782661269907318800,2.34731884765625,-1.4013458490371704,0.19685520231723785,-3.7914555072784424
1782661269917390800,2.357390869140625,-1.5483812093734741,-0.05609939992427826,-3.6789066791534424
1782661269927462000,2.3674619140625,-1.4442404508590698,-0.5261744856834412,-3.1669399738311768
1782661269937533000,2.377532958984375,-1.1000646352767944,-1.002018690109253,-2.2781834602355957
1782661269947605000,2.38760498046875,-0.6628071665763855,-1.2696013450622559,-1.2373936176300049
1782661269957676000,2.397676025390625,-0.2523937225341797,-1.286789894104004,-0.37174704670906067
1782661269967747800,2.407747802734375,0.028966573998332024,-1.0580121278762817,0.034693676978349686
1782661269977818600,2.417818603515625,0.11830506473779678,-0.5717207789421082,-0.05023433640599251
1782661269987889700,2.4278896484375,0.04910841956734657,0.0476846806704998,-0.48509764671325684
1782661269997961700,2.437961669921875,-0.12932062149047852,0.6271746158599854,-1.0553672313690186
1782661270008032800,2.44803271484375,-0.3657456934452057,1.0691590309143066,-1.568795919418335
1782661270018104800,2.458104736328125,-0.5516000986099243,1.2289561033248901,-1.908576488494873
1782661270028176000,2.46817578125,-0.5992326140403748,1.0327430963516235,-2.009821653366089
1782661270038247000,2.478246826171875,-0.5008490085601807,0.5050933957099915,-1.83586585521698
1782661270048319000,2.488319091796875,-0.269460529088974,-0.17495541274547577,-1.3816096782684326
1782661270058390000,2.49839013671875,0.029766788706183434,-0.8054656386375427,-0.6849793195724487
1782661270068461800,2.5084619140625,0.28203606605529785,-1.2477689981460571,0.12088416516780853
1782661270078532900,2.518532958984375,0.43636390566825867,-1.457595944404602,0.8353824019432068
1782661270088603600,2.528603759765625,0.5118565559387207,-1.4771848917007446,1.334629774093628
1782661270098675700,2.53867578125,0.5167355537414551,-1.3498362302780151,1.5850532054901123
1782661270108746800,2.548746826171875,0.4837528467178345,-1.0999071598052979,1.6296685934066772
1782661270118818800,2.55881884765625,0.4227401912212372,-0.7453116774559021,1.5247606039047241
1782661270128889900,2.568889892578125,0.3479042947292328,-0.34543806314468384,1.3422338962554932
1782661270138961000,2.5789609375,0.26282966136932373,0.026974927634000778,1.1579737663269043
1782661270149032700,2.58903271484375,0.17473895847797394,0.32323509454727173,1.0260047912597656
1782661270159103700,2.599103759765625,0.09867364913225174,0.5272083282470703,0.9389913082122803
1782661270169174800,2.6091748046875,0.03957277163863182,0.6402201056480408,0.8909289836883545
1782661270179246800,2.619246826171875,-0.00869009830057621,0.6631571054458618,0.8862125277519226
1782661270189318000,2.62931787109375,-0.04286511242389679,0.6107397079467773,0.9278361201286316
1782661270199390000,2.639389892578125,-0.045344557613134384,0.5208027958869934,1.0124938488006592
1782661270209460700,2.649460693359375,-0.019921759143471718,0.4188556671142578,1.1075234413146973
1782661270219531800,2.65953173828125,0.024516697973012924,0.291983962059021,1.1796602010726929
1782661270229603800,2.669603759765625,0.08386604487895966,0.12997721135616302,1.2235405445098877
1782661270239675000,2.6796748046875,0.14675387740135193,-0.07820847630500793,1.2538387775421143
1782661270249746700,2.68974658203125,0.1999121755361557,-0.3208911716938019,1.3449418544769287
1782661270259817700,2.699817626953125,0.22357727587223053,-0.5688149333000183,1.511959195137024
1782661270269888800,2.709888671875,0.22478395700454712,-0.7064700126647949,1.7666382789611816
1782661270279960800,2.7199609375,0.21373145282268524,-0.5593379139900208,2.022979497909546
1782661270290031900,2.730031982421875,0.1803141087293625,-0.26665621995925903,2.0137603282928467
1782661270300104000,2.74010400390625,0.027991635724902153,-0.3026800751686096,1.494996190071106
1782661270310175000,2.750175048828125,-0.15443861484527588,-0.5397765636444092,0.6623282432556152
1782661270320245800,2.760245849609375,-0.31411364674568176,-0.6991980671882629,-0.00933384895324707
1782661270330317800,2.77031787109375,-0.5494740009307861,-0.8002863526344299,-0.48584315180778503
1782661270340388900,2.780388916015625,-0.7301796674728394,-0.804896891117096,-1.0932825803756714
1782661270350460700,2.790460693359375,-0.7202599048614502,-0.7146074771881104,-1.7861689329147339
1782661270360531700,2.80053173828125,-0.545416533946991,-0.4382922351360321,-2.19211483001709
1782661270370602800,2.810602783203125,-0.35214823484420776,0.017155958339571953,-2.2132718563079834
1782661270380674800,2.8206748046875,-0.17409834265708923,0.40801188349723816,-2.0075931549072266
1782661270390745900,2.830745849609375,0.011296545155346394,0.6457032561302185,-1.6787155866622925
1782661270400818000,2.84081787109375,0.18157684803009033,0.774764358997345,-1.3490781784057617
1782661270410889000,2.850888916015625,0.3010784983634949,0.7691701650619507,-1.2227460145950317
1782661270420960000,2.8609599609375,0.3218812346458435,0.5259416103363037,-1.4701478481292725
1782661270431032000,2.871031982421875,0.21109053492546082,0.09094033390283585,-1.9916019439697266
1782661270441102800,2.881102783203125,-0.02173111028969288,-0.31799226999282837,-2.51816463470459
1782661270451174700,2.891174560546875,-0.29477331042289734,-0.5242639183998108,-2.853346586227417
1782661270461245700,2.90124560546875,-0.49301257729530334,-0.5025668144226074,-3.013557195663452
1782661270471316700,2.911316650390625,-0.5529088973999023,-0.31566640734672546,-3.036409616470337
1782661270481388800,2.921388916015625,-0.46352070569992065,-0.036249417811632156,-2.936897039413452
1782661270491459800,2.9314599609375,-0.2665461301803589,0.26244834065437317,-2.698622226715088
1782661270501532000,2.941531982421875,-0.0200963094830513,0.5315616130828857,-2.3166117668151855
1782661270511603000,2.95160302734375,0.20720182359218597,0.7691094875335693,-1.8148777484893799
1782661270521674000,2.961674072265625,0.3718060255050659,0.9510515332221985,-1.266305685043335
1782661270531745800,2.971745849609375,0.45721253752708435,1.0463870763778687,-0.7342622876167297
1782661270541816800,2.98181689453125,0.4933890998363495,1.0245239734649658,-0.2689342200756073
1782661270551889000,2.991888916015625,0.4904622733592987,0.8874260783195496,0.10657203942537308
1782661270561959700,3.001959716796875,0.4615294635295868,0.6456905007362366,0.3802122473716736
1782661270572030700,3.01203076171875,0.4232180118560791,0.32094594836235046,0.5386798977851868
1782661270582102800,3.022102783203125,0.39056238532066345,-0.002644644118845463,0.6175903677940369
1782661270592173800,3.032173828125,0.37242013216018677,-0.25753843784332275,0.6857747435569763
1782661270602246000,3.042245849609375,0.35973209142684937,-0.4054667353630066,0.8054729700088501
1782661270612317000,3.05231689453125,0.3599699139595032,-0.490286260843277,1.0043318271636963
1782661270622388000,3.062387939453125,0.35496756434440613,-0.598046600818634,1.2801519632339478
1782661270632459800,3.072459716796875,0.3175365924835205,-0.779470682144165,1.6093953847885132
1782661270642530600,3.082530517578125,0.23993127048015594,-0.9737905263900757,1.9633435010910034
1782661270652602400,3.092602294921875,0.1430891454219818,-1.1822813749313354,2.280582904815674
1782661270662673400,3.10267333984375,-0.06395213305950165,-1.5584845542907715,2.4902260303497314
1782661270672744200,3.112744140625,-0.3192608654499054,-1.8332799673080444,2.574934720993042
1782661270682816500,3.12281640625,-0.6045277714729309,-1.9007623195648193,2.5997602939605713
1782661270692887300,3.13288720703125,-0.8990720510482788,-1.8248870372772217,2.6136839389801025
1782661270702959400,3.14295947265625,-1.1415777206420898,-1.588545560836792,2.636383533477783
1782661270713030400,3.153030517578125,-1.2523516416549683,-1.1738181114196777,2.67030668258667
1782661270723101400,3.163101318359375,-1.1603623628616333,-0.6347237825393677,2.6952359676361084
1782661270733173200,3.17317333984375,-0.8849707245826721,-0.05451923608779907,2.658616781234741
1782661270743244300,3.183244384765625,-0.5006317496299744,0.42403385043144226,2.5653655529022217
1782661270753316400,3.19331640625,-0.06671096384525299,0.7181184887886047,2.402055025100708
1782661270763387400,3.203387451171875,0.3521876037120819,0.8588438630104065,2.1970157623291016
1782661270773458400,3.21345849609375,0.7291409969329834,0.9196155667304993,1.973499059677124
1782661270783530500,3.223530517578125,0.9926987886428833,0.8978559970855713,1.7871613502502441
1782661270793601300,3.233601318359375,1.0286225080490112,0.831383228302002,1.669873833656311
1782661270803673600,3.243673583984375,0.8032060861587524,1.0395857095718384,1.9059423208236694
1782661270813744400,3.253744384765625,0.293394535779953,1.526848316192627,2.107010841369629
1782661270823815400,3.2638154296875,-0.27069419622421265,1.6143501996994019,1.8112404346466064
1782661270833887200,3.27388720703125,-0.6599481701850891,1.5273377895355225,0.8508938550949097
1782661270843958300,3.283958251953125,-0.7123499512672424,1.5737181901931763,-0.3501497507095337
1782661270854030300,3.2940302734375,-0.4678536355495453,1.5819237232208252,-1.587960124015808
1782661270864101400,3.304101318359375,-0.11850099265575409,1.346511960029602,-2.7910377979278564
1782661270874172400,3.31417236328125,0.1365203857421875,0.8550815582275391,-3.656442403793335
1782661270884244500,3.324244384765625,0.2617689371109009,0.11453033983707428,-3.7763898372650146
1782661270894315500,3.3343154296875,0.4614790976047516,-0.2901068925857544,-3.1103336811065674
1782661270904387600,3.3443876953125,0.8348674774169922,-0.31786441802978516,-2.1614251136779785
1782661270914458400,3.354458251953125,1.3044650554656982,-0.27472788095474243,-1.450927495956421
1782661270924529400,3.364529296875,1.445366621017456,-0.7587770223617554,-1.4300944805145264
1782661270934601200,3.374601318359375,1.145314335823059,-1.489704966545105,-1.9591341018676758
1782661270944672300,3.38467236328125,0.697670042514801,-1.9576140642166138,-2.547308921813965
1782661270954744300,3.394744384765625,0.33881816267967224,-2.0304291248321533,-2.9821884632110596
1782661270964815400,3.4048154296875,0.10821572691202164,-1.9865756034851074,-3.227470636367798
1782661270974886400,3.414886474609375,0.06953117996454239,-1.712822675704956,-3.129424810409546
1782661270984958500,3.42495849609375,0.27615565061569214,-1.4394642114639282,-2.791484832763672
1782661270995029500,3.435029541015625,0.6102423071861267,-1.3270303010940552,-2.447399139404297
1782661271005101600,3.4451015625,0.9344071745872498,-1.1907414197921753,-2.201735019683838
1782661271015172600,3.455172607421875,0.9989914894104004,-0.8376910090446472,-2.0028903484344482
1782661271025243400,3.465243408203125,0.7790769934654236,-0.37163060903549194,-1.8595746755599976
1782661271035315200,3.475315185546875,0.3386461138725281,0.03726048395037651,-1.7878367900848389
1782661271045386200,3.48538623046875,-0.2049950659275055,0.21437038481235504,-1.8198038339614868
1782661271055458300,3.495458251953125,-0.6513770818710327,0.19786305725574493,-1.8723876476287842
1782661271065529300,3.505529296875,-0.853778600692749,0.13611376285552979,-1.798228144645691
1782661271075600400,3.515600341796875,-0.7970660924911499,0.07706855982542038,-1.5296435356140137
1782661271085672400,3.52567236328125,-0.5466310977935791,0.05770588666200638,-1.1083972454071045
1782661271095743500,3.535743408203125,-0.19445256888866425,0.24109622836112976,-0.550080418586731
1782661271105815300,3.545815185546875,0.19674290716648102,0.534734845161438,0.10368585586547852
1782661271115886300,3.55588623046875,0.5655699372291565,0.8339002728462219,0.7172672152519226
1782661271125957400,3.565957275390625,0.8147293329238892,1.016910195350647,1.1252412796020508
1782661271136029400,3.576029541015625,0.8721108436584473,1.0339936017990112,1.2822446823120117
1782661271146100200,3.586100341796875,0.7609295845031738,0.9168796539306641,1.2369071245193481
1782661271156172300,3.59617236328125,0.5496085286140442,0.8174046874046326,1.125567078590393
1782661271166243300,3.606243408203125,0.33189335465431213,0.8362656235694885,1.05873441696167
1782661271176314400,3.616314453125,0.167635977268219,0.9541941285133362,1.0685292482376099
1782661271186386400,3.626386474609375,0.08817290514707565,1.1234664916992188,1.1546804904937744
1782661271196457500,3.63645751953125,0.0789937898516655,1.2961626052856445,1.271484375
1782661271206529300,3.646529296875,0.08818202465772629,1.3461905717849731,1.3623993396759033
1782661271216600300,3.656600341796875,0.07119105756282806,1.307808518409729,1.361243486404419
1782661271226671400,3.66667138671875,0.04469280689954758,1.2468363046646118,1.2906556129455566
1782661271236743400,3.676743408203125,0.08567086607217789,1.1909300088882446,1.180715560913086
1782661271246814500,3.686814453125,0.248710498213768,1.1620911359786987,1.124751091003418
1782661271256886500,3.696886474609375,0.48762428760528564,1.0107319355010986,1.1577351093292236
1782661271266957300,3.706957275390625,0.7000916600227356,0.7006595134735107,1.292656660079956
1782661271277028400,3.7170283203125,0.7919483184814453,0.3681318759918213,1.516631007194519
1782661271287100400,3.727100341796875,0.7480899691581726,0.000948972359765321,1.7439736127853394
1782661271297171500,3.73717138671875,0.6393331289291382,-0.34306058287620544,1.9365345239639282
1782661271307243300,3.7472431640625,0.5869000554084778,-0.5530968308448792,2.096860408782959
1782661271317314300,3.757314208984375,0.5989987850189209,-0.5574263334274292,2.2980592250823975
1782661271327385300,3.76738525390625,0.6071053743362427,-0.2700377404689789,2.5492746829986572
1782661271337457400,3.77745751953125,0.5286657214164734,0.256095290184021,2.7018096446990967
1782661271347528400,3.787528564453125,0.3451928198337555,0.5945043563842773,2.4211771488189697
1782661271357600500,3.7976005859375,0.09037760645151138,0.6470754146575928,1.621649146080017
1782661271367671600,3.807671630859375,-0.21538299322128296,0.7122688293457031,0.5978121757507324
1782661271377742300,3.817742431640625,-0.5309342741966248,0.5796378254890442,-0.6401201486587524
1782661271387814400,3.827814453125,-0.7133373618125916,0.25086620450019836,-1.9451384544372559
1782661271397885400,3.837885498046875,-0.7111530303955078,-0.22714672982692719,-2.9045958518981934
1782661271407957200,3.847957275390625,-0.5229381918907166,-0.8214776515960693,-3.233227014541626
1782661271418028300,3.8580283203125,-0.2156621515750885,-1.3707722425460815,-2.9857025146484375
1782661271428099300,3.868099365234375,0.05934948846697807,-1.710209846496582,-2.4449715614318848
1782661271438171400,3.87817138671875,0.19394057989120483,-1.785216212272644,-1.9725501537322998
1782661271448242400,3.888242431640625,0.17430774867534637,-1.4998459815979004,-1.491031289100647
1782661271458314500,3.898314453125,0.06344620883464813,-1.1841248273849487,-1.027403473854065
1782661271468385500,3.908385498046875,-0.06534872204065323,-1.0656646490097046,-0.7185858488082886
1782661271478456600,3.91845654296875,-0.18585090339183807,-1.3288494348526,-0.6626262068748474
1782661271488528400,3.9285283203125,-0.30899468064308167,-2.0809555053710938,-1.037871241569519
1782661271498599200,3.93859912109375,-0.4404672384262085,-2.5482561588287354,-1.5768966674804688
1782661271508670200,3.948670166015625,-0.5643771290779114,-2.213344097137451,-1.9667834043502808
1782661271518742300,3.9587421875,-0.6196041703224182,-1.2614514827728271,-2.2256736755371094
1782661271528813300,3.968813232421875,-0.5366068482398987,-0.1206095740199089,-2.3506674766540527
1782661271538885400,3.978885498046875,-0.3299751281738281,0.7920426726341248,-2.305464029312134
1782661271548956400,3.988956298828125,-0.07895341515541077,1.2283326387405396,-2.093883752822876
1782661271559027500,3.99902734375,0.08813304454088211,1.3518903255462646,-1.7826584577560425
1782661271569099500,4.009099609375,0.15314507484436035,1.2758415937423706,-1.441680669784546
1782661271579170600,4.019170654296875,0.14787840843200684,1.1537984609603882,-1.1139369010925293
1782661271589242400,4.029242431640625,0.12257948517799377,1.1099096536636353,-0.8299848437309265
1782661271599313400,4.0393134765625,0.10212267935276031,1.1192394495010376,-0.597877025604248
1782661271609384200,4.04938427734375,0.08884719759225845,1.09351646900177,-0.4002283215522766
1782661271619456300,4.059456298828125,0.07308421283960342,0.9354072213172913,-0.22092300653457642
1782661271629527300,4.06952734375,0.06571280211210251,0.6580597758293152,-0.0418696366250515
1782661271639599900,4.079599853515625,0.0731467455625534,0.4320114552974701,0.13114021718502045
1782661271649671000,4.0896708984375,0.11301617324352264,0.44525277614593506,0.3055332899093628
1782661271659741700,4.09974169921875,0.21727652847766876,0.7539392709732056,0.5162357091903687
1782661271669813800,4.109813720703125,0.3430405259132385,1.0375339984893799,0.7276523113250732
1782661271679884800,4.119884765625,0.42770081758499146,1.1537493467330933,0.9074116945266724
1782661271689956600,4.12995654296875,0.44854044914245605,1.2042521238327026,1.060472846031189
1782661271700027600,4.140027587890625,0.4038137197494507,1.2070415019989014,1.2003309726715088
1782661271710098700,4.1500986328125,0.3104403614997864,1.197924256324768,1.3222893476486206
1782661271720170800,4.160170654296875,0.1842784285545349,1.2480007410049438,1.4200215339660645
1782661271730241800,4.17024169921875,0.026693429797887802,1.3055728673934937,1.4687319993972778
1782661271740313900,4.18031396484375,-0.1503143608570099,1.3184304237365723,1.439799189567566
1782661271750385000,4.190385009765625,-0.31655994057655334,1.1750812530517578,1.3106999397277832
1782661271760455700,4.20045556640625,-0.4586859345436096,0.9138131141662598,1.0961884260177612
1782661271770527500,4.210527587890625,-0.5786087512969971,0.7621073722839355,0.8583198189735413
1782661271780598500,4.2205986328125,-0.6727573871612549,0.7268833518028259,0.5900691747665405
1782661271790670600,4.230670654296875,-0.7444120049476624,0.7451615333557129,0.2388947755098343
1782661271800741600,4.24074169921875,-0.8164665102958679,0.42456167936325073,-0.2536264955997467
1782661271810812700,4.250812744140625,-0.9372590780258179,-0.3563213050365448,-0.8639905452728271
1782661271820884700,4.260884765625,-1.111271858215332,-1.1179430484771729,-1.3497761487960815
1782661271830955800,4.270955810546875,-1.2599287033081055,-1.345369815826416,-1.5189059972763062
1782661271841026800,4.28102685546875,-1.3486145734786987,-1.335203766822815,-1.5030269622802734
1782661271851099000,4.291098876953125,-1.3388484716415405,-1.5279040336608887,-1.4267560243606567
1782661271861170000,4.301169921875,-1.2108060121536255,-2.009805202484131,-1.2792986631393433
1782661271871241700,4.31124169921875,-0.9811863303184509,-2.2494916915893555,-0.9499850869178772
1782661271881312500,4.3213125,-0.6380369663238525,-2.0158820152282715,-0.45459213852882385
1782661271891383600,4.331383544921875,-0.27162787318229675,-1.5778039693832397,0.09517570585012436
1782661271901455600,4.34145556640625,0.038802433758974075,-1.3278204202651978,0.5776707530021667
1782661271911526700,4.351526611328125,0.28869909048080444,-1.226857304573059,0.9651427268981934
1782661271921598700,4.3615986328125,0.4893166124820709,-1.2561720609664917,1.2967039346694946
1782661271931669800,4.371669677734375,0.6249039173126221,-1.5286298990249634,1.6199347972869873
1782661271941740800,4.38174072265625,0.6977427005767822,-1.7284369468688965,2.0050594806671143
1782661271951812900,4.391812744140625,0.7414215207099915,-1.5559499263763428,2.4334917068481445
1782661271961884000,4.4018837890625,0.7354245781898499,-1.128641963005066,2.657646894454956
1782661271971955700,4.411955810546875,0.5190340280532837,-0.7067762017250061,2.389298677444458
1782661271982026800,4.42202685546875,0.15724997222423553,-0.5170605778694153,1.6133716106414795
1782661271992097500,4.43209765625,-0.02198179066181183,-0.5324553847312927,0.6288230419158936
1782661272002169600,4.442169677734375,-0.056431908160448074,-0.4540012776851654,-0.26919758319854736
1782661272012240600,4.45224072265625,-0.08447234332561493,-0.3874731659889221,-0.8504093885421753
1782661272022312700,4.462312744140625,-0.1518132984638214,-0.6325076818466187,-1.0297871828079224
1782661272032383700,4.4723837890625,-0.291999876499176,-1.151309847831726,-0.8268262147903442
1782661272042454800,4.482454833984375,-0.4398905336856842,-1.5211230516433716,-0.3463299572467804
1782661272052526600,4.492526611328125,-0.5559789538383484,-1.6996828317642212,0.33487969636917114
1782661272062597600,4.50259765625,-0.586867094039917,-1.5630688667297363,1.0068514347076416
1782661272072668700,4.512668701171875,-0.5425720810890198,-1.1828875541687012,1.465773582458496
1782661272082740700,4.52274072265625,-0.4477429687976837,-0.7488979697227478,1.5808459520339966
1782661272092811800,4.532811767578125,-0.3658001124858856,-0.38289591670036316,1.3299474716186523
1782661272102883800,4.5428837890625,-0.2882504463195801,-0.02075740322470665,0.8417186737060547
1782661272112954600,4.55295458984375,-0.15830418467521667,0.31525495648384094,0.3192211091518402
1782661272123025700,4.563025634765625,0.02528376132249832,0.6259377598762512,-0.11080775409936905
1782661272133097700,4.57309765625,0.24372009932994843,0.8684537410736084,-0.40776148438453674
1782661272143168800,4.583168701171875,0.42499083280563354,1.115022897720337,-0.5520885586738586
1782661272153240600,4.593240478515625,0.6007971167564392,1.4268431663513184,-0.5389484167098999
1782661272163311600,4.6033115234375,0.783935010433197,1.8082661628723145,-0.3891877233982086
1782661272173382700,4.613382568359375,0.9730127453804016,2.2737717628479004,-0.1407800316810608
1782661272183454700,4.623454833984375,1.1475111246109009,2.7846367359161377,0.21310240030288696
1782661272193525800,4.63352587890625,1.2687283754348755,3.265162229537964,0.6453612446784973
1782661272203597800,4.643597900390625,1.3248845338821411,3.665759563446045,1.0903007984161377
1782661272213668900,4.6536689453125,1.3155500888824463,3.7222561836242676,1.484151840209961
1782661272223739600,4.66373974609375,1.1752526760101318,2.777519702911377,1.774865746498108
1782661272233811700,4.673811767578125,0.934410810470581,1.4751012325286865,1.9625757932662964
1782661272243882800,4.6838828125,0.6535400152206421,0.7713260054588318,2.0290353298187256
1782661272253953800,4.693953857421875,0.33689242601394653,0.49789300560951233,2.066145181655884
1782661272264025600,4.704025634765625,0.10091610997915268,0.5082817077636719,2.0303964614868164
1782661272274096600,4.7140966796875,0.0032742866314947605,0.6635220646858215,1.9262396097183228
1782661272284168700,4.724168701171875,0.053173936903476715,1.1671444177627563,1.82953679561615
1782661272294239700,4.73423974609375,0.15434473752975464,1.3638324737548828,1.801403284072876
1782661272304310800,4.744310791015625,0.2873326241970062,1.541728138923645,1.8536382913589478
1782661272314382800,4.7543828125,0.44219452142715454,1.6280699968338013,1.9759883880615234
1782661272324454000,4.764453857421875,0.6056807041168213,1.4816219806671143,2.113787889480591
1782661272334525700,4.774525634765625,0.7415677905082703,1.035071849822998,2.230721950531006
1782661272344596700,4.7845966796875,0.7762695550918579,0.4478977918624878,2.2754194736480713
1782661272354667800,4.794667724609375,0.7290353775024414,-0.029573747888207436,2.1868884563446045
1782661272364739600,4.804739501953125,0.68257737159729,-0.2361317127943039,2.003472089767456
1782661272374810600,4.814810546875,0.5564717650413513,-0.19437578320503235,1.7294957637786865
1782661272384881700,4.824881591796875,0.27965083718299866,-0.07637616991996765,1.3561168909072876
1782661272394953700,4.83495361328125,-0.06380175054073334,-0.012781483121216297,0.9375151991844177
1782661272405024800,4.845024658203125,-0.2680076062679291,0.07249773293733597,0.5538746118545532
1782661272415096800,4.855096923828125,-0.3124050199985504,-0.031517066061496735,0.23983804881572723
1782661272425168000,4.86516796875,-0.25835084915161133,-0.2808550000190735,-0.06576074659824371
1782661272435239000,4.875239013671875,-0.09433023631572723,-0.6526197791099548,-0.32613223791122437
1782661272445310700,4.885310791015625,0.14883500337600708,-1.2153884172439575,-0.5377997756004333
1782661272455381500,4.895381591796875,0.3259979486465454,-1.9230939149856567,-0.7213510274887085
1782661272465453600,4.90545361328125,0.35745519399642944,-2.3806509971618652,-0.8714579939842224
1782661272475524600,4.915524658203125,0.2561527192592621,-2.2549939155578613,-1.04319167137146
1782661272485595600,4.925595703125,0.04595261812210083,-1.5766558647155762,-1.3398948907852173
1782661272495667700,4.935667724609375,-0.2557782828807831,-0.6276889443397522,-1.8025388717651367
1782661272505738800,4.94573876953125,-0.6284781098365784,0.23801228404045105,-2.3810572624206543
1782661272515809800,4.955809814453125,-0.9776395559310913,0.824959397315979,-2.9330639839172363
1782661272525881900,4.9658818359375,-1.1777616739273071,1.0189075469970703,-3.275477170944214
1782661272535953000,4.975952880859375,-1.164921760559082,0.8050584197044373,-3.3061814308166504
1782661272546024700,4.986024658203125,-0.9749301671981812,0.26887673139572144,-3.0410704612731934
1782661272556095700,4.996095703125,-0.6829911470413208,-0.4196428656578064,-2.563683032989502
1782661272566166500,5.00616650390625,-0.4113311469554901,-1.0293453931808472,-2.005021095275879
1782661272576238600,5.016238525390625,-0.2644253671169281,-1.374018669128418,-1.524166464805603
1782661272586309600,5.0263095703125,-0.2211223691701889,-1.37397301197052,-1.2064671516418457
1782661272596381700,5.036381591796875,-0.21337808668613434,-1.09260892868042,-1.0461530685424805
1782661272606452700,5.04645263671875,-0.22935731709003448,-0.7343940734863281,-0.9384860396385193
1782661272616523800,5.056523681640625,-0.23455849289894104,-0.4242919087409973,-0.7568824887275696
1782661272626595800,5.066595947265625,-0.20447489619255066,-0.2183224856853485,-0.4496133625507355
1782661272636667000,5.0766669921875,-0.17416922748088837,-0.14069297909736633,-0.04758703336119652
1782661272646737000,5.08673681640625,-0.17588962614536285,-0.1641671359539032,0.35620546340942383
1782661272656809000,5.09680908203125,-0.17963987588882446,-0.2532981038093567,0.6889131665229797
1782661272666880000,5.1068798828125,-0.19171197712421417,-0.37354302406311035,0.9017152190208435
1782661272676951800,5.116951904296875,-0.20748326182365417,-0.49258825182914734,1.0125088691711426
1782661272687022800,5.12702294921875,-0.21345806121826172,-0.5649431943893433,1.0733275413513184
1782661272697094000,5.137093994140625,-0.20550420880317688,-0.5670794248580933,1.1378090381622314
1782661272707166000,5.147166015625,-0.19254153966903687,-0.4719736576080322,1.2246065139770508
1782661272717236700,5.15723681640625,-0.189473494887352,-0.2725392282009125,1.2868810892105103
1782661272727307800,5.167307861328125,-0.21171461045742035,0.004026069305837154,1.3094761371612549
1782661272737379800,5.1773798828125,-0.24898530542850494,0.30409395694732666,1.2873231172561646
1782661272747451000,5.187450927734375,-0.29648199677467346,0.5741680264472961,1.263048768043518
1782661272757523000,5.19752294921875,-0.3417670726776123,0.7463461756706238,1.2551239728927612
1782661272767594000,5.207593994140625,-0.3692988157272339,0.7699884176254272,1.3006490468978882
1782661272777665000,5.2176650390625,-0.35579586029052734,0.6941843628883362,1.3812530040740967
1782661272787736800,5.22773681640625,-0.3075377643108368,0.5864754319190979,1.4581959247589111
1782661272797807900,5.237807861328125,-0.22587399184703827,0.47206592559814453,1.4897196292877197
1782661272807878700,5.247878662109375,-0.10167215019464493,0.3782941699028015,1.483109712600708
1782661272817951000,5.257950927734375,0.06494580209255219,0.28900519013404846,1.4661285877227783
1782661272828021800,5.268021728515625,0.21803468465805054,0.24743112921714783,1.4693347215652466
1782661272838093800,5.27809375,0.30155569314956665,0.28955861926078796,1.5030848979949951
1782661272848164900,5.288164794921875,0.30099618434906006,0.4321828782558441,1.5240063667297363
1782661272858236000,5.29823583984375,0.24773284792900085,0.6384626030921936,1.5013078451156616
1782661272868307700,5.3083076171875,0.1949964016675949,0.9109322428703308,1.431175947189331
1782661272878375700,5.318375732421875,0.24003630876541138,1.275037169456482,1.3314464092254639
1782661272888447700,5.32844775390625,0.3269343376159668,1.4590225219726562,1.192442774772644
1782661272898518800,5.338518798828125,0.24912671744823456,1.1419295072555542,0.9538165330886841
1782661272908590800,5.3485908203125,-0.06748451292514801,0.5002080798149109,0.6454078555107117
1782661272918662000,5.358661865234375,-0.4394413232803345,0.07155170291662216,0.44085004925727844
1782661272928733000,5.36873291015625,-0.6188095211982727,0.11495483666658401,0.38276782631874084
1782661272938805000,5.378804931640625,-0.6224888563156128,0.10288361459970474,0.3312801122665405
1782661272948876000,5.3888759765625,-0.5479264855384827,-0.07132706791162491,0.20747587084770203
1782661272958946800,5.39894677734375,-0.3296571373939514,-0.4189912676811218,0.01950507052242756
1782661272969019000,5.409018798828125,-0.026746513321995735,-1.0539740324020386,-0.22548045217990875
1782661272979089700,5.419089599609375,0.2116829752922058,-1.6116607189178467,-0.4720364212989807
1782661272989161700,5.42916162109375,0.3064310550689697,-1.753354549407959,-0.7063762545585632
1782661272999232800,5.439232666015625,0.2630003094673157,-1.3665107488632202,-0.9173327684402466
1782661273009303800,5.4493037109375,0.15877164900302887,-0.6654143929481506,-1.1324114799499512
1782661273019375900,5.4593759765625,0.04823267087340355,-0.08521034568548203,-1.3412468433380127
1782661273029447000,5.469447021484375,-0.08507212996482849,0.15034331381320953,-1.538356900215149
1782661273039518000,5.47951806640625,-0.2160758525133133,0.12210045754909515,-1.6825485229492188
1782661273049589800,5.48958984375,-0.33131933212280273,-0.09641590714454651,-1.7904469966888428
1782661273059660800,5.499660888671875,-0.419695645570755,-0.4208644926548004,-1.8866126537322998
1782661273069732900,5.50973291015625,-0.4295687675476074,-0.7428861856460571,-1.9647843837738037
1782661273079804000,5.519803955078125,-0.36565741896629333,-0.961154043674469,-1.9958438873291016
1782661273089874700,5.529874755859375,-0.2958463728427887,-1.0786479711532593,-1.9507040977478027
1782661273099946800,5.53994677734375,-0.25623199343681335,-1.1574689149856567,-1.8071714639663696
1782661273110017800,5.550017822265625,-0.21277424693107605,-1.2719289064407349,-1.5388047695159912
1782661273120088800,5.5600888671875,-0.13218653202056885,-1.4192079305648804,-1.1546896696090698
1782661273130161000,5.570160888671875,-0.0802740678191185,-1.5335015058517456,-0.7230666875839233
1782661273140232000,5.58023193359375,-0.09724490344524384,-1.5083327293395996,-0.31177932024002075
1782661273150303000,5.590302978515625,-0.17928864061832428,-1.2440075874328613,-0.007464943453669548
1782661273160374800,5.600374755859375,-0.29163801670074463,-0.8055358529090881,0.1444951593875885
1782661273170445800,5.61044580078125,-0.3712974190711975,-0.2951820492744446,0.21052983403205872
1782661273180518000,5.620517822265625,-0.3870013952255249,0.20872698724269867,0.28594955801963806
1782661273190589000,5.6305888671875,-0.3381214737892151,0.6186662912368774,0.4215973913669586
1782661273200659700,5.64065966796875,-0.26877349615097046,0.8931357264518738,0.6162683963775635
1782661273210731800,5.650731689453125,-0.20322540402412415,1.0156736373901367,0.835597813129425
1782661273220802800,5.660802734375,-0.09003830701112747,1.0277962684631348,1.055513858795166
1782661273230873900,5.670873779296875,0.0511515736579895,0.9413313865661621,1.225356101989746
1782661273240946000,5.68094580078125,0.16114430129528046,0.8529872894287109,1.2681283950805664
1782661273251017000,5.691016845703125,0.07054942101240158,1.1538957357406616,1.6517194509506226
1782661273261088800,5.7010888671875,-0.09239780157804489,0.794642984867096,1.746930480003357
1782661273271159800,5.711159912109375,-0.16261205077171326,0.3972514569759369,1.5208337306976318
1782661273281230800,5.72123095703125,-0.1786394864320755,0.2535848319530487,1.109591007232666
1782661273291303000,5.731302978515625,-0.21586117148399353,0.39083132147789,0.7510935068130493
1782661273301374000,5.7413740234375,-0.2536980211734772,0.5983962416648865,0.4577000141143799
1782661273311444700,5.75144482421875,-0.31874924898147583,0.6088508367538452,0.26007279753685
1782661273321516800,5.761516845703125,-0.4371294379234314,0.42697131633758545,0.1773717999458313
1782661273331587800,5.771587890625,-0.6120761036872864,0.15388688445091248,0.2567145526409149
1782661273341660000,5.781659912109375,-0.6952165365219116,0.06109701097011566,0.6984959244728088
1782661273351731000,5.79173095703125,-0.7057686448097229,0.05437754839658737,1.3983416557312012
1782661273361802000,5.801802001953125,-0.6397179961204529,-0.21006368100643158,2.1319546699523926
