time,seconds_elapsed,z,y,x
1782811084595430000,0.077429931640625,0.27964053272306916,0.13430910172462462,-0.1884963267251849
1782811084605501000,0.0875009765625,0.3429594509452581,0.1692299007192254,-0.27426274867486206
1782811084615573000,0.097572998046875,0.43581659834086894,0.12433102080672978,-0.39343404863085596
1782811084625644000,0.10764404296875,0.562586536732316,0.06767886699736118,-0.5197080201989039
1782811084635715000,0.117715087890625,0.6668301705390215,0.12531857053935527,-0.5653554169237613
1782811084645787000,0.127786865234375,0.7396879014790058,0.19510288538336754,-0.5080206876777112
1782811084655858000,0.13785791015625,0.8568781106203794,0.2779755221202969,-0.461207827370055
1782811084665930000,0.147929931640625,1.0300158324331044,0.24559680882394314,-0.4441983865106478
1782811084676000800,0.158000732421875,1.2718880677759647,0.2531207745879888,-0.40410263256356116
1782811084686071800,0.16807177734375,1.4886094952493905,0.31185967154353855,-0.2836371646111831
1782811084696144000,0.178143798828125,1.6500363210022448,0.38324294601678843,-0.22614545470513403
1782811084706215000,0.18821484375,1.5147528212875128,0.4539060895219445,-0.2572862054380588
1782811084716286000,0.198285888671875,1.3923381554961203,0.5253668131455779,-0.3444723397262394
1782811084726358000,0.20835791015625,1.2698217828959226,0.6169219380319119,-0.44262043313682076
1782811084736429000,0.218428955078125,1.137364446517825,0.7616893054068088,-0.4729881719369441
1782811084746500000,0.2285,1.2182991009294986,0.8747408073082565,-0.37835247056148946
1782811084756572000,0.238572021484375,1.3241279581010341,1.064470767481625,-0.3034149559390731
1782811084766642700,0.248642578125,1.334917063140869,1.2537477231904863,-0.25091796731408683
1782811084776713700,0.258713623046875,1.2726514533638953,1.524972309745848,-0.2705427417710423
1782811084786785800,0.268785888671875,1.3101491171091795,1.6901961896941065,-0.40684952011890707
1782811084796856800,0.27885693359375,1.2100304542779923,2.0545365745812654,-0.17491119775865227
1782811084806928000,0.288927978515625,1.3080968607544898,2.543894501234591,0.0077586330364458255
1782811084817000000,0.299,1.5769523800909517,1.4821680640250443,-0.6298351956188678
1782811084827071000,0.309071044921875,1.6737831072926521,0.41722208024710417,-1.3525780997768044
1782811084837143000,0.31914306640625,1.6951695941925047,0.10779489654749631,-1.5407019399277866
1782811084847214000,0.329214111328125,1.6165075608879327,0.21983809818923472,-1.541699864923954
1782811084857285000,0.33928515625,1.4328811782866715,0.21289631622731683,-1.748028054807335
1782811084867357000,0.34935693359375,1.203800035455823,0.277199569311738,-1.96117045475021
1782811084877427700,0.359427734375,0.9730834003776311,0.5951315465062856,-1.8925512381628156
1782811084887499000,0.3694990234375,0.7957920660167932,0.9633727382242679,-1.7905359479300678
1782811084897571000,0.379571044921875,0.608652122336626,1.1919269345715642,-1.750267212036252
1782811084907642000,0.38964208984375,0.4029986168444156,1.2053507720291614,-1.7238798481091855
1782811084917713000,0.399712890625,0.40902796013653275,1.0863880002573132,-1.672133440389484
1782811084927785000,0.409784912109375,0.5060983413130045,0.8485197398588061,-1.7214305552609264
1782811084937856000,0.41985595703125,0.6095575467437505,0.6419575950890779,-1.6704010636389255
1782811084947927000,0.429927001953125,0.659488575604558,0.5479059772118926,-1.4997364539414644
1782811084957999000,0.4399990234375,0.6707838766008615,0.6544803920537233,-1.298181469809264
1782811084968070100,0.450070068359375,0.6152256555080413,0.940125133627653,-1.0871367727980017
1782811084978142000,0.460141845703125,0.5630886410355568,1.223917525333166,-0.903269347982481
1782811084988213000,0.470212890625,0.7658890951842069,1.3202072775259612,-0.6330829453684389
1782811084998284000,0.480283935546875,0.5730255131602287,1.474022459231317,-0.2455420464294031
1782811085008356000,0.490356201171875,0.11934943300187587,1.3496382469326258,-0.09792066872972063
1782811085018427000,0.500427001953125,-0.10452069718241691,0.9363926691010593,0.0289294222258497
1782811085028498000,0.510497802734375,-0.048942017823457716,0.6964568086482584,0.2812852311901748
1782811085038570000,0.520570068359375,-0.0048895256072282785,0.4851221887797117,0.4498612711105495
1782811085048641000,0.53064111328125,-0.16889993811249732,0.2828803914271295,0.4988927938483655
1782811085058712000,0.540712158203125,-0.24549510201513766,0.22033406501263378,0.37526181106977163
1782811085068783900,0.550783935546875,-0.2247837378978729,0.19630656208470462,0.3269083337239921
1782811085078855000,0.56085498046875,-0.41039807944595813,0.085932024307549,0.3083839582569897
1782811085088926000,0.570926025390625,-0.8328104218125343,-0.10918927351534366,0.34521577850468455
1782811085098998000,0.580998046875,-1.337399527606368,-0.22265388626232743,0.4161230329640209
1782811085109069000,0.591069091796875,-1.732325897154212,-0.0980289970755577,0.5138105961907655
1782811085119139800,0.601139892578125,-1.8589672407299278,0.152402684558928,0.7125155977193266
1782811085129212000,0.6112119140625,-1.894892540591955,0.290571676582098,0.9184920515555888
1782811085139283000,0.621282958984375,-1.8038251992225647,0.21860621830672025,1.0227258215554058
1782811085149355000,0.63135498046875,-1.6224322747617959,-0.06456847989186644,1.0284399614185094
1782811085159426000,0.641426025390625,-1.5235937148690222,-0.43514585947245354,0.8993224369876086
1782811085169497000,0.6514970703125,-1.4223925174981356,-0.6398324196286499,0.772547091768682
1782811085179569000,0.66156884765625,-1.1914859128057955,-0.6672106942892074,0.8006140793457627
1782811085189640000,0.671639892578125,-0.9494517648994922,-0.6488385867744684,0.9301770825218408
1782811085199711000,0.6817109375,-0.9954758494496345,-0.6720340227924287,1.0796794425293803
1782811085209783000,0.691782958984375,-1.3205489305704832,-0.6855363323137164,1.1516403707601128
1782811085219854000,0.70185400390625,-1.7079811449706555,-0.688221114418283,1.1330333585109562
1782811085229924900,0.7119248046875,-1.9496955594033,-0.6659096216280013,1.087441527898237
1782811085239997000,0.721996826171875,-2.0746885512501,-0.5950050705824047,1.0513666634976864
1782811085250068000,0.73206787109375,-1.9766554625213144,-0.5498397217534482,1.0947964937709271
1782811085260139000,0.742138916015625,-1.7009107681930065,-0.5421053281091154,1.2797677151098847
1782811085270211000,0.752211181640625,-1.5131617527037857,-0.6472755021762102,1.4093604558371007
1782811085280282000,0.7622822265625,-1.4405571197420357,-0.7328366473447531,1.4796059584520755
1782811085290353200,0.772353271484375,-1.4311708672374486,-0.7561687884196638,1.527173326921463
1782811085300425000,0.782425048828125,-1.6179945845752954,-0.760524864737317,1.4818968458682298
1782811085310496000,0.79249609375,-1.8800597131192682,-0.7149646713718771,1.3589172396704554
1782811085320568000,0.802568115234375,-1.9381278712064027,-0.6852349382143468,1.1955277355425058
1782811085330639000,0.81263916015625,-1.7415461454421282,-0.7226758302710949,1.0744044247359037
1782811085340710000,0.8227099609375,-1.3862912765473125,-0.8100039851121604,1.1112603565115482
1782811085350782000,0.832781982421875,-1.2223925077229738,-0.9806615805469453,1.2361644279658794
1782811085360853000,0.84285302734375,-1.348578508746624,-1.0851420918494463,1.2678636345654726
1782811085370924000,0.852924072265625,-1.4466858317553997,-1.0834336074311286,1.1311803510554135
1782811085380996000,0.86299609375,-1.3610177190810442,-1.031229299876094,0.9354982775446027
1782811085391067100,0.873067138671875,-1.1500678607463837,-1.0139467411637306,0.7834220484610647
1782811085401138200,0.88313818359375,-0.8695248262256383,-0.994267861899361,0.7309099901311099
1782811085411210000,0.8932099609375,-0.49437049411833284,-0.9918066594175994,0.7460241918284446
1782811085421281000,0.903281005859375,-0.3090010672420263,-0.9948917659513652,0.7361060974694787
1782811085431351800,0.913351806640625,-0.2952688944876194,-0.956931380065158,0.6624666415672749
1782811085441424000,0.923423828125,-0.24862054055929184,-0.9163065972752868,0.5632829945638775
1782811085451495000,0.933494873046875,-0.12659925799965857,-0.9132816234309226,0.4646493826586753
1782811085461567000,0.94356689453125,-0.07826806555092335,-0.9831112387213855,0.3093140787139535
1782811085471638000,0.953637939453125,0.07362871531248093,-0.9311363560080528,0.16038243126645682
1782811085481709000,0.963708984375,-0.05124269598126411,-0.9544494270563125,0.04215761838033795
1782811085491781000,0.973781005859375,-0.23221710276901722,-0.9143781134307384,-0.06973565339669585
1782811085501852200,0.98385205078125,-0.29479543175697326,-0.8087930749524385,-0.13406155670434236
1782811085511923200,0.993923095703125,-0.3037614130228758,-0.655815293919295,-0.09918415846005081
1782811085521995000,1.0039951171875,-0.20435119072198868,-0.4746408710474148,0.019536694314703344
1782811085532066000,1.014066162109375,0.021594576692581177,-0.391900482388027,0.1326697370197624
1782811085542136800,1.02413671875,0.1503355228960514,-0.5865854346202686,0.039580680564418436
1782811085552209000,1.034208984375,0.1276134034782648,-0.8942569702915847,-0.25300518538430333
1782811085562280000,1.044280029296875,0.07108136891722679,-1.0881560328431428,-0.585496653002873
1782811085572351000,1.05435107421875,0.014165303474664687,-1.0847313921567052,-0.8451553779922425
1782811085582423000,1.064423095703125,-0.07590776616036891,-1.0562165877468883,-1.0058027438051997
1782811085592494000,1.074494140625,-0.26725860553383823,-0.978286814239621,-0.9983198407039046
1782811085602565000,1.084565185546875,-0.5159855290770531,-0.7506481983672827,-0.8493939654100686
1782811085612637000,1.094636962890625,-0.6717056676208972,-0.44044604823980477,-0.5587503926355392
1782811085622708000,1.1047080078125,-0.7475608268111944,-0.18013481415845453,-0.2154492886457592
1782811085632780000,1.114780029296875,-0.6627899552375078,0.04968447022121399,0.10835055766887962
1782811085642851000,1.12485107421875,-0.40045302401483057,0.20158066656272858,0.35719328961148855
1782811085652921900,1.134921875,-0.11370938128829002,0.18694796477202325,0.4761887946091592
1782811085662994000,1.144993896484375,-0.11987258009314536,0.08630981724453159,0.5264741168003529
1782811085673065000,1.15506494140625,-0.3134767513513565,0.06869943765017669,0.5734726724058389
1782811085683136000,1.165135986328125,-0.48899347725510595,0.11420461745932697,0.5853501572042703
1782811085693208000,1.1752080078125,-0.5276876573085785,0.16764851327929645,0.5845215974256396
1782811085703279000,1.185279052734375,-0.34310733498334883,0.21409126163292674,0.5520049369633198
1782811085713350100,1.19535009765625,0.021034604722261426,0.1600398283738643,0.4736874062474817
1782811085723422000,1.205421875,0.3285433875799179,0.09237855183212086,0.409381888140738
1782811085733493000,1.215492919921875,0.4941442841470241,0.06358862940850667,0.38118535589985547
1782811085743564000,1.22556396484375,0.53288814856112,-0.0502406153997872,0.3023770459923893
1782811085753636000,1.235635986328125,0.4738981994539499,-0.14182061899905093,0.18805618174225092
1782811085763707000,1.245706787109375,0.41159401123225686,-0.18327225366765632,0.08982084843963384
1782811085773779000,1.255779052734375,0.40828678638041016,-0.298463123951666,-0.10309599814154208
1782811085783850000,1.26585009765625,0.4179688069611788,-0.37189386900663374,-0.2656373610075563
1782811085793921000,1.275921142578125,0.3510094864100218,-0.3757414843454957,-0.321827231067419
1782811085803993000,1.2859931640625,0.2382692424148321,-0.32394623251538723,-0.3010863485947251
1782811085814064000,1.296064208984375,0.04061725707054138,-0.299128529057838,-0.256300281406939
1782811085824135200,1.30613525390625,-0.23131401644945143,-0.2182360332874581,-0.1947124978262931
1782811085834207000,1.31620703125,-0.525120437169075,-0.09840972175514325,-0.08512582249119878
1782811085844278000,1.326278076171875,-0.5799176107615233,-0.04210154081154614,-0.007765811695903539
1782811085854348800,1.336348876953125,-0.502896914923191,-0.003986612817598507,0.0375457406707108
1782811085864421000,1.346421142578125,-0.3766688283234834,-0.015681863783765584,0.08976867986097932
1782811085874492000,1.356491943359375,-0.2361211244702339,-0.06376659805760719,0.11184029948078095
1782811085884562700,1.366562744140625,-0.19277122756540774,-0.08194273547567427,0.11784596963636576
1782811085894634800,1.376634765625,-0.3033089930802583,-0.10374432424874976,0.07541559872925281
1782811085904705800,1.386705810546875,-0.48708793589472765,-0.1205900989790447,-0.04900156599096953
1782811085914776800,1.39677685546875,-0.5211696537166833,-0.08696458222568035,-0.2211003001447767
1782811085924849000,1.406848876953125,-0.400787955057621,-0.016193302170932292,-0.36422026563882826
1782811085934920000,1.416919921875,-0.3220551946043968,0.0037490868678316473,-0.47270570173375304
1782811085944991700,1.42699169921875,-0.2218745724529028,0.001565861077234149,-0.49869602916724975
1782811085955062800,1.437062744140625,-0.03246200766563415,-0.006221577928587794,-0.45411980533786117
1782811085965133600,1.447133544921875,0.23020634746849536,0.027372429441660642,-0.34185587361752984
1782811085975205600,1.45720556640625,0.5288707296133041,0.02220313704498112,-0.1898619890552014
1782811085985276700,1.467276611328125,0.6504553743213415,-0.01893416184429079,-0.09736329970844089
1782811085995347700,1.47734765625,0.5904886891365051,0.014769881771691142,-0.02998319646194577
1782811086005419800,1.487419677734375,0.45743163329958914,0.13022961385864765,0.071342065680027
1782811086015490800,1.49749072265625,0.3669406305134296,0.19713278377577662,0.10942410518452525
1782811086025561900,1.507561767578125,0.33138416396379466,0.268038978789188,0.0718409551128745
1782811086035634000,1.517634033203125,0.3156207776427269,0.30425708758533,0.017758944052457808
1782811086045705000,1.527705078125,0.34745851593017574,0.24997253969013689,-0.03980228742584586
1782811086055775700,1.537775634765625,0.24439444729685783,0.19292397044170648,-0.07662175964862107
1782811086065847800,1.547847900390625,0.014431260934472083,0.15594601972158997,-0.08810352312773466
1782811086075918600,1.557918701171875,-0.08178221115171909,0.12533859041407702,-0.07143558918237686
1782811086085990700,1.56799072265625,0.03901975874602794,0.15042371263615786,-0.014852262825518846
1782811086096061700,1.578061767578125,0.2583025611400604,0.16765311638917774,0.08240545761659741
1782811086106132700,1.5881328125,0.500575193977356,0.14599756675697861,0.25800401658490296
1782811086116204800,1.598204833984375,0.501125229075551,0.10086009231563657,0.36911446742117404
1782811086126275800,1.60827587890625,0.1925643068164587,0.08747494290061295,0.34450653425678607
1782811086136347000,1.618346923828125,-0.2343395017504692,0.09209982622228562,0.2647669348485768
1782811086146418700,1.628418701171875,-0.5451689534634352,0.07924951433632522,0.16499737771600484
1782811086156489700,1.63848974609375,-0.5393786796241998,0.056970572108775375,0.1076017120629549
1782811086166560800,1.648560791015625,-0.42559447953402996,0.023960209845378992,0.07415595405697822
1782811086176632600,1.658632568359375,-0.2970382422477007,-0.0011172953258268535,0.09477321015000342
1782811086186703600,1.66870361328125,-0.12170856334865092,0.0034021731263026594,0.10016381714716553
1782811086196774700,1.678774658203125,0.02975508679449558,-0.026595855578593907,0.07726736407577992
1782811086206846700,1.6888466796875,0.11222235760092734,-0.09078353772563859,0.010917845986038446
1782811086216917800,1.698917724609375,0.1423281575292349,-0.13128621023949236,0.006046148296445608
1782811086226988800,1.70898876953125,0.21237258461415767,-0.1176609136593528,0.051641339910030365
1782811086237060900,1.719060791015625,0.2898135516911745,-0.08536043496467173,0.06268792684227228
1782811086247132000,1.7291318359375,0.3652864335656166,-0.09995033879326656,0.049638767915964124
1782811086257203700,1.73920361328125,0.30973055056035514,-0.11627338655740022,0.024306612130254507
1782811086267274800,1.749274658203125,0.17891981234550475,-0.18323670743023976,-0.004744710309058427
1782811086277345500,1.759345458984375,0.03220540255606174,-0.18291198725420982,-0.002449000587314367
1782811086287417600,1.76941748046875,-0.12099427759945391,-0.13566939375977963,-0.003264554753899574
1782811086297488600,1.779488525390625,-0.18031272800862788,-0.043936391555890436,0.04250906216651201
1782811086307559700,1.7895595703125,-0.07727379381656646,0.0041430180888622995,0.059506812588125464
1782811086317631700,1.7996318359375,0.014067688319087028,-0.03063851856552064,0.058633390754461286
1782811086327702800,1.809702880859375,0.10067337410449981,-0.10992818224914372,0.007797960399836302
1782811086337773800,1.81977392578125,0.19457506211698053,-0.17564090027268975,-0.055864364432543515
1782811086347846000,1.829845947265625,0.2840326302021742,-0.23918898760825394,-0.10321575206369162
1782811086357917000,1.8399169921875,0.3074357176214456,-0.266620490293391,-0.08947320404574274
1782811086367988000,1.849988037109375,0.06837853969931602,-0.26065476855570446,-0.07469751358777284
1782811086378059800,1.860059814453125,-0.1769569878399372,-0.22632344162054358,-0.06884235781878233
1782811086388130600,1.870130615234375,-0.24639234311580657,-0.2062954749238677,-0.06883797390460968
1782811086398202600,1.88020263671875,-0.25741584143340585,-0.24677228234410284,-0.08419000294581055
1782811086408273700,1.890273681640625,-0.23693536346256733,-0.275701001317054,-0.06921572117581963
1782811086418344700,1.9003447265625,-0.2661836697787046,-0.27789799990467723,-0.013537380834668874
1782811086428416800,1.910416748046875,-0.271045138335228,-0.23302655598837882,0.01227101416066289
1782811086438487800,1.92048779296875,-0.238696527916193,-0.23649572993628679,0.011949965512752533
1782811086448558800,1.930558837890625,-0.24031799163818357,-0.2388179623387754,0.03055573565289378
1782811086458631000,1.940630859375,-0.21837913155257702,-0.22117466228893026,0.049125265435874456
1782811086468702000,1.950701904296875,-0.12725392251610756,-0.18605671502072363,0.06869330473691225
1782811086478773000,1.96077294921875,0.002034136176109314,-0.19538446053741498,0.1268815820723772
1782811086488844800,1.9708447265625,0.05241641593575477,-0.21809720933865753,0.14634119256287811
1782811086498915600,1.98091552734375,0.0142214175760746,-0.20332170154377818,0.11759732863754033
1782811086508986600,1.990986572265625,-0.032143443235754965,-0.18470182981304822,0.08490180447697639
1782811086519058700,2.00105859375,-0.04763035070300102,-0.18226508591910823,0.0771491445235908
1782811086529129700,2.011129638671875,-0.03258709535002708,-0.17687826004792004,0.09180690769031644
1782811086539201800,2.021201904296875,0.04044540763497352,-0.1702060888076201,0.10994169931784271
1782811086549272800,2.03127294921875,0.06742401545345783,-0.17304646333269774,0.077627137298882
1782811086559343900,2.04134375,-0.002688216170668602,-0.1511631054271478,0.0460376746840775
1782811086569415700,2.051415771484375,-0.0704056616127491,-0.08577743653403594,0.0484950047083199
1782811086579486700,2.06148681640625,-0.07872866879999638,-0.08011933770710603,0.06456994119659065
1782811086589557800,2.071557861328125,-0.02984744125306606,-0.09190713492808864,0.05910919157266616
1782811086599629800,2.0816298828125,-0.02257306633591652,-0.11101458924636244,0.004562485609948635
1782811086609700600,2.09170068359375,-0.0025748189240694043,-0.13676033080164343,-0.05398030425161123
1782811086619771600,2.101771728515625,0.033491935235261915,-0.11945287511004134,-0.05572948600649833
1782811086629843700,2.11184375,0.06652911244034766,-0.09867043678425252,-0.0459255926117301
1782811086639914800,2.121914794921875,0.06523790358603,-0.06099921570350415,-0.002680763516575098
1782811086649985800,2.13198583984375,0.15827449920177458,-0.06210297569432296,0.025277941380441187
1782811086660057900,2.142057861328125,0.20791268259584902,-0.11587477916125208,0.023550971457362173
1782811086670129000,2.15212890625,0.16949790400564668,-0.13206357868700289,0.04420739051699638
1782811086680200000,2.162199951171875,0.06842120979726314,-0.09812466686922125,0.05497223789840936
1782811086690271700,2.172271728515625,-0.02096563113927841,-0.10202753779296762,0.06097030926942825
1782811086700342500,2.182342529296875,-0.053444589939713474,-0.11043414987674914,0.023713614673167467
1782811086710414600,2.19241455078125,-0.017189619731903076,-0.12974375743730923,-0.007529664852470159
1782811086720485600,2.202485595703125,0.025858079355955122,-0.15042449808744712,-0.017389526218175886
1782811086730556700,2.212556640625,-0.008927402821183204,-0.1354101217690855,0.01774491552710533
1782811086740628700,2.222628662109375,-0.07688274867236614,-0.12622280763639138,0.0023472937785089013
1782811086750699800,2.23269970703125,-0.19419746097624302,-0.12278342603854835,-0.04222030835300684
1782811086760770800,2.242770751953125,-0.20916297491788863,-0.10228889214289374,-0.035725539506226776
1782811086770843000,2.2528427734375,-0.10925649353265762,-0.16698424068428575,-0.04707373973354697
1782811086780914000,2.262913818359375,-0.03666296648681164,-0.18133200632007793,-0.03490487077310681
1782811086790985000,2.27298486328125,-0.004782558101415634,-0.19568638435974717,-0.04211597119569778
1782811086801056800,2.283056884765625,0.034679683715105054,-0.19234975075032562,-0.032722850558906794
1782811086811127600,2.29312744140625,0.03122399030327797,-0.17225808943398296,-0.04326134183853864
1782811086821198600,2.303198486328125,0.0463110847979784,-0.17057835618611425,-0.023779957907646893
1782811086831270700,2.313270751953125,0.0824526577591896,-0.15482476060669867,0.006356967811286449
1782811086841341700,2.323341796875,0.11437924337387084,-0.1418920037348289,0.027557722880691287
1782811086851413800,2.333413818359375,0.08839256920218468,-0.12975605979645624,0.019039046990871427
1782811086861484800,2.34348486328125,0.019926351219415665,-0.15590972456550226,-0.01447451555430889
1782811086871555800,2.353555908203125,-0.03240180191099643,-0.1389384146262426,-0.012181143920123576
1782811086881627600,2.363627685546875,-0.059148354539275166,-0.07929703413932583,-0.0009909107334911823
1782811086891698700,2.37369873046875,-0.052445057508349414,-0.06374583839736879,0.007998159147053957
1782811086901769500,2.38376953125,-0.012653145346045494,-0.09593007030123844,-0.01394450033083558
1782811086911841300,2.39384130859375,0.028074001839756963,-0.14314747455548493,-0.033145898276567456
1782811086921912300,2.403912353515625,0.02421732641160488,-0.17809302439885213,-0.07876008685156703
1782811086931983400,2.4139833984375,0.035998949620127674,-0.18447090713400394,-0.1636348571911454
1782811086942055400,2.424055419921875,0.2018441763371229,-0.1625318643853068,-0.1433518014885485
1782811086952126500,2.43412646484375,0.2845984473913908,-0.08856975239999591,-0.03326221813261509
1782811086962197500,2.444197509765625,0.27498306230604647,0.00006277217105962336,0.10447568899691104
1782811086972269600,2.45426953125,0.2590963418662548,0.05440875879675149,0.3049395168915391
1782811086982340600,2.464340576171875,0.133625795635581,0.05465118011734448,0.42774069778248663
1782811086992412700,2.47441259765625,-0.18295009077489374,0.00016002200045622884,0.42623117000237104
1782811087002483700,2.484483642578125,-0.43315351661145685,-0.07522384814997203,0.32140608304589985
1782811087012554500,2.494554443359375,-0.45285248881578444,-0.11872644226532429,0.1580234470501542
1782811087022626300,2.504626220703125,-0.345919469794631,-0.1724274363852106,-0.02917538721039891
1782811087032697300,2.514697265625,-0.09096329647302627,-0.18426778577733785,-0.11023176830559968
1782811087042768400,2.524768310546875,0.03591302490234375,-0.13612621588287874,-0.039660833128541705
1782811087052840400,2.53484033203125,-0.0256324539065361,-0.08260675234235823,-0.04516717545986175
1782811087062911500,2.544911376953125,-0.09435001630187034,-0.06012673458475619,-0.05308218636810779
1782811087072982500,2.554982421875,-0.03921382001340389,-0.041114411204028874,-0.05425605245307088
1782811087083054600,2.5650546875,0.014129647639393806,-0.04629230703227222,-0.06376973072960973
1782811087093125600,2.575125732421875,0.04774257890582084,-0.04912265335367992,-0.05687208017036319
1782811087103196700,2.58519677734375,0.09182079008519649,-0.06785172107992693,-0.06821648100540041
1782811087113268700,2.595268798828125,0.12487374938130379,-0.0624301892215386,-0.05704524478018284
1782811087123339500,2.605339599609375,0.06588029314279556,-0.04876954733338207,-0.07750263413637876
1782811087133411300,2.615411376953125,0.02860650128126144,-0.03854368393318727,-0.10103592380657792
1782811087143482400,2.625482421875,0.017018354818224907,-0.0567010527187027,-0.1343413965590298
1782811087153553400,2.635553466796875,0.02535188339948654,-0.052481955452635884,-0.12154518948048353
1782811087163625500,2.64562548828125,0.025631284862756728,-0.03876414001714438,-0.09264394303634763
1782811087173696500,2.655696533203125,-0.001373041918873787,-0.049712289809901264,-0.06818579360619187
1782811087183767600,2.665767578125,-0.0387210680603981,-0.041738918044231826,-0.05612359989061951
1782811087193839600,2.675839599609375,-0.02413841595649719,-0.04737588275158777,-0.04506722221672535
1782811087203910700,2.68591064453125,0.02052080998122692,-0.06569920095484703,-0.02201952410638332
1782811087213981700,2.695981689453125,0.1353553959071636,-0.10031904424149543,-0.024134908825159073
1782811087224053500,2.706053466796875,0.28957155962884423,-0.09573089446732774,0.038002398397028445
1782811087234124500,2.71612451171875,0.37617666089236734,-0.11606958934729918,0.08694368556812405
1782811087244195600,2.726195556640625,0.34307577080130575,-0.11223293379386887,0.0858186270609498
1782811087254267400,2.736267333984375,0.19554127680063246,-0.11224343692157417,0.07842004124224186
1782811087264338400,2.74633837890625,-0.006917816564440727,-0.07825971784768626,0.05626490805745125
1782811087274410500,2.756410400390625,-0.1381488260179758,-0.04730838873963803,0.061659460577368735
1782811087284481500,2.7664814453125,-0.21973171520531176,-0.0320352884198539,0.07893295920044183
1782811087294552600,2.776552490234375,-0.24520342559218405,-0.036158725025411696,0.04611424705162644
1782811087304624600,2.786624755859375,-0.2428390345484018,-0.04637547353738919,0.0004116495408117771
1782811087314695700,2.79669580078125,-0.22744974223673342,-0.06916358912978321,-0.05336421817988157
1782811087324766500,2.806766357421875,-0.15719313370585442,-0.07474215644709765,-0.08110548093393445
1782811087334838500,2.816838623046875,-0.046104164049029346,-0.07807899098591879,-0.07195464462041855
1782811087344909300,2.826909423828125,0.0584498508810997,-0.08631989111397415,-0.035449352913349864
1782811087354980400,2.83698046875,0.1269686758339405,-0.08894382814308628,-0.027521920914947984
1782811087365052400,2.847052490234375,0.16131167494058607,-0.10149451776165515,-0.03701499479487538
1782811087375123500,2.85712353515625,0.13247779464423656,-0.09531497061019763,-0.006778115832805633
1782811087385194500,2.867194580078125,0.1230208149909973,-0.04061972302226349,0.0707128278657794
1782811087395266600,2.8772666015625,0.0707277331739664,-0.024829101634398103,0.10915931676849722
1782811087405337600,2.887337646484375,0.039247722283005715,-0.0112604854112491,0.08110635771676898
1782811087415409700,2.89740966796875,-0.0077495912134647365,0.0006120857500471175,0.05243512063622474
1782811087425480700,2.907480712890625,-0.054666825211048126,-0.0003777655375190079,0.03308496186956763
1782811087435551500,2.917551513671875,-0.031226328390836715,-0.04205527225071564,-0.004265986881405115
1782811087445623300,2.927623291015625,0.01624094070494175,-0.07340321772722527,-0.05329904398918152
1782811087455694300,2.9376943359375,0.07469897489249706,-0.08325252116629854,-0.07180734510421752
1782811087465765400,2.947765380859375,0.032813889843225474,-0.06406526134377345,-0.08260843284279108
1782811087475837400,2.95783740234375,0.02904021652340889,-0.02828965388443321,-0.07711334255784749
1782811087485908500,2.967908447265625,0.05274900889098644,-0.01853341728998348,-0.02950023525059223
1782811087495979500,2.9779794921875,0.01993862617909908,-0.02327984463209286,0.013775865765661
1782811087506051600,2.988051513671875,-0.11404022067785262,-0.03480155652910471,0.030024259124696254
1782811087516122600,2.99812255859375,-0.14199264196455477,-0.026679423942510036,0.0026218729361891747
1782811087526193700,3.008193603515625,-0.10516776291429995,-0.05078706116825342,-0.012826309955865143
1782811087536265700,3.018265625,-0.09372691596746444,-0.07553643036363646,-0.003739917180687189
1782811087546336500,3.02833642578125,-0.06554419305622577,-0.07170547389863058,-0.01778919306024909
1782811087556408300,3.038408203125,-0.0062456163913011545,-0.053033579719718546,-0.016978168938308953
1782811087566479400,3.048479248046875,-0.019565116691589356,-0.03390442502629012,0.03510316982418298
1782811087576550400,3.05855029296875,-0.0017009586989879606,-0.02225041025280952,0.04403992499560117
1782811087586622500,3.06862255859375,0.09431962116360663,-0.04344782258765772,0.058886634863167996
1782811087596693500,3.078693603515625,0.13820727820694445,-0.05692207505824044,0.0569018907867372
1782811087606764500,3.0887646484375,0.12115034494400023,-0.07975287901489064,0.02868424269258976
1782811087616836600,3.098836669921875,0.12344751597046852,-0.04104277073992416,0.02468698974996805
1782811087626907600,3.10890771484375,0.055819502377510065,-0.04239115314157679,0.011673048267513513
1782811087636978700,3.118978759765625,-0.04929390000104904,-0.06716129113035277,-0.0033877427421510216
1782811087647050500,3.129050537109375,-0.0986784008949995,-0.07172982288859785,-0.03229688023179769
1782811087657121500,3.13912158203125,-0.11210545322299002,-0.09209089399715885,-0.03193681474775076
1782811087667192600,3.149192626953125,-0.06180968270301818,-0.09694470897018909,-0.022455577436089516
1782811087677264400,3.159264404296875,0.024456395864486693,-0.07120574421556666,0.0069493807464838025
1782811087687335400,3.16933544921875,0.05700432824790477,-0.0404685510485433,0.03791121298223734
1782811087697407500,3.179407470703125,0.04498772723972797,-0.040362423792947084,0.06636573857218027
1782811087707478500,3.189478515625,0.011883330017328261,-0.0724654071541503,0.06048822484090924
1782811087717549600,3.199549560546875,-0.045939913398027415,-0.07297213283358141,0.037556846586614845
1782811087727621600,3.20962158203125,-0.04300970516502857,-0.06047697279453277,-0.003810790459811687
1782811087737692700,3.219692626953125,0.0037292496562004087,-0.05617947653001174,0.03589709668084979
1782811087747763500,3.229763427734375,0.043351065948605536,-0.02425796894924715,0.08517404554709791
1782811087757835500,3.23983544921875,0.0012310030996799469,0.02394345963997766,0.1231260289311409
1782811087767906300,3.24990625,-0.10549860230386257,0.03656807301128283,0.10430004016906022
1782811087777977300,3.259977294921875,-0.11698738004565239,0.049656979426089674,0.06320040640905498
1782811087788049400,3.27004931640625,-0.09866671045720576,-0.0024768567086197435,0.03022635756805539
1782811087798120400,3.280120361328125,-0.07490238851010798,-0.03945453343410045,-0.0069321373507380485
1782811087808191500,3.29019140625,-0.0688502488642931,-0.07903904992341995,-0.0778309893079102
1782811087818263600,3.300263671875,-0.11196692153513431,-0.11957153305364772,-0.13183438217416404
1782811087828334600,3.31033447265625,-0.13165361877977846,-0.15454219907196237,-0.21101400961205363
1782811087838406700,3.32040673828125,-0.0800216312199831,-0.1917259197635576,-0.2664265386238694
1782811087848477700,3.330477783203125,-0.03140694565474987,-0.22069064163165167,-0.2747700040772557
1782811087858548500,3.340548583984375,-0.00803834502696991,-0.22669395543336868,-0.2541505560271442
1782811087868620300,3.350620361328125,0.07776537672579288,-0.20506069069821387,-0.1865790949270129
1782811087878691300,3.36069140625,0.13789689708352088,-0.1829985512928106,-0.12331351432725786
1782811087888762400,3.370762451171875,0.18061960200071334,-0.15778976615844292,-0.07668181927278638
1782811087898834400,3.38083447265625,0.2570738961279392,-0.16584219450969248,-0.05285290765687823
1782811087908905500,3.390905517578125,0.3374053239494562,-0.19626584648182616,-0.044977644237130875
1782811087918976500,3.4009765625,0.36683074039816854,-0.2441280697119422,-0.028642887768894433
1782811087929048600,3.411048583984375,0.3263303877055645,-0.2856937500811182,-0.05314575312361121
1782811087939119600,3.42111962890625,0.2801543274641037,-0.3021539230273105,-0.056200902910530565
1782811087949190700,3.431190673828125,0.15228314983248709,-0.2882974297734909,-0.008212240289151669
1782811087959262700,3.4412626953125,-0.0027168577432632444,-0.2745089054556563,0.06200768949314951
1782811087969333800,3.451333740234375,-0.127775316041708,-0.23562028054231776,0.1171880171842873
1782811087979405600,3.461405517578125,-0.2182704104810953,-0.21408813809407873,0.1510990546144545
1782811087989476400,3.471476318359375,-0.19991934575438497,-0.17380615912619976,0.18898191828504204
1782811087999547400,3.48154736328125,-0.16800035892426968,-0.15377181748766452,0.19678864651322364
1782811088009619500,3.491619384765625,-0.2043716489881277,-0.13928952048569918,0.20854162814915178
1782811088019690500,3.5016904296875,-0.2247837378978729,-0.10121244941726326,0.19957301653474568
1782811088029761500,3.511761474609375,-0.24766893892288205,-0.10437767198253423,0.16727379821538924
1782811088039833600,3.52183349609375,-0.23300854540765284,-0.11311682222262025,0.11398454496785998
1782811088049904600,3.531904541015625,-0.13551613942682741,-0.15514842133680357,0.037514030358195304
1782811088059975700,3.5419755859375,-0.03415186044871807,-0.18636866704672575,-0.02849719568789005
1782811088070047700,3.5520478515625,0.0725099404156208,-0.2262864340784028,-0.12179434193596243
1782811088080118800,3.562118896484375,0.17136486692130565,-0.2119298823479563,-0.09986658776625991
1782811088090189600,3.572189453125,0.2585609198153019,-0.1671431941056624,-0.01187426992803812
1782811088100261400,3.582261474609375,0.32041853331327436,-0.13754695113468915,0.05177431863993406
1782811088110332400,3.59233251953125,0.3258674463689327,-0.1253523997437209,0.062211687632650135
1782811088120403500,3.602403564453125,0.2859615524381399,-0.12192607855685055,0.07198883915096521
1782811088130475500,3.6124755859375,0.1751011308401823,-0.09489018759317695,0.074853873193264
1782811088140546600,3.622546630859375,0.0666805036097765,-0.07939305099286138,0.08038812644481659
1782811088150618600,3.63261865234375,0.0028238252490758895,-0.0665671794284135,0.06716112673357129
1782811088160689700,3.642689697265625,-0.02574409758746624,-0.09673656437853351,0.039668724174052476
1782811088170760700,3.6527607421875,-0.02486789927482605,-0.12106726977042853,-0.009464870698750018
1782811088180832500,3.66283251953125,-0.01159106907248497,-0.1382565789750777,-0.06664397099167108
1782811088190903600,3.672903564453125,-0.018524667727947235,-0.1613822011598386,-0.08193973980098962
1782811088200974600,3.682974609375,-0.05462473963499069,-0.14781422425750643,-0.0672523121483624
1782811088211046400,3.69304638671875,-0.12959259459674358,-0.1337317402280867,-0.030787206321209667
1782811088221117400,3.703117431640625,-0.16513561714291572,-0.0888146670717746,-0.0032739071041345594
1782811088231188500,3.7131884765625,-0.17364450229108333,-0.09141432817615568,0.021449761394411324
1782811088241260500,3.723260498046875,-0.1305892044186592,-0.09863357537258416,0.026929654110223054
1782811088251331600,3.73333154296875,-0.020332009410858155,-0.12416929090637713,0.02087517637684941
1782811088261402600,3.743402587890625,0.09715805945992469,-0.13573696083696557,0.039106852507591244
1782811088271474700,3.753474609375,0.1225853461831808,-0.10446074715610593,0.07021306165009737
1782811088281545700,3.763545654296875,0.043322424376010894,-0.07351807627854869,0.09224325328096747
1782811088291617500,3.773617431640625,-0.06377718338370322,-0.04995132273016497,0.09865969619452952
1782811088301688600,3.7836884765625,-0.12758125477433205,-0.09493446512632071,0.06873407513871789
1782811088311759400,3.79375927734375,-0.08573065651655197,-0.13976923029404134,0.03351063993573188
1782811088321831400,3.80383154296875,-0.033089199653267856,-0.17574322813600302,-0.02913271711245179
1782811088331902500,3.81390234375,0.021257892084121703,-0.17248665575915947,-0.02082183875441551
1782811088341973500,3.823973388671875,0.1436778185725212,-0.16506112713459878,0.04046557364016771
1782811088352045600,3.834045654296875,0.25129122107326984,-0.1437739541570656,0.06827946323901414
1782811088362116600,3.84411669921875,0.24699615422785282,-0.13552516298349945,0.06783961051702499
1782811088372187600,3.854187744140625,0.13948796566724778,-0.12147026108074932,0.047314124360680575
1782811088382259700,3.864259765625,0.04160451454222202,-0.14496605001846327,0.007814327012747526
1782811088392330800,3.874330810546875,-0.0012958850294351577,-0.15763426506947725,0.011147416958212851
1782811088402402600,3.884402587890625,-0.0200467627286911,-0.1397850306513719,0.02637362766265869
1782811088412473300,3.894473388671875,-0.05118482831418514,-0.13724415052952244,0.01003141854032874
1782811088422544400,3.90454443359375,-0.07837035688161849,-0.14526612894358112,-0.012641162647306919
1782811088432616400,3.914616455078125,-0.10258125355243682,-0.14532719321474433,-0.02462561495155096
1782811088442687500,3.9246875,-0.11656944689452647,-0.14285568853467703,-0.04044175437316298
1782811088452758500,3.934758544921875,-0.10580839890539645,-0.14290964721161872,-0.062460547827184194
1782811088462830600,3.94483056640625,-0.03479658809304237,-0.11874479990592225,-0.015260697495937347
1782811088472901600,3.954901611328125,0.016975100198388098,-0.08340482565118,0.026626287249475716
1782811088482972700,3.96497265625,-0.0033387890338897703,-0.05060562192043289,0.0739870272308588
1782811088493044700,3.975044677734375,-0.06329670639038086,-0.04817346287006512,0.057050651607662435
1782811088503115800,3.98511572265625,-0.02006546742916107,-0.052490741547290234,0.05436389674171805
1782811088513186600,3.9951865234375,0.08686930515766143,-0.06391962406169623,0.08085033712908625
1782811088523258400,4.00525830078125,0.20005846196413038,-0.09010994931301101,0.07545973013192415
1782811088533329400,4.015329345703125,0.21163141085803508,-0.08397411343911662,0.10075301521196961
1782811088543401500,4.0254013671875,0.14080430896282195,-0.05738605757448822,0.11581336783021688
1782811088553472500,4.035472412109375,0.05805529860556125,-0.03473828203454613,0.1032758116878569
1782811088563543600,4.04554345703125,-0.042243981489539145,-0.033035770699288695,0.0676519789904356
1782811088573615600,4.05561572265625,-0.16209668783843517,-0.046427112393081185,0.045479602409899234
1782811088583686700,4.065686767578125,-0.2664800223767757,-0.08213723513446748,-0.037134383390843864
1782811088593757700,4.0757578125,-0.26543840436935423,-0.09342946739085019,-0.08463891575708984
1782811088603829500,4.08582958984375,-0.18220540988743303,-0.11460687811728566,-0.09097191817089914
1782811088613900500,4.095900634765625,0.005395721563696861,-0.11153497812496498,-0.08920534688979387
1782811088623971600,4.1059716796875,0.18202303905785083,-0.12364906642455607,-0.03149053228497505
1782811088634043400,4.11604345703125,0.26152327675223347,-0.13521841685557737,0.05781009167283773
1782811088644114400,4.126114501953125,0.2897422400206327,-0.09766825573807582,0.10903583651930093
1782811088654185500,4.136185546875,0.23906828383803366,-0.07660594102498143,0.16153759265094994
1782811088664257500,4.146257568359375,0.12784195153713226,-0.09270226736115292,0.13256094288304449
1782811088674328600,4.15632861328125,0.032578327521681785,-0.12123539287894963,0.07627601495087147
1782811088684399600,4.166399658203125,-0.06346154156327247,-0.1574125120775774,0.007223229251801968
1782811088694471700,4.1764716796875,-0.15564531974196433,-0.17544433652097358,-0.028294951114058494
1782811088704542700,4.186542724609375,-0.2286322300195694,-0.1855582639792934,-0.058468555581569666
1782811088714614500,4.196614501953125,-0.25716391249895093,-0.19011431984845548,-0.06620163405165076
1782811088724685600,4.206685546875,-0.2559755794972181,-0.18729449492106212,-0.03513561078906059
1782811088734756400,4.21675634765625,-0.17000643804967402,-0.199807062752638,0.0015391922660171985
1782811088744828400,4.226828369140625,-0.0691769966006279,-0.16581780898710713,0.07324366151764988
1782811088754899500,4.2368994140625,0.00997545056939125,-0.15836057005003093,0.10513079190477728
1782811088764970500,4.246970458984375,0.09928162748515605,-0.10897606915608048,0.1603938294433057
1782811088775042600,4.25704248046875,0.08021218535602093,-0.04969879100751132,0.24436872833371162
1782811088785113600,4.267113525390625,-0.04353343677818775,-0.033931806223560124,0.24596403470113873
1782811088795184600,4.2771845703125,-0.14158815281689166,-0.08107229105038567,0.17183379960730671
1782811088805256700,4.287256591796875,-0.24685353088676928,-0.1204830766743049,0.07372150816246867
1782811088815327700,4.29732763671875,-0.23503099114596843,-0.1724835870192386,-0.002497808165103197
1782811088825398500,4.3073984375,-0.12845160786807536,-0.18016583035122602,-0.03749795600622892
1782811088835470300,4.31747021484375,-0.01938800655901432,-0.156808646166604,-0.04827975452244281
1782811088845541400,4.327541259765625,0.09834639246165752,-0.13334613844398407,-0.025710925970226523
1782811088855613400,4.337613525390625,0.12165595637857914,-0.10464132788740098,0.02852291465103626
1782811088865684500,4.3476845703125,0.07625497216284274,-0.09136608685394748,0.039987288603931664
1782811088875755500,4.357755615234375,0.06542319702506065,-0.047348282358609134,0.026956249856203793
1782811088885827600,4.36782763671875,0.0021644845575094222,-0.04244545887839049,-0.014876958875358105
1782811088895898400,4.3778984375,-0.03698386900424957,-0.06763097273502498,-0.05732084685117006
1782811088905969400,4.387969482421875,-0.010225625938177108,-0.08608589969500899,-0.06228416834697127
1782811088916041500,4.39804150390625,0.12363865462839603,-0.09659227880332619,-0.07659326420649885
1782811088926112500,4.408112548828125,0.21693068630993365,-0.10153156183641403,-0.05587342452183366
1782811088936183600,4.41818359375,0.20174714570343494,-0.10010898168738931,-0.03748641169890761
1782811088946255400,4.42825537109375,0.1767430528283119,-0.056159657584689555,-0.011775485728681086
1782811088956326400,4.438326416015625,0.0980161375939846,-0.030863742156140503,0.0015993980206549167
1782811088966397400,4.4483974609375,0.04598492158353328,-0.03922222251556814,0.023198358627408742
1782811088976469500,4.458469482421875,0.03098375180661678,-0.027850568347424266,0.01604658717662096
1782811088986540300,4.468540283203125,0.10282967535555362,-0.04863218468930572,0.05576017340570688
1782811088996612400,4.4786123046875,0.14691782340705395,-0.033797822846658526,0.056175768469274044
1782811089006683400,4.488683349609375,0.16692834577858448,-0.03553367019593715,0.021944997565448283
1782811089016754400,4.49875439453125,0.14450433252453804,-0.04426978822872042,0.013136398818343878
1782811089026826500,4.508826416015625,0.10980652863085269,-0.0700127167724073,-0.020700550462305546
1782811089036897500,4.5188974609375,0.11828677220642567,-0.09362166549470276,-0.04196764876618981
1782811089046968600,4.528968505859375,0.08043138106465339,-0.08719477425236255,-0.07760171059668064
1782811089057040400,4.539040283203125,0.06351824018657207,-0.07522266997303813,-0.08620791863948106
1782811089067111400,4.549111328125,0.03984393461048603,-0.08317372030904516,-0.07730199699774384
1782811089077182500,4.559182373046875,0.042938393494486804,-0.05825381685234606,-0.04744958730861544
1782811089087254500,4.569254638671875,0.06283551861941813,-0.07507392741842195,-0.058241907218843696
1782811089097325300,4.5793251953125,0.052671267479658126,-0.09036483738953247,-0.03381020740419626
1782811089107396400,4.589396240234375,0.00372223539352417,-0.10234099678946658,-0.04328048493042588
1782811089117468400,4.599468505859375,-0.05539689305126667,-0.07589651411399245,-0.02243541143089533
1782811089127539500,4.60953955078125,-0.10889233639538287,-0.05688121332488954,-0.006440116050094365
1782811089137611300,4.619611328125,-0.22571371222436426,-0.03331584801599383,0.022092004820704458
1782811089147682300,4.629682373046875,-0.27286709306538104,-0.026234803713858126,-0.038829935262352226
1782811089157753300,4.63975341796875,-0.19470657954216003,-0.0634306715009734,-0.03705181967392564
1782811089167825400,4.649825439453125,-0.08191548214256764,-0.08388088219771161,-0.053692427220940586
1782811089177896400,4.659896484375,0.0172539171397686,-0.11495271414658054,-0.047881402854621405
1782811089187967500,4.669967529296875,0.06957271791994571,-0.11031504440857097,-0.049720893241465086
1782811089198039600,4.68003955078125,0.03720014210343361,-0.11386133871329948,-0.055160015555471176
1782811089208110300,4.6901103515625,-0.003413607835769653,-0.10102732037501409,-0.073711571290344
1782811089218181400,4.700181396484375,-0.026891514056921004,-0.08128830842124297,-0.09528525132536887
1782811089228253400,4.71025341796875,0.014538812962174415,-0.06984351595165207,-0.07921528327316045
1782811089238324500,4.720324462890625,0.03442775478065014,-0.06905744360787794,-0.044412996091693635
1782811089248395500,4.7303955078125,0.07378945883214473,-0.06109707745425403,0.004893324999511241
1782811089258467300,4.74046728515625,0.09810440039932727,-0.05800409814128652,0.03395794531181454
1782811089268538400,4.750538330078125,0.04565525123775005,-0.018959643345419316,0.046584348781406874
1782811089278609400,4.760609375,-0.14408932198286056,0.00018706527100875972,0.004653817155212164
1782811089288681500,4.770681396484375,-0.2911965304821729,0.032966943246778097,-0.05550853673219681
1782811089298752500,4.78075244140625,-0.24708500155508517,0.022389544728863984,-0.09863339270949363
1782811089308824600,4.790824462890625,-0.1646703377187252,-0.030609621264599263,-0.09501754029989241
1782811089318895400,4.800895263671875,-0.06488192975521087,-0.0733298602300696,-0.10642916115224361
1782811089328966400,4.81096630859375,0.07881400899589061,-0.07013906483212486,-0.07135857842341065
1782811089339038500,4.82103857421875,0.13631693441569803,-0.06561245425315573,-0.0585140021584928
1782811089349109500,4.831109619140625,0.15325111808180808,-0.06230009656846523,-0.04584434406906366
1782811089359180500,4.8411806640625,0.11803308970630168,-0.034831166216079144,-0.021889614116400478
1782811089369252400,4.85125244140625,0.020661679756641387,-0.006070570351649075,-0.029056729266792532
1782811089379323400,4.861323486328125,-0.022822657182812688,-0.013494582872558385,-0.024229455240815878
1782811089389394400,4.87139453125,0.008223638466000556,-0.011101257995236664,-0.008690817586332559
1782811089399466500,4.881466552734375,0.031183658292889594,-0.01750113336648792,-0.010433277339488267
1782811089409537300,4.891537353515625,0.05289338579773903,-0.02241517236046493,-0.006032412032037973
1782811089419608300,4.9016083984375,0.03729892630279064,-0.03538949421858415,-0.023363632191717623
1782811089429680400,4.911680419921875,-0.023299042522907255,-0.044746009172033516,-0.03491977608129382
1782811089439751400,4.92175146484375,-0.002592354580760002,-0.07407134451344609,-0.04286868925914168
1782811089449823500,4.931823486328125,0.0824655172407627,-0.08659923777831718,-0.040720571314543486
1782811089459894500,4.94189453125,0.11914017416536807,-0.09764602563995868,-0.005394698650389909
1782811089469965600,4.951965576171875,0.11322539716362953,-0.0959287733932957,0.01663330102339387
1782811089480037400,4.962037353515625,0.06984978129565715,-0.06913471009517089,0.03539996081367135
1782811089490108400,4.9721083984375,0.032629765447974204,-0.04257228186214342,0.04849778118729591
1782811089500179500,4.982179443359375,0.033680735805630684,-0.04708347567627206,0.04435527455508709
1782811089510251500,4.99225146484375,0.04673310960233211,-0.06482088375035673,0.04528963279575109
1782811089520322300,5.002322265625,0.011550152540206908,-0.06668928970443085,0.03569908989071846
1782811089530393300,5.012393310546875,-0.06561550472676754,-0.06385044954931363,0.039985827299207445
1782811089540465400,5.02246533203125,-0.13525719622969626,-0.0206323988632299,0.05724105961322784
1782811089550536400,5.032536376953125,-0.09763912097513675,-0.06367122052488848,0.05214344421327114
1782811089560607500,5.042607421875,-0.041344986823201174,-0.04768518616277724,0.04448372324034571
1782811089570679600,5.052679443359375,-0.018976503148674963,-0.045306383001152424,0.022615298042446375
1782811089580750600,5.06275048828125,-0.010285831692814827,-0.08341598636601119,0.00963452817723155
1782811089590822400,5.072822509765625,-0.01462181507050991,-0.0986814148359932,-0.03363616601154208
1782811089600893400,5.0828935546875,0.04948854579031467,-0.09067976682391017,-0.020099369698762894
1782811089610964500,5.092964599609375,0.13642507096529005,-0.07203105259118601,0.0019395897604525087
1782811089621036500,5.10303662109375,0.1802858400017023,-0.04517930428907275,0.03205766464844346
1782811089631107300,5.113107421875,0.1895972737044096,-0.0402832028105855,0.058840311503410334
1782811089641178400,5.123178466796875,0.0989700773179531,-0.03736218253104016,0.05175020711198449
1782811089651250400,5.13325048828125,-0.02261398286819458,-0.047186168865766376,0.006618395226448774
1782811089661321500,5.143321533203125,-0.1254997723251581,-0.047376083680987356,-0.04744768761247396
1782811089671392500,5.153392578125,-0.12856968128979204,-0.06154021811187267,-0.05573240861594676
1782811089681464300,5.16346435546875,-0.048618777218461036,-0.06392643739497289,-0.043830666159093375
1782811089691535400,5.173535400390625,0.007173837152123451,-0.046832953247614204,0.0024545535452663897
1782811089701606400,5.1836064453125,0.034354105022549625,-0.04155013574017211,0.0018006196811795234
1782811089711678500,5.193678466796875,0.011426233899593352,-0.06434099127892405,-0.07258738956600427
1782811089721749500,5.20374951171875,0.02297346383035183,-0.11138745941305532,-0.10271364776045083
1782811089731821600,5.213821533203125,0.02893207997381687,-0.10829460796425118,-0.1754055206142366
1782811089741892400,5.223892333984375,0.11371814911663532,-0.09484410169543697,-0.15735022396370768
1782811089751963400,5.23396337890625,0.28060090218782424,-0.11549496779711917,-0.07641381598636507
1782811089762035500,5.244035400390625,0.36439503768384457,-0.13329057233184574,-0.0034513094976544377
1782811089772106500,5.2541064453125,0.31129590018093584,-0.14101824397444723,0.033509617022424935
1782811089782177500,5.264177490234375,0.20527005913257598,-0.10160080941403284,0.0362387497253716
1782811089792249300,5.274249267578125,0.0037923780202865597,-0.0689204280236736,0.03485051023736596
1782811089802320400,5.2843203125,-0.32846213903725147,-0.06666294968677684,-0.0024959084689617156
1782811089812391400,5.294391357421875,-0.5679506941139698,-0.07170320887630804,-0.061239919991046186
1782811089822463500,5.30446337890625,-0.6114706868886948,-0.07780247559947892,-0.10905804835110902
1782811089832534300,5.3145341796875,-0.4448544757992029,-0.11742509560948237,-0.06478942916616796
1782811089842604300,5.324604248046875,-0.19701777909398077,-0.1472797337883152,-0.012038374448567628
1782811089852675300,5.33467529296875,0.01690437304973602,-0.16076483644647524,0.05592340114340186
1782811089862746400,5.344746337890625,0.2621019534230232,-0.12989154101070016,0.1404636788316071
1782811089872818400,5.354818359375,0.3954425023764372,-0.12725078071095047,0.1896026805318892
1782811089882889500,5.364889404296875,0.38080373617112634,-0.1022836771116592,0.20471403268501162
1782811089892961000,5.3749609375,0.20891221502721308,-0.052998618004191665,0.2180889164343476
1782811089903033000,5.385033203125,0.05157996511161327,-0.05245314948325976,0.20842443151026963
1782811089913104100,5.395104248046875,-0.013172785305976866,-0.05747832070151344,0.16534969828501342
1782811089923175200,5.405175048828125,-0.03995382472574711,-0.0927585458593443,0.1404272923439741
1782811089933247000,5.4152470703125,-0.004686111989617347,-0.1403003780286759,0.10284399614185094
1782811089943318000,5.425318115234375,0.08212240289151668,-0.1566687262392603,0.07972410957813263
1782811089953389000,5.43538916015625,0.12999006948173045,-0.17859965874673797,0.05217383935153484
1782811089963461000,5.445461181640625,0.10154898789525031,-0.17739048388637602,0.01941372552216053
1782811089973532200,5.4555322265625,0.025448914033174515,-0.14303133736252785,0.01567307768911123
1782811089983604200,5.465604248046875,-0.0773246472209692,-0.12511712054996751,0.02367664366364479
1782811089993675300,5.47567529296875,-0.20466332541108131,-0.08619659352786839,0.059399845082312816
1782811090003746000,5.48574609375,-0.25021394723057744,-0.10348423027414828,0.01615837698802352
1782811090013818000,5.495818115234375,-0.12015665773153304,-0.16752163549661636,-0.070407707439363
1782811090023889200,5.50588916015625,-0.025053192713856694,-0.18466374455867335,-0.08942410420700907
1782811090033960200,5.515960205078125,-0.005156067588925361,-0.16072821249682456,-0.08876549416780471
1782811090044032000,5.526031982421875,-0.012390110495686531,-0.1294002503624186,-0.07617650009915232
1782811090054103000,5.53610302734375,-0.050015200012922284,-0.12333589968900195,-0.02312251691222191
1782811090064174000,5.546174072265625,-0.05906769051849842,-0.08493744204593821,0.026359453006833792
1782811090074246100,5.55624609375,-0.02974456540048122,-0.06801310392040759,0.02051788737177849
1782811090084317200,5.566317138671875,0.004400865307450294,-0.08440411148737184,0.014351327566057443
1782811090094388200,5.57638818359375,-0.04253507339060306,-0.10788979915617965,-0.04959492877423763
1782811090104460300,5.586460205078125,-0.1391109490483999,-0.03741923734736629,-0.05081044204384088
1782811090114531000,5.596531005859375,-0.22084639844894408,-0.02320350059340708,-0.036234658072143794
1782811090124603100,5.60660302734375,-0.16296820997595787,-0.07438304994427598,-0.10586056748405098
1782811090134674200,5.616674072265625,-0.025446575945615765,-0.14174236613106914,-0.14139555285423994
1782811090144745200,5.6267451171875,0.0033639234751462934,-0.14375518552451394,-0.13001710361912847
1782811090154817000,5.636817138671875,-0.18481413108110425,-0.05753948543737642,-0.03717179279178381
1782811090164888000,5.64688818359375,-0.4581476726144552,0.015427898155851289,-0.0473122246645391
1782811090174959000,5.656958984375,-0.5236883585393428,0.09145369207216426,-0.0767914171271026
1782811090185031200,5.66703125,-0.691204733338952,0.12373442488675937,-0.143911335067451
1782811090195102200,5.677102294921875,-0.3830710965812206,0.040350477626826614,-0.1943720868907869
1782811090205173200,5.68717333984375,-0.015816577813029288,-0.08331077242586761,-0.17457374596521258
1782811090215245300,5.697245361328125,0.20493921974301338,-0.19492919105058534,-0.24962094977349042
1782811090225316000,5.707316162109375,0.32967736004590986,-0.22777181379795072,-0.24655031015649437
1782811090235387100,5.71738720703125,0.4299357236087322,-0.21378383965156972,-0.21971052628681062
1782811090245459200,5.727459228515625,0.7508838337540626,-0.2398867606140673,-0.10331994309052825
1782811090255530200,5.7375302734375,1.1745382851362227,-0.18706939919460563,0.1316530342578888
1782811090265601300,5.747601318359375,1.3580822501510381,-0.028661081012710928,0.39170580006614325
1782811090275673000,5.757673095703125,1.0829168170154093,0.09281299772663042,0.5505468471094965
1782811090285744000,5.767744140625,0.9178618638932704,0.13672957033719868,0.6034694590017199
