time,seconds_elapsed,z,y,x
1782811084595430000,0.077429931640625,-0.04484632983803749,0.05505228415131569,0.18915337324142456
1782811084605501000,0.0875009765625,-0.03600969538092613,0.15249842405319214,0.2081611454486847
1782811084615573000,0.097572998046875,-0.05398121103644371,0.23165889084339142,0.2171241194009781
1782811084625644000,0.10764404296875,-0.07887404412031174,0.29070302844047546,0.21816302835941315
1782811084635715000,0.117715087890625,-0.0873095840215683,0.3388459384441376,0.20301160216331482
1782811084645787000,0.127786865234375,-0.08525681495666504,0.379269540309906,0.17336875200271606
1782811084655858000,0.13785791015625,-0.07757045328617096,0.43008503317832947,0.12742236256599426
1782811084665930000,0.147929931640625,-0.06928056478500366,0.44733646512031555,0.050472453236579895
1782811084676000800,0.158000732421875,-0.05783030390739441,0.41246476769447327,-0.04660269618034363
1782811084686071800,0.16807177734375,-0.05350426584482193,0.333067387342453,-0.15641680359840393
1782811084696144000,0.178143798828125,-0.04913027584552765,0.27271977066993713,-0.2493978887796402
1782811084706215000,0.18821484375,-0.04224946349859238,0.22759754955768585,-0.3029588460922241
1782811084716286000,0.198285888671875,-0.040391579270362854,0.2372978925704956,-0.3341878354549408
1782811084726358000,0.20835791015625,-0.04357565566897392,0.2648155689239502,-0.3448050618171692
1782811084736429000,0.218428955078125,-0.04348316788673401,0.24671359360218048,-0.34683769941329956
1782811084746500000,0.2285,-0.027407795190811157,0.17753665149211884,-0.3469937741756439
1782811084756572000,0.238572021484375,0.024465180933475494,0.1484183669090271,-0.37286999821662903
1782811084766642700,0.248642578125,0.11595515161752701,0.13589563965797424,-0.41053879261016846
1782811084776713700,0.258713623046875,0.22601522505283356,0.13372720777988434,-0.4576679468154907
1782811084786785800,0.268785888671875,0.4062153398990631,0.24913929402828217,-0.5802590847015381
1782811084796856800,0.27885693359375,0.6581550240516663,0.4143725633621216,-0.7963148951530457
1782811084806928000,0.288927978515625,0.7918744683265686,0.42096975445747375,-0.9508717060089111
1782811084817000000,0.299,0.7566455006599426,0.33597493171691895,-1.0258351564407349
1782811084827071000,0.309071044921875,0.6015584468841553,0.27674463391304016,-1.0074479579925537
1782811084837143000,0.31914306640625,0.4155615270137787,0.25907546281814575,-0.9506958723068237
1782811084847214000,0.329214111328125,0.2634984850883484,0.240611270070076,-0.9068661332130432
1782811084857285000,0.33928515625,0.14779923856258392,0.21540047228336334,-0.864314615726471
1782811084867357000,0.34935693359375,0.07201233506202698,0.18391180038452148,-0.7871047854423523
1782811084877427700,0.359427734375,0.043244920670986176,0.15138638019561768,-0.6646606922149658
1782811084887499000,0.3694990234375,0.02503369189798832,0.15344740450382233,-0.511025071144104
1782811084897571000,0.379571044921875,0.011440102942287922,0.19088251888751984,-0.3470103144645691
1782811084907642000,0.38964208984375,-0.025526171550154686,0.23686492443084717,-0.18834182620048523
1782811084917713000,0.399712890625,-0.08226291835308075,0.2503249943256378,-0.06254720687866211
1782811084927785000,0.409784912109375,-0.16514182090759277,0.1583212912082672,0.026290787383913994
1782811084937856000,0.41985595703125,-0.24915333092212677,0.01305992342531681,0.07566823065280914
1782811084947927000,0.429927001953125,-0.3106217384338379,-0.1051332950592041,0.0803079903125763
1782811084957999000,0.4399990234375,-0.32523563504219055,-0.14743758738040924,0.04418792203068733
1782811084968070100,0.450070068359375,-0.2870781123638153,-0.10874451696872711,-0.08222274482250214
1782811084978142000,0.460141845703125,-0.22307968139648438,-0.21185077726840973,-0.15091782808303833
1782811084988213000,0.470212890625,-0.12259513884782791,-0.3839817941188812,-0.15471629798412323
1782811084998284000,0.480283935546875,-0.032113876193761826,-0.4731487035751343,-0.15043874084949493
1782811085008356000,0.490356201171875,0.007114750798791647,-0.5434538125991821,-0.16201123595237732
1782811085018427000,0.500427001953125,0.029775461181998253,-0.6678032875061035,-0.20310388505458832
1782811085028498000,0.510497802734375,0.05074945092201233,-0.8017097115516663,-0.2823534309864044
1782811085038570000,0.520570068359375,0.05308728665113449,-0.8539862036705017,-0.3923317790031433
1782811085048641000,0.53064111328125,0.03967108204960823,-0.8424062728881836,-0.5073454976081848
1782811085058712000,0.540712158203125,0.026236258447170258,-0.8484253883361816,-0.6226250529289246
1782811085068783900,0.550783935546875,0.014506631530821323,-0.8639316558837891,-0.7086984515190125
1782811085078855000,0.56085498046875,-0.005682424642145634,-0.8618773221969604,-0.7443816065788269
1782811085088926000,0.570926025390625,-0.03927420824766159,-0.8231120705604553,-0.7383753657341003
1782811085098998000,0.580998046875,-0.07043664902448654,-0.7447016835212708,-0.7015491724014282
1782811085109069000,0.591069091796875,-0.07237383723258972,-0.6642361283302307,-0.6547185778617859
1782811085119139800,0.601139892578125,-0.04287004470825195,-0.5788947939872742,-0.6017487645149231
1782811085129212000,0.6112119140625,-0.00032657873816788197,-0.5050376057624817,-0.5601733326911926
1782811085139283000,0.621282958984375,0.017999378964304924,-0.465447336435318,-0.5420396327972412
1782811085149355000,0.63135498046875,-0.0011958881514146924,-0.4122738540172577,-0.5614039897918701
1782811085159426000,0.641426025390625,-0.051666803658008575,-0.3214007318019867,-0.621288001537323
1782811085169497000,0.6514970703125,-0.0985829159617424,-0.23752154409885406,-0.7103102803230286
1782811085179569000,0.66156884765625,-0.12449533492326736,-0.20692647993564606,-0.8047849535942078
1782811085189640000,0.671639892578125,-0.1390409916639328,-0.20604470372200012,-0.872221827507019
1782811085199711000,0.6817109375,-0.14862322807312012,-0.1864165961742401,-0.893048882484436
1782811085209783000,0.691782958984375,-0.16828268766403198,-0.12551835179328918,-0.8793439865112305
1782811085219854000,0.70185400390625,-0.19912636280059814,-0.033520542085170746,-0.8333800435066223
1782811085229924900,0.7119248046875,-0.23123103380203247,0.06947588175535202,-0.7736222147941589
1782811085239997000,0.721996826171875,-0.25284621119499207,0.1377963125705719,-0.7154736518859863
1782811085250068000,0.73206787109375,-0.26404640078544617,0.1551888883113861,-0.6759321093559265
1782811085260139000,0.742138916015625,-0.2677486836910248,0.11475828289985657,-0.6396170258522034
1782811085270211000,0.752211181640625,-0.2687210142612457,0.05113696679472923,-0.5981801152229309
1782811085280282000,0.7622822265625,-0.2680917978286743,-0.033922214061021805,-0.5482686758041382
1782811085290353200,0.772353271484375,-0.25847646594047546,-0.10726752877235413,-0.4728495180606842
1782811085300425000,0.782425048828125,-0.24438981711864471,-0.10058367252349854,-0.39417141675949097
1782811085310496000,0.79249609375,-0.2260100096464157,-0.04158400744199753,-0.33594009280204773
1782811085320568000,0.802568115234375,-0.20607371628284454,0.02302892692387104,-0.31845128536224365
1782811085330639000,0.81263916015625,-0.19398696720600128,0.030173655599355698,-0.31870800256729126
1782811085340710000,0.8227099609375,-0.17808592319488525,-0.0031134900636970997,-0.3200119137763977
1782811085350782000,0.832781982421875,-0.16643565893173218,-0.016540881246328354,-0.3096466362476349
1782811085360853000,0.84285302734375,-0.16372652351856232,0.013108148239552975,-0.2992718815803528
1782811085370924000,0.852924072265625,-0.1639305204153061,0.06722518056631088,-0.31165769696235657
1782811085380996000,0.86299609375,-0.17088256776332855,0.12454664707183838,-0.3332439064979553
1782811085391067100,0.873067138671875,-0.17487092316150665,0.17512673139572144,-0.3634745180606842
1782811085401138200,0.88313818359375,-0.1756811887025833,0.179711252450943,-0.3971424996852875
1782811085411210000,0.8932099609375,-0.17064034938812256,0.14563024044036865,-0.40836799144744873
1782811085421281000,0.903281005859375,-0.1681971549987793,0.12464936077594757,-0.38786718249320984
1782811085431351800,0.913351806640625,-0.17981278896331787,0.10751298815011978,-0.3516484498977661
1782811085441424000,0.923423828125,-0.19416756927967072,0.08208023011684418,-0.3276210129261017
1782811085451495000,0.933494873046875,-0.20715102553367615,0.09054375439882278,-0.3522864282131195
1782811085461567000,0.94356689453125,-0.19830013811588287,0.07613564282655716,-0.3898552656173706
1782811085471638000,0.953637939453125,-0.2080848515033722,0.08135916292667389,-0.4140482246875763
1782811085481709000,0.963708984375,-0.23500597476959229,0.11039626598358154,-0.4231286346912384
1782811085491781000,0.973781005859375,-0.2636922299861908,0.15380500257015228,-0.42239174246788025
1782811085501852200,0.98385205078125,-0.2702343761920929,0.18744432926177979,-0.40050774812698364
1782811085511923200,0.993923095703125,-0.25165456533432007,0.20546673238277435,-0.3586929142475128
1782811085521995000,1.0039951171875,-0.20012621581554413,0.16416488587856293,-0.3031112849712372
1782811085532066000,1.014066162109375,-0.14645366370677948,0.06366492062807083,-0.21662645041942596
1782811085542136800,1.02413671875,-0.12010932713747025,-0.01092294417321682,-0.14204181730747223
1782811085552209000,1.034208984375,-0.1167534813284874,-0.039357248693704605,-0.12389983981847763
1782811085562280000,1.044280029296875,-0.11807481944561005,-0.04055451229214668,-0.14617693424224854
1782811085572351000,1.05435107421875,-0.14050821959972382,-0.023789381608366966,-0.18124251067638397
1782811085582423000,1.064423095703125,-0.1789652407169342,-0.011504002846777439,-0.1864243596792221
1782811085592494000,1.074494140625,-0.21648038923740387,0.016176626086235046,-0.16203220188617706
1782811085602565000,1.084565185546875,-0.24853825569152832,0.040389493107795715,-0.10548027604818344
1782811085612637000,1.094636962890625,-0.2678893208503723,0.058787938207387924,-0.03309982270002365
1782811085622708000,1.1047080078125,-0.2643977105617523,0.07880993187427521,0.03273135796189308
1782811085632780000,1.114780029296875,-0.24319390952587128,0.0900772362947464,0.07951217889785767
1782811085642851000,1.12485107421875,-0.21839718520641327,0.06717073172330856,0.10317233204841614
1782811085652921900,1.134921875,-0.19759123027324677,0.029345856979489326,0.11909670382738113
1782811085662994000,1.144993896484375,-0.16758714616298676,0.018999064341187477,0.14258719980716705
1782811085673065000,1.15506494140625,-0.13967642188072205,0.04218827188014984,0.18224993348121643
1782811085683136000,1.165135986328125,-0.11185017228126526,0.09051552414894104,0.22785092890262604
1782811085693208000,1.1752080078125,-0.08542682230472565,0.1355099081993103,0.2577049434185028
1782811085703279000,1.185279052734375,-0.06279359012842178,0.14691513776779175,0.2580980360507965
1782811085713350100,1.19535009765625,-0.04031570628285408,0.11470312625169754,0.23293088376522064
1782811085723422000,1.205421875,-0.00809871032834053,0.07248158007860184,0.18313319981098175
1782811085733493000,1.215492919921875,0.02114759013056755,0.027395593002438545,0.13184469938278198
1782811085743564000,1.22556396484375,0.03632310777902603,-0.0015882370062172413,0.07935868948698044
1782811085753636000,1.235635986328125,0.05743664875626564,-0.02689279429614544,0.043783653527498245
1782811085763707000,1.245706787109375,0.06452921777963638,-0.05690484866499901,0.00748497573658824
1782811085773779000,1.255779052734375,0.06583043187856674,-0.0993894562125206,-0.025484958663582802
1782811085783850000,1.26585009765625,0.06904046982526779,-0.1452668160200119,-0.057012978941202164
1782811085793921000,1.275921142578125,0.07695352286100388,-0.18051747977733612,-0.07894463837146759
1782811085803993000,1.2859931640625,0.06892399489879608,-0.2085413634777069,-0.08436602354049683
1782811085814064000,1.296064208984375,0.06430341303348541,-0.21617424488067627,-0.06831568479537964
1782811085824135200,1.30613525390625,0.06237886846065521,-0.17034804821014404,-0.02219391241669655
1782811085834207000,1.31620703125,0.0608358308672905,-0.1477268934249878,0.03289437294006348
1782811085844278000,1.326278076171875,0.05354176461696625,-0.1432279348373413,0.07510897517204285
1782811085854348800,1.336348876953125,0.055806517601013184,-0.143621027469635,0.10742803663015366
1782811085864421000,1.346421142578125,0.055781833827495575,-0.17167812585830688,0.12955808639526367
1782811085874492000,1.356491943359375,0.058980558067560196,-0.22897976636886597,0.14675384759902954
1782811085884562700,1.366562744140625,0.06562338769435883,-0.2844963073730469,0.17560625076293945
1782811085894634800,1.376634765625,0.06389206647872925,-0.2997458279132843,0.21531158685684204
1782811085904705800,1.386705810546875,0.047841254621744156,-0.28898075222969055,0.26568958163261414
1782811085914776800,1.39677685546875,0.01425373274832964,-0.27741357684135437,0.2993474006652832
1782811085924849000,1.406848876953125,-0.024714652448892593,-0.26396191120147705,0.32674622535705566
1782811085934920000,1.416919921875,-0.06872072070837021,-0.22269169986248016,0.34092941880226135
1782811085944991700,1.42699169921875,-0.1045614555478096,-0.16938164830207825,0.33772552013397217
1782811085955062800,1.437062744140625,-0.13369590044021606,-0.1269492357969284,0.30970293283462524
1782811085965133600,1.447133544921875,-0.1551576405763626,-0.13093183934688568,0.2645258903503418
1782811085975205600,1.45720556640625,-0.17099040746688843,-0.17521968483924866,0.20941683650016785
1782811085985276700,1.467276611328125,-0.1710987538099289,-0.2114776372909546,0.15201446413993835
1782811085995347700,1.47734765625,-0.16405442357063293,-0.22820867598056793,0.1085953488945961
1782811086005419800,1.487419677734375,-0.15488670766353607,-0.2383025735616684,0.0733475461602211
1782811086015490800,1.49749072265625,-0.14862240850925446,-0.23685993254184723,0.03784920275211334
1782811086025561900,1.507561767578125,-0.1456606090068817,-0.2313636988401413,-0.0013377905124798417
1782811086035634000,1.517634033203125,-0.14387309551239014,-0.22869227826595306,-0.04155738279223442
1782811086045705000,1.527705078125,-0.14582198858261108,-0.21514292061328888,-0.07396885007619858
1782811086055775700,1.537775634765625,-0.13875024020671844,-0.18075963854789734,-0.07993113249540329
1782811086065847800,1.547847900390625,-0.13871432840824127,-0.12449051439762115,-0.07401635497808456
1782811086075918600,1.557918701171875,-0.13389533758163452,-0.07386088371276855,-0.07618629187345505
1782811086085990700,1.56799072265625,-0.12634514272212982,-0.044875368475914,-0.1070110872387886
1782811086096061700,1.578061767578125,-0.11020717769861221,-0.07490410655736923,-0.15477487444877625
1782811086106132700,1.5881328125,-0.08263698220252991,-0.13741520047187805,-0.20261843502521515
1782811086116204800,1.598204833984375,-0.05432358756661415,-0.17210207879543304,-0.22286644577980042
1782811086126275800,1.60827587890625,-0.029994597658514977,-0.16071152687072754,-0.2017059624195099
1782811086136347000,1.618346923828125,-0.01809506118297577,-0.12860392034053802,-0.15277570486068726
1782811086146418700,1.628418701171875,-0.014657442457973957,-0.10006066411733627,-0.10094115883111954
1782811086156489700,1.63848974609375,-0.013447302393615246,-0.08143984526395798,-0.05913911759853363
1782811086166560800,1.648560791015625,-0.005352799780666828,-0.07070095837116241,-0.03160455822944641
1782811086176632600,1.658632568359375,0.0010651517659425735,-0.059828344732522964,-0.018801143392920494
1782811086186703600,1.66870361328125,0.009869284927845001,-0.056615255773067474,-0.014812901616096497
1782811086196774700,1.678774658203125,0.009866621345281601,-0.06541167944669724,-0.01534952875226736
1782811086206846700,1.6888466796875,0.011287732981145382,-0.08122453093528748,-0.021314959973096848
1782811086216917800,1.698917724609375,0.014529598876833916,-0.08558200299739838,-0.034609727561473846
1782811086226988800,1.70898876953125,0.019754907116293907,-0.08858461678028107,-0.05362872779369354
1782811086237060900,1.719060791015625,0.022814612835645676,-0.09007812291383743,-0.08417917788028717
1782811086247132000,1.7291318359375,0.02798980101943016,-0.09547800570726395,-0.10999829322099686
1782811086257203700,1.73920361328125,0.025961004197597504,-0.10693012923002243,-0.1314316838979721
1782811086267274800,1.749274658203125,0.02198294922709465,-0.11384789645671844,-0.13937309384346008
1782811086277345500,1.759345458984375,0.01608830876648426,-0.10576067864894867,-0.13439272344112396
1782811086287417600,1.76941748046875,0.01252410002052784,-0.0795479565858841,-0.11977328360080719
1782811086297488600,1.779488525390625,0.013466060161590576,-0.05615368112921715,-0.11159364879131317
1782811086307559700,1.7895595703125,0.017306754365563393,-0.036828283220529556,-0.1127515584230423
1782811086317631700,1.7996318359375,0.023050127550959587,-0.02139473147690296,-0.11749731749296188
1782811086327702800,1.809702880859375,0.02467295713722706,-0.013400956988334656,-0.13535939157009125
1782811086337773800,1.81977392578125,0.015254153870046139,-0.014397511258721352,-0.16609013080596924
1782811086347846000,1.829845947265625,0.008263968862593174,-0.04419410228729248,-0.1910812109708786
1782811086357917000,1.8399169921875,0.004908385686576366,-0.05416710674762726,-0.19698330760002136
1782811086367988000,1.849988037109375,-0.0012302532559260726,-0.038361284881830215,-0.1805667132139206
1782811086378059800,1.860059814453125,-0.009398168884217739,-0.011727545410394669,-0.1594044268131256
1782811086388130600,1.870130615234375,-0.018291732296347618,0.010808983817696571,-0.13688576221466064
1782811086398202600,1.88020263671875,-0.02576509490609169,0.018903927877545357,-0.11457139998674393
1782811086408273700,1.890273681640625,-0.034838154911994934,0.02544870786368847,-0.0927097424864769
1782811086418344700,1.9003447265625,-0.04190751537680626,0.033724211156368256,-0.06691622734069824
1782811086428416800,1.910416748046875,-0.04513479396700859,0.043625518679618835,-0.045370232313871384
1782811086438487800,1.92048779296875,-0.047993164509534836,0.0544816292822361,-0.020090172067284584
1782811086448558800,1.930558837890625,-0.0514046736061573,0.06241518631577492,-0.002401457168161869
1782811086458631000,1.940630859375,-0.04864111170172691,0.06045776233077049,0.013651278801262379
1782811086468702000,1.950701904296875,-0.04379360005259514,0.050803959369659424,0.015422912314534187
1782811086478773000,1.96077294921875,-0.036982301622629166,0.028017682954669,0.009227334521710873
1782811086488844800,1.9708447265625,-0.032023292034864426,0.02168276160955429,0.005749206990003586
1782811086498915600,1.98091552734375,-0.03229200839996338,0.01265464536845684,0.008250181563198566
1782811086508986600,1.990986572265625,-0.027788372710347176,0.011032072827219963,0.01482345536351204
1782811086519058700,2.00105859375,-0.024826936423778534,0.01878666691482067,0.019079718738794327
1782811086529129700,2.011129638671875,-0.01924147829413414,0.010300526395440102,0.018549855798482895
1782811086539201800,2.021201904296875,-0.014049112796783447,-0.006820936221629381,0.012532711029052734
1782811086549272800,2.03127294921875,-0.011259499937295914,-0.005077027715742588,0.014521244913339615
1782811086559343900,2.04134375,-0.0076115014962852,-0.0011970687191933393,0.024335792288184166
1782811086569415700,2.051415771484375,0.0024844887666404247,0.012269962579011917,0.03288087993860245
1782811086579486700,2.06148681640625,0.006731964647769928,0.014978663995862007,0.03844022750854492
1782811086589557800,2.071557861328125,0.008088743314146996,0.02000461146235466,0.04058568924665451
1782811086599629800,2.0816298828125,0.009821396321058273,0.03283865004777908,0.04213511571288109
1782811086609700600,2.09170068359375,0.008381664752960205,0.04074862226843834,0.047285035252571106
1782811086619771600,2.101771728515625,0.005425822455435991,0.04230710491538048,0.040060412138700485
1782811086629843700,2.11184375,0.010373293422162533,0.05415720492601395,0.03757805749773979
1782811086639914800,2.121914794921875,0.014230350032448769,0.05115901678800583,0.023445989936590195
1782811086649985800,2.13198583984375,0.01556917279958725,0.0238475538790226,0.004067427944391966
1782811086660057900,2.142057861328125,0.02008243277668953,0.006937012542039156,-0.013468688353896141
1782811086670129000,2.15212890625,0.02415699139237404,-0.0047147879377007484,-0.02206593193113804
1782811086680200000,2.162199951171875,0.029240166768431664,-0.005685243755578995,-0.021493885666131973
1782811086690271700,2.172271728515625,0.03694714978337288,-0.002366084838286042,-0.016160598024725914
1782811086700342500,2.182342529296875,0.04186707362532616,-0.0029447900597006083,-0.012202076613903046
1782811086710414600,2.19241455078125,0.04419739171862602,-0.013948125764727592,-0.015844551846385002
1782811086720485600,2.202485595703125,0.03947747126221657,-0.014701800420880318,-0.016390766948461533
1782811086730556700,2.212556640625,0.04317251592874527,-0.014459672383964062,-0.0023714909330010414
1782811086740628700,2.222628662109375,0.036699969321489334,-0.005990554578602314,0.019459504634141922
1782811086750699800,2.23269970703125,0.03285760059952736,0.007163504138588905,0.04013995826244354
1782811086760770800,2.242770751953125,0.02894648350775242,0.014025405049324036,0.048101212829351425
1782811086770843000,2.2528427734375,0.021230213344097137,0.004723629914224148,0.051823146641254425
1782811086780914000,2.262913818359375,0.017370760440826416,0.004545731004327536,0.05028996244072914
1782811086790985000,2.27298486328125,0.011933926492929459,0.00010733632370829582,0.05004985257983208
1782811086801056800,2.283056884765625,0.006105599459260702,0.0011270607355982065,0.047875914722681046
1782811086811127600,2.29312744140625,0.003928150981664658,0.0035724365152418613,0.04529393091797829
1782811086821198600,2.303198486328125,0.0033912579528987408,-0.00022070389240980148,0.03844454884529114
1782811086831270700,2.313270751953125,0.0028756060637533665,-0.003306835424154997,0.030913623049855232
1782811086841341700,2.323341796875,0.006511087529361248,-0.0034538418985903263,0.024357452988624573
1782811086851413800,2.333413818359375,0.002622898668050766,-0.005085940472781658,0.024626264348626137
1782811086861484800,2.34348486328125,-0.0025875759311020374,0.00006754230707883835,0.02999706193804741
1782811086871555800,2.353555908203125,-0.00530646089464426,0.011953434906899929,0.03814736008644104
1782811086881627600,2.363627685546875,-0.008764841593801975,0.020027605816721916,0.043165285140275955
1782811086891698700,2.37369873046875,-0.006704301573336124,0.023030633106827736,0.04339424893260002
1782811086901769500,2.38376953125,-0.007489135023206472,0.023991767317056656,0.04193004220724106
1782811086911841300,2.39384130859375,-0.006829597521573305,0.02605612389743328,0.03848143666982651
1782811086921912300,2.403912353515625,-0.012906133197247982,0.03897431865334511,0.032867226749658585
1782811086931983400,2.4139833984375,-0.021682314574718475,0.015742233023047447,0.01425626128911972
1782811086942055400,2.424055419921875,-0.027760179713368416,-0.00864273402839899,-0.011456825770437717
1782811086952126500,2.43412646484375,-0.019524039700627327,-0.03266824409365654,-0.031456585973501205
1782811086962197500,2.444197509765625,-0.00007737090345472097,-0.059775762259960175,-0.0471724309027195
1782811086972269600,2.45426953125,0.02806185558438301,-0.08679353445768356,-0.05379730835556984
1782811086982340600,2.464340576171875,0.05653895065188408,-0.07859323173761368,-0.03446061909198761
1782811086992412700,2.47441259765625,0.08025059849023819,-0.03126239404082298,-0.0012899137800559402
1782811087002483700,2.484483642578125,0.09160871058702469,0.013722125440835953,0.03483320027589798
1782811087012554500,2.494554443359375,0.09784040600061417,0.05283893272280693,0.06058945506811142
1782811087022626300,2.504626220703125,0.09443741291761398,0.04326433688402176,0.06965538114309311
1782811087032697300,2.514697265625,0.09238986670970917,0.004362484440207481,0.06702009588479996
1782811087042768400,2.524768310546875,0.09752684086561203,-0.006470455788075924,0.07232005149126053
1782811087052840400,2.53484033203125,0.09724876284599304,-0.0019033073913305998,0.08161614090204239
1782811087062911500,2.544911376953125,0.09110352396965027,-0.006586209870874882,0.08223266899585724
1782811087072982500,2.554982421875,0.08611346781253815,-0.022658338770270348,0.07898321002721786
1782811087083054600,2.5650546875,0.08287931978702545,-0.02910318784415722,0.07537782192230225
1782811087093125600,2.575125732421875,0.07724659889936447,-0.03835941478610039,0.06403496116399765
1782811087103196700,2.58519677734375,0.06883261352777481,-0.05052180588245392,0.05801249295473099
1782811087113268700,2.595268798828125,0.06746422499418259,-0.05105474218726158,0.05344630032777786
1782811087123339500,2.605339599609375,0.056140460073947906,-0.03563956543803215,0.05161324888467789
1782811087133411300,2.615411376953125,0.04506790265440941,-0.026173565536737442,0.05430574342608452
1782811087143482400,2.625482421875,0.0362325981259346,-0.025214560329914093,0.051517147570848465
1782811087153553400,2.635553466796875,0.02574712596833706,-0.023682795464992523,0.052230995148420334
1782811087163625500,2.64562548828125,0.018219435587525368,-0.022287830710411072,0.05215802416205406
1782811087173696500,2.655696533203125,0.011643430218100548,-0.011951958760619164,0.056724466383457184
1782811087183767600,2.665767578125,0.0033924244344234467,-0.0022713681682944298,0.05861558020114899
1782811087193839600,2.675839599609375,0.0021481316071003675,0.00801316648721695,0.05781552568078041
1782811087203910700,2.68591064453125,0.004816885106265545,0.01553872786462307,0.048822563141584396
1782811087213981700,2.695981689453125,0.005697315558791161,0.001840470707975328,0.021536504849791527
1782811087224053500,2.706053466796875,0.008978595957159996,-0.025218844413757324,-0.012598562054336071
1782811087234124500,2.71612451171875,0.019398555159568787,-0.04257111996412277,-0.04666423797607422
1782811087244195600,2.726195556640625,0.024744318798184395,-0.05102559179067612,-0.06328956037759781
1782811087254267400,2.736267333984375,0.028009848669171333,-0.040801890194416046,-0.06568022072315216
1782811087264338400,2.74633837890625,0.03288237005472183,-0.0332329198718071,-0.0486474335193634
1782811087274410500,2.756410400390625,0.03330521285533905,-0.017881987616419792,-0.029521718621253967
1782811087284481500,2.7664814453125,0.0330791100859642,-0.007510574534535408,-0.010333908721804619
1782811087294552600,2.776552490234375,0.031236790120601654,0.004427888430655003,0.012280253693461418
1782811087304624600,2.786624755859375,0.025088349357247353,0.01839590258896351,0.03305291011929512
1782811087314695700,2.79669580078125,0.017837954685091972,0.02754221484065056,0.0455174595117569
1782811087324766500,2.806766357421875,0.016233133152127266,0.029222935438156128,0.05077826604247093
1782811087334838500,2.816838623046875,0.013071645982563496,0.025200828909873962,0.0453038290143013
1782811087344909300,2.826909423828125,0.012045529671013355,0.01639987900853157,0.034435734152793884
1782811087354980400,2.83698046875,0.011749434284865856,0.008168250322341919,0.02091597393155098
1782811087365052400,2.847052490234375,0.007749100215733051,0.008283033035695553,0.008479279465973377
1782811087375123500,2.85712353515625,0.009943650104105473,0.0004885721718892455,-0.002238482004031539
1782811087385194500,2.867194580078125,0.015281157568097115,-0.005559466779232025,-0.007658281363546848
1782811087395266600,2.8772666015625,0.0210894588381052,-0.005015695001929998,-0.009312033653259277
1782811087405337600,2.887337646484375,0.01849314384162426,-0.003940576687455177,-0.008463018573820591
1782811087415409700,2.89740966796875,0.02060537040233612,0.0007072571897879243,-0.005360289476811886
1782811087425480700,2.907480712890625,0.02084026113152504,0.006533720530569553,-0.0019045713124796748
1782811087435551500,2.917551513671875,0.015603501349687576,0.005107527133077383,0.00012878247071057558
1782811087445623300,2.927623291015625,0.010556545108556747,-0.002914446871727705,-0.010094559751451015
1782811087455694300,2.9376943359375,0.00502573000267148,-0.0032655459363013506,-0.013853936456143856
1782811087465765400,2.947765380859375,0.0022650971077382565,-0.0016359577421098948,-0.016515500843524933
1782811087475837400,2.95783740234375,0.0013225143775343895,-0.010094906203448772,-0.016147855669260025
1782811087485908500,2.967908447265625,-0.0009944358607754111,-0.025974536314606667,-0.016392068937420845
1782811087495979500,2.9779794921875,0.001927434466779232,-0.019603081047534943,-0.00930143240839243
1782811087506051600,2.988051513671875,0.000407302170060575,-0.0073117949068546295,0.005096948239952326
1782811087516122600,2.99812255859375,-0.0022219731472432613,-0.004739915952086449,0.015514473430812359
1782811087526193700,3.008193603515625,-0.00113487069029361,-0.005448583513498306,0.024803578853607178
1782811087536265700,3.018265625,-0.0031891092658042908,0.00044978922232985497,0.030687766149640083
1782811087546336500,3.02833642578125,-0.007404893171042204,-0.00332550797611475,0.031112272292375565
1782811087556408300,3.038408203125,-0.005752641707658768,0.0003330287290737033,0.028848154470324516
1782811087566479400,3.048479248046875,-0.004160870332270861,0.008131030946969986,0.033720675855875015
1782811087576550400,3.05855029296875,-0.0016294507076963782,0.005026698112487793,0.023858439177274704
1782811087586622500,3.06862255859375,0.006609836593270302,-0.0017366658430546522,0.012699795886874199
1782811087596693500,3.078693603515625,0.007784802466630936,-0.007207383867353201,0.0021963431499898434
1782811087606764500,3.0887646484375,0.00643937336280942,-0.011529693379998207,-0.007766808848828077
1782811087616836600,3.098836669921875,0.006326417904347181,-0.020007507875561714,-0.013894417323172092
1782811087626907600,3.10890771484375,0.0013758677523583174,-0.018490305170416832,-0.009850407019257545
1782811087636978700,3.118978759765625,-0.003696441650390625,-0.008898438885807991,-0.000502110633533448
1782811087647050500,3.129050537109375,-0.010219056159257889,0.008604122325778008,0.00477947061881423
1782811087657121500,3.13912158203125,-0.01486551109701395,0.014939872547984123,0.006014970596879721
1782811087667192600,3.149192626953125,-0.020034706220030785,0.007327759638428688,0.0015190220437943935
1782811087677264400,3.159264404296875,-0.019865110516548157,0.0006451660301536322,-0.000016606762073934078
1782811087687335400,3.16933544921875,-0.023098187521100044,-0.01232815720140934,-0.004732798784971237
1782811087697407500,3.179407470703125,-0.02324354462325573,-0.015292730182409286,-0.007392305880784988
1782811087707478500,3.189478515625,-0.026043858379125595,-0.009381843730807304,-0.006435432005673647
1782811087717549600,3.199549560546875,-0.025844594463706017,0.0014169353526085615,-0.00610476965084672
1782811087727621600,3.20962158203125,-0.02658442035317421,0.004013251047581434,-0.006848057731986046
1782811087737692700,3.219692626953125,-0.01975928246974945,-0.0007024251390248537,-0.0113595612347126
1782811087747763500,3.229763427734375,-0.00865523237735033,-0.006498262751847506,-0.012863715179264545
1782811087757835500,3.23983544921875,0.002192632993683219,-0.004497945308685303,-0.0021246750839054585
1782811087767906300,3.24990625,0.011362428776919842,-0.0012140015605837107,0.009604685008525848
1782811087777977300,3.259977294921875,0.01583467610180378,-0.00643832515925169,0.020048271864652634
1782811087788049400,3.27004931640625,0.0220936369150877,-0.015742609277367592,0.02729952707886696
1782811087798120400,3.280120361328125,0.024694176390767097,-0.033045608550310135,0.03292631357908249
1782811087808191500,3.29019140625,0.01523462776094675,-0.03668055683374405,0.043369900435209274
1782811087818263600,3.300263671875,0.004275097046047449,-0.025633446872234344,0.05771833658218384
1782811087828334600,3.31033447265625,-0.010331542231142521,-0.02049594186246395,0.07054359465837479
1782811087838406700,3.32040673828125,-0.026926450431346893,-0.010070525109767914,0.07879064232110977
1782811087848477700,3.330477783203125,-0.042400747537612915,-0.005491752177476883,0.08576147258281708
1782811087858548500,3.340548583984375,-0.057379644364118576,-0.0020277495495975018,0.08258239179849625
1782811087868620300,3.350620361328125,-0.06163058057427406,-0.0005158730782568455,0.07177847623825073
1782811087878691300,3.36069140625,-0.06675904989242554,0.0035211774520576,0.05773381516337395
1782811087888762400,3.370762451171875,-0.06897027790546417,0.005098567809909582,0.038164641708135605
1782811087898834400,3.38083447265625,-0.06927116960287094,0.001248073996976018,0.005894792266190052
1782811087908905500,3.390905517578125,-0.07168985903263092,-0.004949634429067373,-0.022448431700468063
1782811087918976500,3.4009765625,-0.0795086994767189,-0.01337540615350008,-0.05218533053994179
1782811087929048600,3.411048583984375,-0.0891014039516449,-0.02345520444214344,-0.07922972738742828
1782811087939119600,3.42111962890625,-0.0931892916560173,-0.033677686005830765,-0.09037928283214569
1782811087949190700,3.431190673828125,-0.0976354330778122,-0.026763053610920906,-0.08739760518074036
1782811087959262700,3.4412626953125,-0.09583918750286102,-0.01677837409079075,-0.07425589859485626
1782811087969333800,3.451333740234375,-0.09439628571271896,-0.0003892818931490183,-0.05581750348210335
1782811087979405600,3.461405517578125,-0.08610160648822784,0.007453194819390774,-0.03244906663894653
1782811087989476400,3.471476318359375,-0.08056142926216125,0.01212517824023962,-0.013780038803815842
1782811087999547400,3.48154736328125,-0.06491093337535858,0.01045753713697195,0.00418060552328825
1782811088009619500,3.491619384765625,-0.04864674434065819,0.010639697313308716,0.02995547652244568
1782811088019690500,3.5016904296875,-0.033233825117349625,0.01644899509847164,0.051455095410346985
1782811088029761500,3.511761474609375,-0.016579216346144676,0.027292855083942413,0.07226663827896118
1782811088039833600,3.52183349609375,-0.006320742890238762,0.036302294582128525,0.08015469461679459
1782811088049904600,3.531904541015625,-0.0023153487127274275,0.04016813635826111,0.07973658293485641
1782811088059975700,3.5419755859375,-0.002109831664711237,0.051086097955703735,0.07262378931045532
1782811088070047700,3.5520478515625,-0.007225763984024525,0.046270038932561874,0.057825129479169846
1782811088080118800,3.562118896484375,-0.007584097795188427,0.04349568113684654,0.03619688004255295
1782811088090189600,3.572189453125,-0.004802425857633352,0.03516291454434395,0.01066728588193655
1782811088100261400,3.582261474609375,-0.003092294093221426,0.02660468965768814,-0.014403210952877998
1782811088110332400,3.59233251953125,-0.0024704458191990852,0.006168657913804054,-0.043135788291692734
1782811088120403500,3.602403564453125,-0.0004216536181047559,0.0006623397348448634,-0.055303554981946945
1782811088130475500,3.6124755859375,-0.0005247179651632905,0.0009361125994473696,-0.05859282612800598
1782811088140546600,3.622546630859375,-0.0034743077121675014,0.003545866347849369,-0.054802000522613525
1782811088150618600,3.63261865234375,-0.002257775515317917,0.0010736538097262383,-0.050754792988300323
1782811088160689700,3.642689697265625,-0.00392042426392436,0.001194920390844345,-0.04686572030186653
1782811088170760700,3.6527607421875,-0.00919348280876875,-0.0013707689940929413,-0.040860824286937714
1782811088180832500,3.66283251953125,-0.012299085967242718,-0.00015418557450175285,-0.03661828488111496
1782811088190903600,3.672903564453125,-0.018621165305376053,-0.000499863876029849,-0.03174975886940956
1782811088200974600,3.682974609375,-0.01870529167354107,0.004762961529195309,-0.020513515919446945
1782811088211046400,3.69304638671875,-0.02093835361301899,0.01214550994336605,-0.002651428570970893
1782811088221117400,3.703117431640625,-0.020133407786488533,0.017330029979348183,0.01262251939624548
1782811088231188500,3.7131884765625,-0.01686597615480423,0.028233010321855545,0.024775322526693344
1782811088241260500,3.723260498046875,-0.016223961487412453,0.031173326075077057,0.028378697112202644
1782811088251331600,3.73333154296875,-0.011162091977894306,0.02843586355447769,0.01835855469107628
1782811088261402600,3.743402587890625,-0.009198267012834549,0.019012821838259697,0.004667884204536676
1782811088271474700,3.753474609375,-0.003935327287763357,0.019653577357530594,-0.0005814728792756796
1782811088281545700,3.763545654296875,0.002766544232144952,0.02712256647646427,0.007868037559092045
1782811088291617500,3.773617431640625,0.008378091268241405,0.04088684543967247,0.02152765728533268
1782811088301688600,3.7836884765625,0.011509435251355171,0.05509374663233757,0.03212038055062294
1782811088311759400,3.79375927734375,0.008337877690792084,0.06607795506715775,0.03273956477642059
1782811088321831400,3.80383154296875,0.003194577991962433,0.07558630406856537,0.031939856708049774
1782811088331902500,3.81390234375,0.003660098649561405,0.06968739628791809,0.0159627553075552
1782811088341973500,3.823973388671875,0.006841015070676804,0.04924914240837097,-0.004840319976210594
1782811088352045600,3.834045654296875,0.007373381406068802,0.023679865524172783,-0.028454570099711418
1782811088362116600,3.84411669921875,0.007930338382720947,0.009144550189375877,-0.0426887646317482
1782811088372187600,3.854187744140625,0.007624074816703796,0.0042792209424078465,-0.04297931492328644
1782811088382259700,3.864259765625,0.004726300481706858,-0.00445273332297802,-0.04452357068657875
1782811088392330800,3.874330810546875,-0.0004511509323492646,-0.007728687487542629,-0.04017729312181473
1782811088402402600,3.884402587890625,-0.0052888840436935425,-0.0138227678835392,-0.039271797984838486
1782811088412473300,3.894473388671875,-0.007028460502624512,-0.019459081813693047,-0.028983740136027336
1782811088422544400,3.90454443359375,-0.01199855376034975,-0.023099858313798904,-0.021505562588572502
1782811088432616400,3.914616455078125,-0.01611207239329815,-0.01975332945585251,-0.009573004208505154
1782811088442687500,3.9246875,-0.018971141427755356,-0.010372110642492771,0.004482607822865248
1782811088452758500,3.934758544921875,-0.021013252437114716,-0.010974518023431301,0.007952174171805382
1782811088462830600,3.94483056640625,-0.030276384204626083,-0.015143690630793571,0.009476099163293839
1782811088472901600,3.954901611328125,-0.028400186449289322,-0.018883036449551582,0.014941704459488392
1782811088482972700,3.96497265625,-0.025204194709658623,-0.007922183722257614,0.021075846627354622
1782811088493044700,3.975044677734375,-0.025470778346061707,0.0027775985654443502,0.027754787355661392
1782811088503115800,3.98511572265625,-0.026990164071321487,0.0030569378286600113,0.02128043957054615
1782811088513186600,3.9951865234375,-0.024150703102350235,-0.007424198556691408,0.005842627491801977
1782811088523258400,4.00525830078125,-0.0191117562353611,-0.02303038164973259,-0.013848462142050266
1782811088533329400,4.015329345703125,-0.017154332250356674,-0.03558851778507233,-0.030348876491189003
1782811088543401500,4.0254013671875,-0.012226850725710392,-0.04130689054727554,-0.03762145712971687
1782811088553472500,4.035472412109375,-0.0012367834569886327,-0.04672003164887428,-0.03132947161793709
1782811088563543600,4.04554345703125,0.005891001783311367,-0.0458553284406662,-0.018537262454628944
1782811088573615600,4.05561572265625,0.009217290207743645,-0.03143644332885742,0.002552042482420802
1782811088583686700,4.065686767578125,0.006878757383674383,-0.013571979478001595,0.020482996478676796
1782811088593757700,4.0757578125,0.006822565104812384,0.003177173435688019,0.03144510090351105
1782811088603829500,4.08582958984375,0.007865991443395615,0.011418858543038368,0.03350132703781128
1782811088613900500,4.095900634765625,0.007258257828652859,0.008350097574293613,0.01461845077574253
1782811088623971600,4.1059716796875,0.00913480669260025,-0.003329622093588114,-0.012427826412022114
1782811088634043400,4.11604345703125,0.014334362000226974,-0.02134670689702034,-0.03968048840761185
1782811088644114400,4.126114501953125,0.022903822362422943,-0.04186204820871353,-0.06004903465509415
1782811088654185500,4.136185546875,0.029821382835507393,-0.05104675889015198,-0.07342369109392166
1782811088664257500,4.146257568359375,0.03733384981751442,-0.05380501598119736,-0.0728466734290123
1782811088674328600,4.15632861328125,0.03414897620677948,-0.0579313188791275,-0.07144984602928162
1782811088684399600,4.166399658203125,0.028423767536878586,-0.05209656432271004,-0.05425814539194107
1782811088694471700,4.1764716796875,0.021869728341698647,-0.035764195024967194,-0.03290332108736038
1782811088704542700,4.186542724609375,0.015759866684675217,-0.018039431422948837,-0.01397058367729187
1782811088714614500,4.196614501953125,0.013245576061308384,0.005252041853964329,0.008353364653885365
1782811088724685600,4.206685546875,0.011256360448896885,0.01721366122364998,0.023483866825699806
1782811088734756400,4.21675634765625,0.008098917081952095,0.021991904824972153,0.030111942440271378
1782811088744828400,4.226828369140625,0.012996799312531948,0.0201562512665987,0.02499418519437313
1782811088754899500,4.2368994140625,0.01646823063492775,0.0027373137418180704,0.017004702240228653
1782811088764970500,4.246970458984375,0.02663825824856758,-0.021515872329473495,0.009315959177911282
1782811088775042600,4.25704248046875,0.03802007436752319,-0.039512183517217636,0.014559190720319748
1782811088785113600,4.267113525390625,0.04609144479036331,-0.0466432087123394,0.03028576821088791
1782811088795184600,4.2771845703125,0.04643233120441437,-0.038303785026073456,0.05361931771039963
1782811088805256700,4.287256591796875,0.045530933886766434,-0.026172708719968796,0.06858307868242264
1782811088815327700,4.29732763671875,0.04068531468510628,-0.023056278005242348,0.08386855572462082
1782811088825398500,4.3073984375,0.041042570024728775,-0.018844369798898697,0.08510301262140274
1782811088835470300,4.31747021484375,0.031954798847436905,-0.030204348266124725,0.082664355635643
1782811088845541400,4.327541259765625,0.028797104954719543,-0.04036737233400345,0.07429829239845276
1782811088855613400,4.337613525390625,0.02438424713909626,-0.04924875125288963,0.06858421862125397
1782811088865684500,4.3476845703125,0.01844257116317749,-0.06181890144944191,0.06753677129745483
1782811088875755500,4.357755615234375,0.013819322921335697,-0.06257843226194382,0.06897381693124771
1782811088885827600,4.36782763671875,0.010063615627586842,-0.050840917974710464,0.07020022720098495
1782811088895898400,4.3778984375,0.008151732385158539,-0.026656221598386765,0.0705520287156105
1782811088905969400,4.387969482421875,0.002275393344461918,-0.02382616326212883,0.0665837749838829
1782811088916041500,4.39804150390625,-0.002088462468236685,-0.033437781035900116,0.048959773033857346
1782811088926112500,4.408112548828125,-0.0025921566411852837,-0.03475119546055794,0.02974119782447815
1782811088936183600,4.41818359375,-0.0042070974595844746,-0.03591499850153923,0.016529522836208344
1782811088946255400,4.42825537109375,-0.002893179189413786,-0.03190837427973747,0.012733198702335358
1782811088956326400,4.438326416015625,-0.002843910828232765,-0.020069560036063194,0.011855953373014927
1782811088966397400,4.4483974609375,0.00277615780942142,-0.0038501096423715353,0.011615470051765442
1782811088976469500,4.458469482421875,0.003733830526471138,0.0022868786472827196,0.005501118954271078
1782811088986540300,4.468540283203125,0.009075498208403587,0.0008176441770046949,-0.00904291681945324
1782811088996612400,4.4786123046875,0.01140922587364912,0.0014645260525867343,-0.026763590052723885
1782811089006683400,4.488683349609375,0.014122555032372475,-0.002153676236048341,-0.03749774768948555
1782811089016754400,4.49875439453125,0.019483499228954315,0.004863752983510494,-0.04702627286314964
1782811089026826500,4.508826416015625,0.01978878304362297,0.010535859502851963,-0.055915918201208115
1782811089036897500,4.5188974609375,0.017413243651390076,0.012314052321016788,-0.06804554909467697
1782811089046968600,4.528968505859375,0.015623321756720543,0.013861856423318386,-0.07729054987430573
1782811089057040400,4.539040283203125,0.010273297317326069,0.010958744212985039,-0.07738456130027771
1782811089067111400,4.549111328125,0.007256580516695976,0.011396030895411968,-0.08340321481227875
1782811089077182500,4.559182373046875,0.00787789560854435,0.006257727742195129,-0.08703257143497467
1782811089087254500,4.569254638671875,0.00799230020493269,-0.0032628020271658897,-0.09256137907505035
1782811089097325300,4.5793251953125,0.009685537777841091,-0.008458895608782768,-0.09441201388835907
1782811089107396400,4.589396240234375,0.0069873882457613945,-0.010376074351370335,-0.08742279559373856
1782811089117468400,4.599468505859375,0.009660403244197369,-0.01585552841424942,-0.07903357595205307
1782811089127539500,4.60953955078125,0.011417199857532978,-0.011781902983784676,-0.056113749742507935
1782811089137611300,4.619611328125,0.014682767912745476,0.003133663209155202,-0.032400429248809814
1782811089147682300,4.629682373046875,0.011453546583652496,0.003649637568742037,-0.010038584470748901
1782811089157753300,4.63975341796875,0.012203226797282696,-0.0008942477870732546,-0.003404117189347744
1782811089167825400,4.649825439453125,0.009997127577662468,-0.005950464867055416,-0.002777169458568096
1782811089177896400,4.659896484375,0.010449066758155823,-0.018962936475872993,-0.006237414665520191
1782811089187967500,4.669967529296875,0.004112820141017437,-0.02473670244216919,-0.010320240631699562
1782811089198039600,4.68003955078125,0.0010523152304813266,-0.017842577770352364,-0.0086847934871912
1782811089208110300,4.6901103515625,-0.00675931666046381,-0.010451176203787327,-0.009238777682185173
1782811089218181400,4.700181396484375,-0.011773782782256603,-0.01215826254338026,-0.008708808571100235
1782811089228253400,4.71025341796875,-0.01583792082965374,-0.010808844119310379,-0.014067001640796661
1782811089238324500,4.720324462890625,-0.01753408834338188,-0.014685607515275478,-0.020822376012802124
1782811089248395500,4.7303955078125,-0.017564687877893448,-0.026257958263158798,-0.030263980850577354
1782811089258467300,4.74046728515625,-0.009108352474868298,-0.0447528138756752,-0.033161234110593796
1782811089268538400,4.750538330078125,-0.006352412048727274,-0.039795637130737305,-0.01627388410270214
1782811089278609400,4.760609375,-0.006760674994438887,-0.012677997350692749,0.011000880971550941
1782811089288681500,4.770681396484375,-0.006024944595992565,-0.0015036091208457947,0.03816301003098488
1782811089298752500,4.78075244140625,-0.012140361592173576,0.010880888439714909,0.05478433147072792
1782811089308824600,4.790824462890625,-0.01639495976269245,0.014313898049294949,0.05459543317556381
1782811089318895400,4.800895263671875,-0.02264806255698204,0.01276313979178667,0.04493454843759537
1782811089328966400,4.81096630859375,-0.023285994306206703,0.004245447926223278,0.02828194573521614
1782811089339038500,4.82103857421875,-0.02416963130235672,-0.01009700633585453,0.01152507122606039
1782811089349109500,4.831109619140625,-0.02209589071571827,-0.02083306945860386,-0.000269044132437557
1782811089359180500,4.8411806640625,-0.01980557292699814,-0.016893720254302025,0.001815944560803473
1782811089369252400,4.85125244140625,-0.019108064472675323,-0.012773390859365463,0.008086456917226315
1782811089379323400,4.861323486328125,-0.018345868214964867,-0.013284983113408089,0.007137572392821312
1782811089389394400,4.87139453125,-0.014792033471167088,-0.011736096814274788,0.005831378512084484
1782811089399466500,4.881466552734375,-0.015570209361612797,-0.014568901620805264,0.0038715589325875044
1782811089409537300,4.891537353515625,-0.02073982171714306,-0.015795186161994934,0.0028885575011372566
1782811089419608300,4.9016083984375,-0.023900460451841354,-0.0033475712407380342,0.004443044774234295
1782811089429680400,4.911680419921875,-0.02686690352857113,0.004106669686734676,0.006866182666271925
1782811089439751400,4.92175146484375,-0.031004123389720917,0.004125311970710754,0.0012343956623226404
1782811089449823500,4.931823486328125,-0.02486577071249485,0.0018566177459433675,-0.007251972798258066
1782811089459894500,4.94189453125,-0.025274032726883888,-0.00672115758061409,-0.013856079429388046
1782811089469965600,4.951965576171875,-0.0263486560434103,-0.007874216884374619,-0.017617201432585716
1782811089480037400,4.962037353515625,-0.022887079045176506,-0.009916061535477638,-0.01632397063076496
1782811089490108400,4.9721083984375,-0.02274506911635399,-0.009182567708194256,-0.01971120573580265
1782811089500179500,4.982179443359375,-0.02022758312523365,-0.013600751757621765,-0.02133866213262081
1782811089510251500,4.99225146484375,-0.019411474466323853,-0.021626614034175873,-0.024317171424627304
1782811089520322300,5.002322265625,-0.016731001436710358,-0.017112290486693382,-0.017383364960551262
1782811089530393300,5.012393310546875,-0.0095719825476408,0.003207941772416234,-0.0016540748765692115
1782811089540465400,5.02246533203125,-0.007543985266238451,0.005470563657581806,0.0056592319160699844
1782811089550536400,5.032536376953125,-0.00641027744859457,0.0025075303856283426,0.0074605937115848064
1782811089560607500,5.042607421875,-0.0010110008297488093,0.003804099280387163,0.012929934076964855
1782811089570679600,5.052679443359375,-0.0009929391089826822,0.007107014302164316,0.015838326886296272
1782811089580750600,5.06275048828125,-0.0030837866943329573,0.016156170517206192,0.015021002851426601
1782811089590822400,5.072822509765625,-0.005146937444806099,0.02348944917321205,0.01083211600780487
1782811089600893400,5.0828935546875,-0.004812710918486118,0.020076608285307884,-0.0024205720983445644
1782811089610964500,5.092964599609375,-0.004667339846491814,0.012019041925668716,-0.015835121273994446
1782811089621036500,5.10303662109375,-0.0004433001158758998,-0.0007119339425116777,-0.037800341844558716
1782811089631107300,5.113107421875,0.0006768255261704326,-0.007256919052451849,-0.04981226474046707
1782811089641178400,5.123178466796875,0.0020867029670625925,-0.0011415018234401941,-0.04554454982280731
1782811089651250400,5.13325048828125,-0.004149467684328556,0.016385577619075775,-0.03574527055025101
1782811089661321500,5.143321533203125,-0.013118993490934372,0.034499600529670715,-0.023358643054962158
1782811089671392500,5.153392578125,-0.01658540777862072,0.038997918367385864,-0.018082208931446075
1782811089681464300,5.16346435546875,-0.021431827917695045,0.03284362331032753,-0.021521681919693947
1782811089691535400,5.173535400390625,-0.02568214200437069,0.03011222928762436,-0.02378336526453495
1782811089701606400,5.1836064453125,-0.03565061837434769,0.029367078095674515,-0.02642548643052578
1782811089711678500,5.193678466796875,-0.038997478783130646,0.02985464036464691,-0.028706258162856102
1782811089721749500,5.20374951171875,-0.05136360228061676,0.039798617362976074,-0.030946776270866394
1782811089731821600,5.213821533203125,-0.06129532679915428,0.054194867610931396,-0.03846381604671478
1782811089741892400,5.223892333984375,-0.06650153547525406,0.0494091659784317,-0.06135741248726845
1782811089751963400,5.23396337890625,-0.06793221086263657,0.024133488535881042,-0.09481959789991379
1782811089762035500,5.244035400390625,-0.07206331193447113,0.0004713010275736451,-0.12475352734327316
1782811089772106500,5.2541064453125,-0.07080455124378204,-0.012480976060032845,-0.14638566970825195
1782811089782177500,5.264177490234375,-0.07267355918884277,-0.030634945258498192,-0.142591193318367
1782811089792249300,5.274249267578125,-0.07266992330551147,-0.017574749886989594,-0.11502149701118469
1782811089802320400,5.2843203125,-0.07534772902727127,0.029883312061429024,-0.058959294110536575
1782811089812391400,5.294391357421875,-0.07912373542785645,0.08318669348955154,-0.000755770830437541
1782811089822463500,5.30446337890625,-0.08239329606294632,0.12099160254001617,0.0417109951376915
1782811089832534300,5.3145341796875,-0.0789131224155426,0.13655519485473633,0.06633133441209793
1782811089842604300,5.324604248046875,-0.07241421192884445,0.13846895098686218,0.0676083192229271
1782811089852675300,5.33467529296875,-0.06551383435726166,0.12663787603378296,0.045999202877283096
1782811089862746400,5.344746337890625,-0.052248090505599976,0.09715082496404648,0.00784462783485651
1782811089872818400,5.354818359375,-0.040972188115119934,0.05600304156541824,-0.030217504128813744
1782811089882889500,5.364889404296875,-0.02757835015654564,0.03671988844871521,-0.05460220202803612
1782811089892961000,5.3749609375,-0.012327315285801888,0.03184742480516434,-0.05402816832065582
1782811089903033000,5.385033203125,-0.001177725032903254,0.025169014930725098,-0.04750635102391243
1782811089913104100,5.395104248046875,0.012298173271119595,0.02441045641899109,-0.046601735055446625
1782811089923175200,5.405175048828125,0.024307964369654655,0.024646146222949028,-0.043710608035326004
1782811089933247000,5.4152470703125,0.035398323088884354,0.014222007244825363,-0.052418433129787445
1782811089943318000,5.425318115234375,0.04528504237532616,-0.005574333481490612,-0.06794332712888718
1782811089953389000,5.43538916015625,0.045640114694833755,-0.0112545071169734,-0.08007494360208511
1782811089963461000,5.445461181640625,0.047809258103370667,-0.025404147803783417,-0.08352080732584
1782811089973532200,5.4555322265625,0.04981421306729317,-0.03641699627041817,-0.07732249051332474
1782811089983604200,5.465604248046875,0.05283423885703087,-0.02408895641565323,-0.05589602515101433
1782811089993675300,5.47567529296875,0.05633316561579704,-0.002328472677618265,-0.03317922726273537
1782811090003746000,5.48574609375,0.05464498698711395,0.0034018508158624172,-0.023828333243727684
1782811090013818000,5.495818115234375,0.05220058560371399,-0.0028639205265790224,-0.019360113888978958
1782811090023889200,5.50588916015625,0.045016974210739136,-0.008059748448431492,-0.01805463247001171
1782811090033960200,5.515960205078125,0.03862736374139786,-0.014575989916920662,-0.014062196016311646
1782811090044032000,5.526031982421875,0.03660309687256813,-0.013281694613397121,-0.012261899188160896
1782811090054103000,5.53610302734375,0.03400973603129387,-0.015480242669582367,-0.00635597575455904
1782811090064174000,5.546174072265625,0.03725772723555565,-0.01730583980679512,-0.0028824149630963802
1782811090074246100,5.55624609375,0.03883100673556328,-0.025131644681096077,-0.0031455045100301504
1782811090084317200,5.566317138671875,0.03619793802499771,-0.048419658094644547,0.00025987959816120565
1782811090094388200,5.57638818359375,0.028794819489121437,-0.05461663007736206,0.01578819938004017
1782811090104460300,5.586460205078125,0.026628872379660606,-0.023765770718455315,0.03962402045726776
1782811090114531000,5.596531005859375,0.021366871893405914,0.005419956985861063,0.05634380131959915
1782811090124603100,5.60660302734375,0.015597664751112461,-0.005677168723195791,0.05478531867265701
1782811090134674200,5.616674072265625,0.004074790049344301,-0.04589628428220749,0.05644220858812332
1782811090144745200,5.6267451171875,-0.003456629579886794,-0.06014392897486687,0.07500018179416656
1782811090154817000,5.636817138671875,-0.01692919246852398,-0.04296284168958664,0.11999267339706421
1782811090164888000,5.64688818359375,-0.030856193974614143,-0.015684081241488457,0.16872985661029816
1782811090174959000,5.656958984375,-0.048442479223012924,0.09420463442802429,0.26880985498428345
1782811090185031200,5.66703125,-0.05852281302213669,0.11275434494018555,0.29267922043800354
1782811090195102200,5.677102294921875,-0.059667132794857025,0.08283098042011261,0.28964051604270935
1782811090205173200,5.68717333984375,-0.0632200539112091,0.024366337805986404,0.2528817057609558
1782811090215245300,5.697245361328125,-0.06921952962875366,-0.006314107682555914,0.21319739520549774
1782811090225316000,5.707316162109375,-0.06764533370733261,-0.001996058039367199,0.1633068025112152
1782811090235387100,5.71738720703125,-0.06284897774457932,-0.009843062609434128,0.09287923574447632
1782811090245459200,5.727459228515625,-0.0556865893304348,-0.057429101318120956,-0.010889255441725254
1782811090255530200,5.7375302734375,-0.037112846970558167,-0.13056720793247223,-0.11640855669975281
1782811090265601300,5.747601318359375,-0.014437364414334297,-0.1433410495519638,-0.19752231240272522
1782811090275673000,5.757673095703125,0.008515392430126667,-0.19138456881046295,-0.2754661738872528
1782811090285744000,5.767744140625,0.040300220251083374,-0.27316969633102417,-0.3393420875072479
