time,seconds_elapsed,z,y,x
1782811687685918200,0.068918212890625,-0.1907057762145996,-0.12694376707077026,0.32963016629219055
1782811687695989200,0.0789892578125,-0.18832188844680786,-0.061860039830207825,0.37102019786834717
1782811687706061300,0.089061279296875,-0.15256789326667786,-0.008000535890460014,0.3502003848552704
1782811687716133400,0.09913330078125,-0.10376786440610886,-0.008173907175660133,0.27642151713371277
1782811687726204400,0.109204345703125,-0.048026688396930695,-0.03067733161151409,0.18015815317630768
1782811687736276500,0.1192763671875,0.0022906973026692867,-0.041322700679302216,0.08732780814170837
1782811687746348300,0.129348388671875,0.047005705535411835,-0.04592011496424675,0.0023346184752881527
1782811687756419300,0.13941943359375,0.07872087508440018,-0.0619124174118042,-0.06542371958494186
1782811687766491400,0.149491455078125,0.10282381623983383,-0.10565723478794098,-0.10957307368516922
1782811687776562400,0.1595625,0.11310266703367233,-0.16140180826187134,-0.13102322816848755
1782811687786634500,0.169634521484375,0.10525033622980118,-0.2108130306005478,-0.12588758766651154
1782811687796706600,0.17970654296875,0.07333143800497055,-0.228811115026474,-0.10030713677406311
1782811687806777600,0.189777587890625,0.018591227009892464,-0.2205963283777237,-0.061340562999248505
1782811687816849400,0.199849365234375,-0.03662969172000885,-0.19168592989444733,-0.022446617484092712
1782811687826921500,0.20992138671875,-0.07928687334060669,-0.1600598245859146,0.004379404243081808
1782811687836992500,0.219992431640625,-0.11209583282470703,-0.12975333631038666,0.0080574294552207
1782811687847064600,0.230064697265625,-0.13215503096580505,-0.12852321565151215,-0.004437056370079517
1782811687857135600,0.240135498046875,-0.13425545394420624,-0.14519694447517395,-0.00598842604085803
1782811687867207400,0.25020751953125,-0.14808045327663422,-0.16283293068408966,0.01584044098854065
1782811687877279500,0.260279541015625,-0.1752322018146515,-0.17459623515605927,0.07521630823612213
1782811687887350300,0.270350341796875,-0.2095523625612259,-0.2186148315668106,0.1521691381931305
1782811687897422300,0.28042236328125,-0.2557052671909332,-0.29224297404289246,0.25214335322380066
1782811687907494400,0.290494384765625,-0.3109075427055359,-0.3406805694103241,0.36048874258995056
1782811687917565400,0.3005654296875,-0.33924946188926697,-0.30657628178596497,0.4627493619918823
1782811687927637200,0.31063720703125,-0.3571254014968872,-0.25358152389526367,0.5542383193969727
1782811687937708300,0.320708251953125,-0.3703030049800873,-0.21332404017448425,0.6617715954780579
1782811687947780400,0.3307802734375,-0.3320954144001007,-0.2221692055463791,0.7154827117919922
1782811687957852400,0.340852294921875,-0.2922905385494232,-0.20990318059921265,0.7174948453903198
1782811687967923500,0.35092333984375,-0.28190553188323975,-0.16605795919895172,0.691482424736023
1782811687977995500,0.36099560546875,-0.27226391434669495,-0.06860104203224182,0.6150413155555725
1782811687988067300,0.3710673828125,-0.2441563755273819,0.046130597591400146,0.47800198197364807
1782811687998138400,0.381138427734375,-0.19827210903167725,0.202273890376091,0.28401076793670654
1782811688008210400,0.39121044921875,-0.09744110703468323,0.446054607629776,0.019412681460380554
1782811688018281500,0.401281494140625,0.06054551526904106,0.7451536059379578,-0.2935749888420105
1782811688028353500,0.411353515625,0.2831602096557617,1.0634574890136719,-0.6323195099830627
1782811688038425300,0.42142529296875,0.5343140959739685,1.2900255918502808,-0.8922938108444214
1782811688048496400,0.431496337890625,0.7581444978713989,1.4272931814193726,-1.0523051023483276
1782811688058568400,0.441568359375,0.9029877185821533,1.470471978187561,-1.1359262466430664
1782811688068639500,0.451639404296875,0.9447705745697021,1.4320404529571533,-1.1695257425308228
1782811688078711600,0.461711669921875,0.9152845144271851,1.2678722143173218,-1.1568483114242554
1782811688088783600,0.47178369140625,0.8572390079498291,0.9738642573356628,-1.0979328155517578
1782811688098854700,0.481854736328125,0.7916272878646851,0.6538299918174744,-0.9916782379150391
1782811688108926500,0.491926513671875,0.7112573385238647,0.36803606152534485,-0.8601513504981995
1782811688118998500,0.50199853515625,0.6244938969612122,0.21167440712451935,-0.7327302694320679
1782811688129069300,0.5120693359375,0.5545816421508789,0.2027038186788559,-0.6155967712402344
1782811688139141400,0.522141357421875,0.5026008486747742,0.24248407781124115,-0.4784013628959656
1782811688149212400,0.53221240234375,0.48730796575546265,0.28601503372192383,-0.31429073214530945
1782811688159284500,0.542284423828125,0.4901846945285797,0.2756478786468506,-0.10815458744764328
1782811688169356300,0.552356201171875,0.48111823201179504,0.1774667352437973,0.13045959174633026
1782811688179427300,0.56242724609375,0.4290703237056732,0.05516650527715683,0.3899998962879181
1782811688189499400,0.57249951171875,0.36180418729782104,0.0198439359664917,0.6488319635391235
1782811688199571500,0.582571533203125,0.3357265293598175,0.21210099756717682,0.890654981136322
1782811688209642500,0.592642578125,0.36914944648742676,0.6002452373504639,1.119125485420227
1782811688219714300,0.60271435546875,0.397305965423584,1.0492311716079712,1.2824598550796509
1782811688229785300,0.612785400390625,0.270251601934433,0.954245388507843,1.1176999807357788
1782811688239857400,0.622857421875,-0.1893204301595688,0.4196914732456207,0.1769241988658905
1782811688249929500,0.632929443359375,-0.31018081307411194,0.12633152306079865,-0.665798008441925
1782811688260000500,0.64300048828125,0.04126535728573799,-0.2840665876865387,-0.8904321789741516
1782811688270072600,0.653072509765625,0.42836007475852966,-0.4726599454879761,-0.9409118890762329
1782811688280144400,0.663144287109375,0.5147445797920227,-0.7258012294769287,-0.9646916389465332
1782811688290215400,0.67321533203125,0.2506202757358551,-1.1328890323638916,-0.9875649809837341
1782811688300287500,0.68328759765625,-0.22669416666030884,-1.4687480926513672,-1.0709984302520752
1782811688310358500,0.693358642578125,-0.7181088924407959,-1.5336195230484009,-1.2148131132125854
1782811688320430600,0.7034306640625,-1.089063286781311,-1.2772772312164307,-1.3653218746185303
1782811688330502400,0.71350244140625,-1.307923674583435,-0.893865704536438,-1.5154980421066284
1782811688340573200,0.7235732421875,-1.4072043895721436,-0.61434406042099,-1.6336569786071777
1782811688350645500,0.7336455078125,-1.4223167896270752,-0.4798922836780548,-1.6976312398910522
1782811688360717600,0.743717529296875,-1.317657709121704,-0.49469923973083496,-1.6482003927230835
1782811688370788400,0.753788330078125,-1.0730199813842773,-0.5771584510803223,-1.4432302713394165
1782811688380860400,0.7638603515625,-0.7460486888885498,-0.6937456727027893,-1.1084710359573364
1782811688390931500,0.773931396484375,-0.3945987820625305,-0.8422062397003174,-0.7343932390213013
1782811688401003300,0.784003173828125,-0.09062368422746658,-0.9793956875801086,-0.43610239028930664
1782811688411075300,0.794075439453125,0.09597069770097733,-1.0054118633270264,-0.2631109058856964
1782811688421146400,0.804146484375,0.15768782794475555,-0.8454391360282898,-0.20121048390865326
1782811688431218400,0.814218505859375,0.1358775943517685,-0.5289211273193359,-0.17365793883800507
1782811688441290800,0.824290771484375,0.06566572189331055,-0.12779217958450317,-0.11432437598705292
1782811688451361800,0.83436181640625,-0.03007306158542633,0.22842718660831451,0.01200000662356615
1782811688461433900,0.844433837890625,-0.11260226368904114,0.4703488349914551,0.19973641633987427
1782811688471505000,0.8545048828125,-0.16227073967456818,0.6307752728462219,0.4305131733417511
1782811688481577000,0.864576904296875,-0.18866199254989624,0.7196186780929565,0.6291785836219788
1782811688491649000,0.87464892578125,-0.20117245614528656,0.7602902054786682,0.7508224844932556
1782811688501720000,0.884719970703125,-0.17285913228988647,0.7526149749755859,0.7802282571792603
1782811688511791900,0.8947919921875,-0.13580897450447083,0.6978907585144043,0.724808931350708
1782811688521864000,0.904864013671875,-0.08962146937847137,0.6172640919685364,0.6502863168716431
1782811688531935000,0.91493505859375,-0.01488837692886591,0.4913754165172577,0.6145895719528198
1782811688542007000,0.925007080078125,0.07609909772872925,0.320255309343338,0.6604086756706238
1782811688552078000,0.935078125,0.1780449002981186,0.2028684914112091,0.7801966071128845
1782811688562150000,0.94514990234375,0.3045054078102112,0.13993337750434875,0.9322270750999451
1782811688572222000,0.955221923828125,0.4207119047641754,0.112767793238163,1.0627588033676147
1782811688582293000,0.96529296875,0.5129824280738831,0.10314109921455383,1.1558008193969727
1782811688592365000,0.975364990234375,0.5761789679527283,0.06035608798265457,1.1978212594985962
1782811688602437000,0.98543701171875,0.6002866625785828,0.055617522448301315,1.2117341756820679
1782811688612508000,0.9955078125,0.6179530024528503,0.05286621302366257,1.2385787963867188
1782811688622579700,1.005579833984375,0.6278191804885864,0.053335219621658325,1.278225064277649
1782811688632650800,1.015650634765625,0.6520035862922668,0.06634955108165741,1.3382489681243896
1782811688642722800,1.025722900390625,0.6816632747650146,0.08427829295396805,1.3903406858444214
1782811688652795000,1.035794921875,0.7440480589866638,0.0771080031991005,1.4481568336486816
1782811688662866000,1.045865966796875,0.823636531829834,0.09701325744390488,1.5085426568984985
1782811688672938000,1.05593798828125,0.8746411800384521,0.17227205634117126,1.5585805177688599
1782811688683009000,1.066009033203125,0.8731703162193298,0.2183261513710022,1.5868948698043823
1782811688693080800,1.076080810546875,0.8029579520225525,0.2681799829006195,1.5831948518753052
1782811688703153000,1.08615283203125,0.7414937615394592,0.39754989743232727,1.5889332294464111
1782811688713224000,1.096223876953125,0.8017863631248474,0.5482944250106812,1.5629665851593018
1782811688723296000,1.1062958984375,0.931698739528656,0.6461082100868225,1.4857357740402222
1782811688733367800,1.116367919921875,0.9930854439735413,0.5323747396469116,1.3155248165130615
1782811688743438800,1.12643896484375,0.8661397695541382,0.0803905799984932,1.004421591758728
1782811688753511000,1.136510986328125,0.5929868221282959,-0.45367947220802307,0.554173469543457
1782811688763582000,1.14658203125,0.29643404483795166,-0.8433769941329956,0.045182473957538605
1782811688773654000,1.156654052734375,0.004348941147327423,-1.076914668083191,-0.4903499484062195
1782811688783726000,1.16672607421875,-0.29493603110313416,-1.1964365243911743,-1.0328794717788696
1782811688793797000,1.176797119140625,-0.6071913838386536,-1.2217844724655151,-1.5087088346481323
1782811688803869000,1.186868896484375,-0.9163647294044495,-1.2250896692276,-1.831235647201538
1782811688813939700,1.196939697265625,-1.1978152990341187,-1.1750224828720093,-2.0294623374938965
1782811688824012000,1.207011962890625,-1.4382468461990356,-1.0821948051452637,-2.221935987472534
1782811688834084000,1.217083984375,-1.5555020570755005,-0.8744117617607117,-2.447608470916748
1782811688844155000,1.22715478515625,-1.556723713874817,-0.6058073043823242,-2.6651766300201416
1782811688854227000,1.23722705078125,-1.4698103666305542,-0.43207305669784546,-2.901948928833008
1782811688864298800,1.247298828125,-1.3405709266662598,-0.4783838987350464,-3.1541342735290527
1782811688874369800,1.257369873046875,-1.2626221179962158,-0.69248366355896,-3.4424080848693848
1782811688884441900,1.26744189453125,-1.1853939294815063,-1.0150291919708252,-3.6801576614379883
1782811688894513000,1.277512939453125,-1.0856431722640991,-1.4738454818725586,-3.7496280670166016
1782811688904585000,1.2875849609375,-1.1124076843261719,-2.02046799659729,-3.64536452293396
1782811688914656800,1.29765673828125,-1.2914700508117676,-2.3410520553588867,-3.3625597953796387
1782811688924727800,1.307727783203125,-1.5528234243392944,-2.209660291671753,-2.9227852821350098
1782811688934800000,1.3177998046875,-1.8024662733078003,-1.7395250797271729,-2.416226625442505
1782811688944872000,1.327871826171875,-1.9575873613357544,-1.2919312715530396,-1.929112434387207
1782811688954943000,1.33794287109375,-1.973085641860962,-1.0486046075820923,-1.4931148290634155
1782811688965015000,1.34801513671875,-1.8672088384628296,-1.0540757179260254,-1.0559234619140625
1782811688975086000,1.358086181640625,-1.6721829175949097,-1.1705893278121948,-0.5994699001312256
1782811688985158000,1.368157958984375,-1.4661043882369995,-1.2121436595916748,-0.13430576026439667
1782811688995230000,1.37822998046875,-1.3694159984588623,-1.1606827974319458,0.3000589907169342
1782811689005301000,1.388301025390625,-1.3425415754318237,-1.3616479635238647,0.6627822518348694
1782811689015373000,1.398373046875,-1.42575204372406,-1.7352993488311768,0.9997909665107727
1782811689025444000,1.408444091796875,-1.602431058883667,-1.9530720710754395,1.3852699995040894
1782811689035516000,1.418515869140625,-1.8376286029815674,-1.9171146154403687,1.84495210647583
1782811689045588000,1.428587890625,-2.023864269256592,-1.641879677772522,2.2940313816070557
1782811689055658800,1.43865869140625,-1.962607502937317,-0.9839303493499756,2.5768465995788574
1782811689065730800,1.448730712890625,-1.6570665836334229,-0.557638943195343,2.832261323928833
1782811689075803100,1.45880322265625,-1.1539350748062134,0.02186995930969715,2.98431396484375
1782811689085874000,1.4688740234375,-0.5721556544303894,0.7439330816268921,3.004365921020508
1782811689095945700,1.47894580078125,0.0837547704577446,1.4934552907943726,2.7461612224578857
1782811689106016800,1.489016845703125,0.7906246781349182,2.100304365158081,2.10463285446167
1782811689116088800,1.4990888671875,1.34459388256073,2.694481134414673,1.4960551261901855
1782811689126161000,1.509160888671875,1.7373976707458496,3.2062947750091553,1.1419157981872559
1782811689136232000,1.51923193359375,1.9067879915237427,3.597907781600952,1.0697100162506104
1782811689146304000,1.529303955078125,1.867990493774414,3.801973581314087,1.2342467308044434
1782811689156375000,1.539375,1.751584768295288,3.599433183670044,1.5800925493240356
1782811689166446800,1.54944677734375,1.5978413820266724,3.084017276763916,2.044386148452759
1782811689176519000,1.559518798828125,1.3960230350494385,2.5939011573791504,2.5292959213256836
1782811689186590000,1.56958984375,1.1561729907989502,2.2373061180114746,2.8724939823150635
1782811689196662000,1.579662109375,0.9644365310668945,1.9608590602874756,2.990466833114624
1782811689206733800,1.58973388671875,0.9141016006469727,1.6448233127593994,2.9190990924835205
1782811689216804900,1.599804931640625,0.9969567656517029,1.390866756439209,2.6991147994995117
1782811689226877000,1.609876953125,1.1200346946716309,1.4366426467895508,2.4387459754943848
1782811689236948000,1.619947998046875,1.1645324230194092,1.5250358581542969,2.125990390777588
1782811689247020000,1.63002001953125,1.055858850479126,1.1542109251022339,1.6429674625396729
1782811689257092000,1.640092041015625,0.8442093729972839,0.49258771538734436,1.002774715423584
1782811689267163100,1.6501630859375,0.6286945939064026,-0.00482477992773056,0.3328494131565094
1782811689277235000,1.66023486328125,0.4808276891708374,-0.27238592505455017,-0.2966022789478302
1782811689287305700,1.6703056640625,0.3810008466243744,-0.48561522364616394,-0.8577256202697754
1782811689297377800,1.680377685546875,0.27976372838020325,-0.5622761845588684,-1.2860621213912964
1782811689307449900,1.690449951171875,0.19828392565250397,-0.41397905349731445,-1.584542989730835
1782811689317521000,1.70052099609375,0.18130041658878326,-0.1285472959280014,-1.8428014516830444
1782811689327593000,1.710593017578125,0.2424176037311554,0.1240248754620552,-2.0739641189575195
1782811689337664800,1.720664794921875,0.3609793782234192,0.32823553681373596,-2.212425470352173
1782811689347735800,1.73073583984375,0.50760817527771,0.4261544346809387,-2.2172460556030273
1782811689357807900,1.740807861328125,0.620579183101654,0.34254878759384155,-2.1050491333007812
1782811689367879000,1.75087890625,0.6713559627532959,0.12393008172512054,-1.9217429161071777
1782811689377951000,1.760950927734375,0.6181632876396179,-0.13191287219524384,-1.720720887184143
1782811689388022800,1.771022705078125,0.41298380494117737,-0.37221547961235046,-1.5685229301452637
1782811689398093800,1.78109375,0.08065379410982132,-0.6077835559844971,-1.4632548093795776
1782811689408166000,1.791165771484375,-0.27652525901794434,-0.7632156610488892,-1.382537603378296
1782811689418237000,1.80123681640625,-0.5633732676506042,-0.5888693928718567,-1.2914327383041382
1782811689428309000,1.81130908203125,-0.7042035460472107,-0.10155754536390305,-1.1874337196350098
1782811689438381000,1.821381103515625,-0.6857821941375732,0.5001594424247742,-1.0891913175582886
1782811689448452900,1.831452880859375,-0.5691357851028442,1.0188237428665161,-0.9817397594451904
1782811689458525000,1.84152490234375,-0.44219592213630676,1.283986210823059,-0.8751763105392456
1782811689468597000,1.851596923828125,-0.3565045893192291,1.3131102323532104,-0.7621172070503235
1782811689478668000,1.86166796875,-0.2731367349624634,1.1694440841674805,-0.6332005262374878
1782811689488739800,1.87173974609375,-0.18615378439426422,0.9170545935630798,-0.465940922498703
1782811689498811000,1.881810791015625,-0.08173976838588715,0.6636665463447571,-0.2609345018863678
1782811689508883000,1.891883056640625,0.041474416851997375,0.482743501663208,-0.017387261614203453
1782811689518955000,1.901955078125,0.15075775980949402,0.38227230310440063,0.24998211860656738
1782811689529026000,1.912026123046875,0.2180488109588623,0.3543259799480438,0.5269958972930908
1782811689539098000,1.92209814453125,0.2768218517303467,0.37710797786712646,0.7779953479766846
1782811689549169200,1.932169189453125,0.3415178954601288,0.418002188205719,0.971910834312439
1782811689559241000,1.942240966796875,0.3991124927997589,0.4652639627456665,1.0924214124679565
1782811689569313000,1.95231298828125,0.4367144703865051,0.51978600025177,1.1551998853683472
1782811689579384000,1.962384033203125,0.43529340624809265,0.5444124937057495,1.1588220596313477
1782811689589456100,1.9724560546875,0.4170171916484833,0.5451650023460388,1.108372688293457
1782811689599528200,1.982528076171875,0.3652820885181427,0.5284656882286072,1.0148131847381592
1782811689609599200,1.99259912109375,0.28683680295944214,0.5021568536758423,0.9124727249145508
1782811689619671000,2.002671142578125,0.21174100041389465,0.46230843663215637,0.8199076652526855
1782811689629742000,2.0127421875,0.15066716074943542,0.37245893478393555,0.7581482529640198
1782811689639814100,2.022814208984375,0.12051405012607574,0.21961158514022827,0.751563310623169
1782811689649886200,2.03288623046875,0.09732238948345184,0.002380453748628497,0.7994934320449829
1782811689659957000,2.04295703125,0.01098536979407072,-0.29997488856315613,0.9108697772026062
1782811689670029000,2.053029052734375,-0.14953331649303436,-0.6124046444892883,1.104637622833252
1782811689680099800,2.063099853515625,-0.34202420711517334,-0.7421945929527283,1.3454068899154663
1782811689690172000,2.073171875,-0.4618697762489319,-0.5021249055862427,1.5310832262039185
1782811689700244000,2.083243896484375,-0.47892332077026367,-0.12686823308467865,1.5516623258590698
1782811689710315000,2.09331494140625,-0.4117019474506378,0.09561575949192047,1.355151891708374
1782811689720387000,2.103386962890625,-0.31898584961891174,-0.029712066054344177,1.013480544090271
1782811689730459000,2.113458984375,-0.36944466829299927,-0.5478318333625793,0.6233717799186707
1782811689740530000,2.123530029296875,-0.5842693448066711,-1.146433711051941,0.2462919056415558
1782811689750602000,2.13360205078125,-0.7635306715965271,-1.568677306175232,-0.0953948050737381
1782811689760673000,2.143673095703125,-0.7959948778152466,-1.8532181978225708,-0.4037611484527588
1782811689770745000,2.1537451171875,-0.7029226422309875,-1.9665868282318115,-0.6273362636566162
1782811689780817200,2.163817138671875,-0.5831610560417175,-2.0392189025878906,-0.7480757236480713
1782811689790888200,2.17388818359375,-0.5116432905197144,-2.019602060317993,-0.8239704370498657
1782811689800960000,2.1839599609375,-0.4841727614402771,-1.7479758262634277,-0.9042159914970398
1782811689811031000,2.194031005859375,-0.44838184118270874,-1.2212860584259033,-0.9713451862335205
1782811689821103000,2.20410302734375,-0.37434810400009155,-0.6866427659988403,-1.0720186233520508
1782811689831175200,2.214175048828125,-0.32481634616851807,-0.40484175086021423,-1.2315582036972046
1782811689841246200,2.22424609375,-0.33846399188041687,-0.3932114541530609,-1.416743278503418
1782811689851318000,2.234318115234375,-0.4073815941810608,-0.5908476710319519,-1.5884639024734497
1782811689861390000,2.24439013671875,-0.4905603528022766,-0.8578852415084839,-1.7056165933609009
1782811689871461000,2.254461181640625,-0.5432218313217163,-1.0336554050445557,-1.7717489004135132
1782811689881533200,2.264533203125,-0.5380966067314148,-1.1362144947052002,-1.796366572380066
1782811689891604000,2.27460400390625,-0.4905533492565155,-1.1466835737228394,-1.741806149482727
1782811689901676000,2.284676025390625,-0.4277530908584595,-0.9946466684341431,-1.5767793655395508
1782811689911747800,2.294747802734375,-0.32182392477989197,-0.6299426555633545,-1.2904512882232666
1782811689921819000,2.30481884765625,-0.1933801919221878,-0.20799964666366577,-0.9463855028152466
1782811689931891000,2.314890869140625,-0.11338172852993011,0.11869165301322937,-0.6202109456062317
1782811689941962000,2.3249619140625,-0.09553828090429306,0.34956666827201843,-0.3669768273830414
1782811689952034000,2.335033935546875,-0.09612856805324554,0.5571818947792053,-0.2121322602033615
1782811689962106000,2.345106201171875,-0.110141322016716,0.7239599823951721,-0.14272628724575043
1782811689972177200,2.35517724609375,-0.14071393013000488,0.8202521800994873,-0.1280505657196045
1782811689982249000,2.3652490234375,-0.1908993422985077,0.8241483569145203,-0.1565362811088562
1782811689992321000,2.375321044921875,-0.23486748337745667,0.7397761344909668,-0.20061232149600983
1782811690002392000,2.38539208984375,-0.25933393836021423,0.5708324313163757,-0.22585535049438477
1782811690012464000,2.395464111328125,-0.24485157430171967,0.4094892144203186,-0.20295561850070953
1782811690022535200,2.40553515625,-0.19825051724910736,0.28995802998542786,-0.11508382856845856
1782811690032607000,2.41560693359375,-0.1551780104637146,0.20787248015403748,0.038545817136764526
1782811690042679000,2.425678955078125,-0.1280401349067688,0.1617201566696167,0.23022498190402985
1782811690052750000,2.43575,-0.09466046839952469,0.14413000643253326,0.4245794117450714
1782811690062822100,2.445822265625,-0.05205069109797478,0.1460229903459549,0.594125509262085
1782811690072893200,2.45589306640625,-0.013589142821729183,0.16571958363056183,0.7362124919891357
1782811690082965200,2.46596533203125,0.013287745416164398,0.1889018714427948,0.8406044244766235
1782811690093037000,2.476037109375,0.02746596373617649,0.21090072393417358,0.8977603912353516
1782811690103107800,2.48610791015625,0.03294328600168228,0.23129095137119293,0.8969078660011292
1782811690113180200,2.49618017578125,0.047562431544065475,0.20211569964885712,0.8639686703681946
1782811690123251000,2.5062509765625,0.07342012971639633,0.10850798338651657,0.8474988341331482
1782811690133323000,2.516322998046875,0.0831315815448761,-0.03216908499598503,0.8642500638961792
1782811690143395000,2.52639501953125,0.0740821585059166,-0.12847404181957245,0.9552697539329529
1782811690153466000,2.536466064453125,0.03577088564634323,-0.16016685962677002,1.111527442932129
1782811690163538000,2.546537841796875,-0.08699764311313629,-0.07452838122844696,1.3100322484970093
1782811690173610000,2.55660986328125,-0.2719722390174866,0.19895020127296448,1.506479263305664
1782811690183681000,2.566680908203125,-0.4223601520061493,0.6460840106010437,1.614683985710144
1782811690193753000,2.576753173828125,-0.4818040430545807,1.1309863328933716,1.5196008682250977
1782811690203824000,2.58682421875,-0.38349640369415283,1.562440276145935,1.2621523141860962
1782811690213896000,2.59689599609375,-0.1463046818971634,1.8431087732315063,0.9508965015411377
1782811690223968000,2.606968017578125,0.1406666338443756,1.8223403692245483,0.698476254940033
1782811690234039000,2.6170390625,0.33016473054885864,1.3795291185379028,0.6004107594490051
1782811690244111000,2.627111083984375,0.3543744683265686,0.6791529059410095,0.688206136226654
1782811690254182100,2.63718212890625,0.33907321095466614,-0.0033984871115535498,0.8786097764968872
1782811690264254200,2.647254150390625,0.38124731183052063,-0.6657607555389404,1.0320649147033691
1782811690274326000,2.657325927734375,0.433695912361145,-1.239417314529419,1.096055507659912
1782811690284397000,2.66739697265625,0.46953248977661133,-1.5183109045028687,1.061613917350769
1782811690294469000,2.67746923828125,0.46726319193840027,-1.4590049982070923,0.9384618997573853
1782811690304540200,2.6875400390625,0.3947640657424927,-1.15174400806427,0.7450212240219116
1782811690314612200,2.6976123046875,0.2558557987213135,-0.6896418929100037,0.4631733298301697
1782811690324684000,2.70768408203125,0.1230040043592453,-0.17360198497772217,0.08297031372785568
1782811690334754800,2.7177548828125,0.009363834746181965,0.23475134372711182,-0.38030651211738586
1782811690344827000,2.727826904296875,-0.11278896778821945,0.4455874264240265,-0.8565441370010376
1782811690354899000,2.73789892578125,-0.23872654139995575,0.4074552357196808,-1.2992881536483765
1782811690364970000,2.747969970703125,-0.3267376124858856,0.12363496422767639,-1.638914704322815
1782811690375042000,2.7580419921875,-0.3532719910144806,-0.25454625487327576,-1.7936720848083496
1782811690385113000,2.768113037109375,-0.34133490920066833,-0.6126314401626587,-1.7432407140731812
1782811690395185000,2.778184814453125,-0.34023016691207886,-0.8925490379333496,-1.5245572328567505
1782811690405257000,2.788257080078125,-0.36118391156196594,-1.0392916202545166,-1.2011016607284546
1782811690415328000,2.798327880859375,-0.3757997155189514,-1.0031530857086182,-0.8480481505393982
1782811690425400000,2.808400146484375,-0.3738015592098236,-0.8203190565109253,-0.5424627065658569
1782811690435471000,2.81847119140625,-0.3581840693950653,-0.5741913318634033,-0.356045663356781
1782811690445542100,2.828542236328125,-0.3483876585960388,-0.3707851469516754,-0.3067534863948822
1782811690455614200,2.8386142578125,-0.33531734347343445,-0.20140822231769562,-0.3493654131889343
1782811690465685200,2.848685302734375,-0.3225994408130646,-0.042322173714637756,-0.4292525053024292
1782811690475757000,2.858757080078125,-0.3157135844230652,0.11165422201156616,-0.49625688791275024
1782811690485829000,2.8688291015625,-0.31167250871658325,0.2537517249584198,-0.5428441166877747
1782811690495900200,2.878900146484375,-0.3234146535396576,0.355924129486084,-0.5585132241249084
1782811690505972200,2.88897216796875,-0.3463711142539978,0.38898754119873047,-0.5473990440368652
1782811690516043300,2.899043212890625,-0.34521612524986267,0.3846850097179413,-0.5009149312973022
1782811690526115000,2.909114990234375,-0.31865426898002625,0.3542858362197876,-0.42504653334617615
1782811690536187100,2.919187255859375,-0.2761791944503784,0.309599906206131,-0.31158366799354553
1782811690546258200,2.929258056640625,-0.2105085700750351,0.2761410176753998,-0.17345695197582245
1782811690556330200,2.939330322265625,-0.13269461691379547,0.24426503479480743,-0.025383854284882545
1782811690566401300,2.9494013671875,-0.06083427742123604,0.21703261137008667,0.11814934015274048
1782811690576473300,2.959473388671875,0.001928442157804966,0.20843540132045746,0.2500000596046448
1782811690586545200,2.969545166015625,0.05844045430421829,0.2078513652086258,0.3511621057987213
1782811690596616200,2.9796162109375,0.09005045145750046,0.20868897438049316,0.41637498140335083
1782811690606688300,2.989688232421875,0.10433937609195709,0.2309625893831253,0.45851656794548035
1782811690616759300,2.99975927734375,0.09224248677492142,0.25139376521110535,0.49675464630126953
1782811690626831400,3.009831298828125,0.06323985755443573,0.260682612657547,0.5292097926139832
1782811690636903200,3.019903076171875,0.027672145515680313,0.24372117221355438,0.5406367778778076
1782811690646974200,3.02997412109375,-0.013838546350598335,0.2255123406648636,0.5265201330184937
1782811690657046300,3.04004638671875,-0.04788697883486748,0.22043375670909882,0.5280647277832031
1782811690667118300,3.050118408203125,-0.045345526188611984,0.2745252251625061,0.6014150977134705
1782811690677189000,3.060189208984375,0.012045340612530708,0.4700486958026886,0.7953536510467529
1782811690687261200,3.07026123046875,0.09213192015886307,0.7870674133300781,1.0893471240997314
1782811690697332200,3.080332275390625,0.13564889132976532,1.0747536420822144,1.3944987058639526
1782811690707404000,3.090404052734375,0.11107829213142395,1.345550298690796,1.6167129278182983
1782811690717476000,3.10047607421875,0.07348616421222687,1.5296378135681152,1.7023483514785767
1782811690727547100,3.110547119140625,0.07030635327100754,1.4977658987045288,1.614076018333435
1782811690737619200,3.120619140625,0.09113089740276337,1.2773100137710571,1.4025400876998901
1782811690747690200,3.130690185546875,0.13085967302322388,0.8583127856254578,1.1471567153930664
1782811690757762300,3.14076220703125,0.08882800489664078,0.27328744530677795,0.8371021151542664
1782811690767834000,3.150834228515625,0.029340706765651703,-0.2854221761226654,0.5199313759803772
1782811690777905200,3.1609052734375,0.051866430789232254,-0.7860289216041565,0.24089211225509644
1782811690787977200,3.170977294921875,0.1270434707403183,-1.175252079963684,0.04095209762454033
1782811690798048300,3.18104833984375,0.181341290473938,-1.317505955696106,-0.07486909627914429
1782811690808120300,3.191120361328125,0.20221222937107086,-1.2104394435882568,-0.13020558655261993
1782811690818192100,3.201192138671875,0.15509669482707977,-0.8777377605438232,-0.17187564074993134
1782811690828263200,3.21126318359375,0.021190565079450607,-0.37320640683174133,-0.2537454664707184
1782811690838335200,3.221335205078125,-0.13591895997524261,0.1332690417766571,-0.44239264726638794
1782811690848407300,3.2314072265625,-0.2684820890426636,0.5245175361633301,-0.7667562961578369
1782811690858478300,3.241478271484375,-0.3773413598537445,0.709908127784729,-1.1818163394927979
1782811690868550400,3.25155029296875,-0.47049206495285034,0.5810393691062927,-1.591691017150879
1782811690878621200,3.26162109375,-0.5338729619979858,0.197347953915596,-1.8593696355819702
1782811690888693200,3.271693359375,-0.5555923581123352,-0.2518484890460968,-1.8936957120895386
1782811690898765300,3.281765380859375,-0.5427271723747253,-0.6336301565170288,-1.6922801733016968
1782811690908836000,3.291836181640625,-0.5204184055328369,-0.8631192445755005,-1.3178967237472534
1782811690918908200,3.301908203125,-0.5026437640190125,-0.9265579581260681,-0.8911903500556946
1782811690928979200,3.311979248046875,-0.491958349943161,-0.8638136386871338,-0.5047240853309631
1782811690939051300,3.32205126953125,-0.482726514339447,-0.7161445617675781,-0.2502288818359375
1782811690949123000,3.332123046875,-0.46050935983657837,-0.501948893070221,-0.1578611433506012
1782811690959194000,3.342194091796875,-0.43989649415016174,-0.23984402418136597,-0.2152928113937378
1782811690969266200,3.35226611328125,-0.4110366106033325,-0.0033002053387463093,-0.3739578425884247
1782811690979337200,3.362337158203125,-0.4026579260826111,0.18812775611877441,-0.563652753829956
1782811690989409300,3.3724091796875,-0.41040077805519104,0.3678911328315735,-0.7279365062713623
1782811690999481000,3.382481201171875,-0.41852080821990967,0.518326997756958,-0.8353374004364014
1782811691009552100,3.39255224609375,-0.4255659282207489,0.588787853717804,-0.8822492361068726
1782811691019624200,3.402624267578125,-0.4175410866737366,0.5586772561073303,-0.8615689873695374
1782811691029695200,3.4126953125,-0.4067227840423584,0.4657198488712311,-0.7668728232383728
1782811691039767300,3.422767333984375,-0.3846423029899597,0.3625067472457886,-0.6171472668647766
1782811691049839400,3.43283935546875,-0.33853045105934143,0.3008449673652649,-0.44802823662757874
1782811691059910400,3.442910400390625,-0.2620907425880432,0.2770768404006958,-0.29075390100479126
1782811691069982200,3.452982177734375,-0.17463280260562897,0.2602251470088959,-0.1618683785200119
1782811691080054300,3.46305419921875,-0.08208128064870834,0.26096370816230774,-0.06534642726182938
1782811691090125300,3.473125244140625,0.02432052604854107,0.2619757056236267,0.006621236447244883
1782811691100197400,3.483197265625,0.1422947496175766,0.2803298532962799,0.0861469954252243
1782811691110268200,3.49326806640625,0.27371588349342346,0.31070587038993835,0.2054358422756195
1782811691120340200,3.50334033203125,0.3926285207271576,0.32694917917251587,0.3583623468875885
1782811691130412000,3.513412109375,0.49216896295547485,0.33667051792144775,0.5413071513175964
1782811691140483000,3.523483154296875,0.5637525916099548,0.33859744668006897,0.7403272390365601
1782811691150555100,3.53355517578125,0.6210113167762756,0.32452237606048584,0.9188011288642883
1782811691160626200,3.543626220703125,0.67421954870224,0.3198816478252411,1.0599416494369507
1782811691170698200,3.5536982421875,0.7169337272644043,0.34617742896080017,1.2002681493759155
1782811691180770000,3.56377001953125,0.760306715965271,0.4144081473350525,1.3803778886795044
1782811691190841000,3.573841064453125,0.8004176020622253,0.5122870802879333,1.6210181713104248
1782811691200913200,3.5839130859375,0.8380756378173828,0.714824378490448,1.8623594045639038
1782811691210984200,3.593984130859375,0.8294416666030884,0.9701530933380127,2.0233561992645264
1782811691221056300,3.60405615234375,0.77833491563797,1.223978877067566,1.9951924085617065
1782811691231128300,3.61412841796875,0.7532426118850708,1.2901437282562256,1.684564471244812
1782811691241199400,3.624199462890625,0.7775130271911621,1.0206513404846191,1.1320809125900269
1782811691251271200,3.634271240234375,0.7908157706260681,0.46835166215896606,0.5269148945808411
1782811691261342200,3.64434228515625,0.6929064393043518,-0.15987767279148102,0.05139118432998657
1782811691271414300,3.654414306640625,0.571034848690033,-0.6701883673667908,-0.2559237480163574
1782811691281486300,3.664486328125,0.5758109092712402,-0.8590624332427979,-0.3314083218574524
1782811691291557400,3.674557373046875,0.6556274890899658,-0.7336259484291077,-0.1709507405757904
1782811691301629200,3.684629150390625,0.7272521257400513,-0.3806682229042053,0.12232496589422226
1782811691311701200,3.694701171875,0.7732707858085632,-0.015155497938394547,0.3779492676258087
1782811691321772000,3.70477197265625,0.7711130976676941,0.2342575043439865,0.47260212898254395
1782811691331844400,3.71484423828125,0.6945330500602722,0.32421961426734924,0.35516390204429626
1782811691341915100,3.7249150390625,0.5320369601249695,0.29764091968536377,0.025676289573311806
1782811691351987200,3.7349873046875,0.32421401143074036,0.26123949885368347,-0.4279066324234009
1782811691362059000,3.74505908203125,0.11796723306179047,0.22545914351940155,-0.9449169039726257
1782811691372130000,3.755130126953125,-0.06264568865299225,0.0894637480378151,-1.4288228750228882
1782811691382202000,3.7652021484375,-0.1819123923778534,-0.14249347150325775,-1.7607136964797974
1782811691392273200,3.775273193359375,-0.19237621128559113,-0.36780354380607605,-1.8647769689559937
1782811691402345200,3.78534521484375,-0.10942951589822769,-0.5745558142662048,-1.7388232946395874
1782811691412417300,3.795417236328125,0.03571036458015442,-0.7777459621429443,-1.4223878383636475
1782811691422488300,3.80548828125,0.20049738883972168,-0.9306755661964417,-0.9929102659225464
1782811691432560000,3.81556005859375,0.3040466904640198,-0.9786369800567627,-0.5319072604179382
1782811691442631200,3.825631103515625,0.31155404448509216,-0.9350880980491638,-0.16139188408851624
1782811691452703000,3.835702880859375,0.23103655874729156,-0.8084566593170166,0.033223677426576614
1782811691462775000,3.845775146484375,0.09982674568891525,-0.5990729928016663,0.02118251845240593
1782811691472846000,3.85584619140625,-0.07038307189941406,-0.34259673953056335,-0.16572745144367218
1782811691482918100,3.865918212890625,-0.23861750960350037,-0.04910211265087128,-0.46254196763038635
1782811691492989200,3.8759892578125,-0.400861531496048,0.1787736564874649,-0.7835865616798401
1782811691503061000,3.88606103515625,-0.5504777431488037,0.2930378019809723,-1.0497493743896484
1782811691513133000,3.896133056640625,-0.6581078171730042,0.31145358085632324,-1.219901204109192
1782811691523204000,3.9062041015625,-0.7131768465042114,0.21931451559066772,-1.293829083442688
1782811691533276200,3.916276123046875,-0.7064238786697388,0.0619020015001297,-1.2673401832580566
1782811691543348000,3.926347900390625,-0.6495688557624817,-0.11780665814876556,-1.1316533088684082
1782811691553419000,3.9364189453125,-0.5675466656684875,-0.2694004476070404,-0.9167261719703674
1782811691563491000,3.946490966796875,-0.4720802903175354,-0.3691975772380829,-0.6638131737709045
1782811691573562000,3.95656201171875,-0.3719419538974762,-0.386042058467865,-0.39579880237579346
1782811691583634200,3.96663427734375,-0.2602815330028534,-0.3218806982040405,-0.14628328382968903
1782811691593706200,3.976706298828125,-0.1417170763015747,-0.23534047603607178,0.055189650505781174
1782811691603777000,3.986777099609375,-0.05139102041721344,-0.19044162333011627,0.18992480635643005
1782811691613849000,3.99684912109375,0.003227481385692954,-0.15993298590183258,0.27446767687797546
1782811691623919900,4.006919921875,0.03828275576233864,-0.10011299699544907,0.32183006405830383
1782811691633992000,4.016991943359375,0.06714022904634476,-0.022176390513777733,0.35566818714141846
1782811691644064000,4.02706396484375,0.0758381187915802,0.08950593322515488,0.3836124837398529
1782811691654135000,4.037135009765625,0.07796917855739594,0.21828414499759674,0.42980527877807617
1782811691664207000,4.04720703125,0.07150375097990036,0.3578636050224304,0.5301225185394287
1782811691674278100,4.057278076171875,0.07723434269428253,0.5028362274169922,0.7037158608436584
1782811691684350000,4.067349853515625,0.09585028141736984,0.624727725982666,0.9567521810531616
1782811691694422000,4.077422119140625,0.14289610087871552,0.7786712050437927,1.2612169981002808
1782811691704493000,4.0874931640625,0.23087505996227264,0.9137791395187378,1.5263469219207764
1782811691714565000,4.097565185546875,0.30536821484565735,0.949924647808075,1.657554268836975
1782811691724636200,4.10763623046875,0.3356451094150543,0.9902282357215881,1.621492862701416
1782811691734708000,4.1177080078125,0.416519433259964,1.1278542280197144,1.4464987516403198
1782811691744780000,4.127780029296875,0.6055037975311279,1.1907743215560913,1.1859745979309082
1782811691754851000,4.13785107421875,0.7961123585700989,0.9869788885116577,0.9401019215583801
1782811691764923100,4.147923095703125,0.8901118636131287,0.5415116548538208,0.7725235819816589
1782811691774994200,4.157994140625,0.8805385828018188,-0.04415181651711464,0.627490758895874
1782811691785066200,4.168066162109375,0.858730673789978,-0.6035047173500061,0.4555751383304596
1782811691795138000,4.178137939453125,0.9114516377449036,-1.0442149639129639,0.28257885575294495
1782811691805209000,4.188208984375,1.0035377740859985,-1.372435212135315,0.114720419049263
1782811691815281200,4.19828125,1.0813332796096802,-1.5373942852020264,-0.035983871668577194
1782811691825352000,4.20835205078125,1.10745108127594,-1.4523800611495972,-0.13480055332183838
1782811691835424000,4.218424072265625,1.0394864082336426,-1.158049464225769,-0.19450730085372925
1782811691845496000,4.22849609375,0.8466365337371826,-0.7450190186500549,-0.29440373182296753
1782811691855567000,4.238567138671875,0.5844184756278992,-0.22042524814605713,-0.5065401792526245
1782811691865639000,4.248638916015625,0.2878698408603668,0.35864031314849854,-0.8684296607971191
1782811691875710000,4.2587099609375,-0.025962118059396744,0.8434253931045532,-1.3696117401123047
1782811691885782000,4.268781982421875,-0.33272066712379456,1.1711349487304688,-1.9475151300430298
1782811691895854000,4.27885400390625,-0.5983206629753113,1.1843559741973877,-2.492555618286133
1782811691905925000,4.288925048828125,-0.7659292817115784,0.8652282953262329,-2.857285737991333
1782811691915997000,4.298996826171875,-0.7852364182472229,0.33013424277305603,-2.8954217433929443
1782811691926068000,4.30906787109375,-0.645636260509491,-0.15421393513679504,-2.546858787536621
1782811691936140000,4.31914013671875,-0.38330399990081787,-0.5560010671615601,-1.981210708618164
1782811691946212000,4.329212158203125,-0.08571602404117584,-0.7381970882415771,-1.33638334274292
1782811691956283100,4.339283203125,0.11889331042766571,-0.585488498210907,-0.6713757514953613
1782811691966355200,4.349355224609375,0.18583567440509796,-0.3343544602394104,-0.10186837613582611
1782811691976427000,4.359427001953125,0.13177110254764557,-0.12145844101905823,0.3027976155281067
1782811691986498000,4.369498046875,0.03815121203660965,0.0932442918419838,0.5638811588287354
1782811691996570000,4.379570068359375,-0.06841251254081726,0.378349244594574,0.7439348101615906
1782811692006641200,4.38964111328125,-0.17609693109989166,0.597145140171051,0.8673123717308044
1782811692016713200,4.399713134765625,-0.2948688268661499,0.724241316318512,0.9297818541526794
1782811692026785000,4.409784912109375,-0.3566010594367981,0.6753643751144409,0.9221605062484741
1782811692036856000,4.41985595703125,-0.3489207625389099,0.6135894060134888,0.8802157044410706
1782811692046928100,4.42992822265625,-0.2964717447757721,0.5898608565330505,0.8402333855628967
1782811692056999000,4.4399990234375,-0.23932349681854248,0.599692702293396,0.8027960062026978
1782811692067071000,4.450071044921875,-0.19478067755699158,0.642364501953125,0.7846273183822632
1782811692077143000,4.46014306640625,-0.15451236069202423,0.708859384059906,0.7840750217437744
1782811692087214000,4.470214111328125,-0.10430161654949188,0.7878110408782959,0.8012489676475525
1782811692097286000,4.480285888671875,-0.050510019063949585,0.8343859910964966,0.8304023146629333
1782811692107357000,4.49035693359375,0.01611708663403988,0.8373096585273743,0.8637630343437195
1782811692117429000,4.500428955078125,0.1000487357378006,0.8145180940628052,0.9205796718597412
1782811692127501000,4.5105009765625,0.17693056166172028,0.77281653881073,0.961511492729187
1782811692137572000,4.520572021484375,0.23180340230464935,0.6829508543014526,0.9457016587257385
1782811692147644200,4.53064404296875,0.25554460287094116,0.5089443325996399,0.8961694240570068
1782811692157715200,4.540715087890625,0.2502158582210541,0.2820160984992981,0.8284404277801514
1782811692167787000,4.550787109375,0.21720677614212036,0.057855162769556046,0.7347054481506348
1782811692177859000,4.560859130859375,0.17728306353092194,-0.13106629252433777,0.5721679329872131
1782811692187930000,4.57093017578125,0.1602744609117508,-0.4400899410247803,0.2889164388179779
1782811692198002200,4.581002197265625,0.18034270405769348,-0.8919055461883545,-0.03696790710091591
1782811692208073200,4.5910732421875,0.27787333726882935,-0.769635021686554,-0.12746694684028625
1782811692218145000,4.60114501953125,0.4287571310997009,-0.11489047855138779,-0.04651085287332535
1782811692228217000,4.611217041015625,0.5238878130912781,0.37137702107429504,0.07739140838384628
1782811692238288100,4.6212880859375,0.508788526058197,0.6895318031311035,0.23237033188343048
1782811692248360200,4.631360107421875,0.4023820757865906,0.9114303588867188,0.41325464844703674
1782811692258431000,4.641430908203125,0.271670401096344,0.893856406211853,0.6094358563423157
1782811692268503000,4.6515029296875,0.1554965376853943,0.5531978011131287,0.7860985994338989
1782811692278574800,4.661574951171875,0.01458816695958376,0.13186760246753693,0.8647483587265015
1782811692288646000,4.67164599609375,-0.17334464192390442,-0.12523314356803894,0.7888306975364685
1782811692298718000,4.681718017578125,-0.3517199754714966,-0.2740740478038788,0.532801628112793
1782811692308789000,4.6917890625,-0.426695317029953,-0.47118663787841797,0.1662992537021637
1782811692318861000,4.701861083984375,-0.3729947805404663,-0.7584293484687805,-0.2140805721282959
1782811692328933000,4.71193310546875,-0.259218692779541,-1.2068313360214233,-0.5916838049888611
1782811692339004200,4.722004150390625,-0.18232257664203644,-1.5942903757095337,-0.9206238985061646
1782811692349076000,4.732075927734375,-0.20510493218898773,-1.573777437210083,-1.1495002508163452
1782811692359147000,4.74214697265625,-0.29159000515937805,-1.1288766860961914,-1.2588614225387573
1782811692369219000,4.752218994140625,-0.3821750283241272,-0.5819389820098877,-1.2759125232696533
1782811692379291100,4.762291015625,-0.45601436495780945,-0.31369978189468384,-1.2616348266601562
1782811692389362200,4.772362060546875,-0.5336731672286987,-0.40191346406936646,-1.188808798789978
1782811692399434000,4.78243408203125,-0.5740628838539124,-0.6317892670631409,-1.0000379085540771
1782811692409505000,4.792505126953125,-0.5867762565612793,-0.8489551544189453,-0.7548602223396301
1782811692419577000,4.8025771484375,-0.6133724451065063,-1.0326547622680664,-0.553814709186554
1782811692429649200,4.812649169921875,-0.6725620031356812,-1.1857963800430298,-0.44777804613113403
1782811692439720200,4.82272021484375,-0.7406960129737854,-1.3052396774291992,-0.4546961486339569
1782811692449792000,4.8327919921875,-0.7724487781524658,-1.3307507038116455,-0.5440555810928345
1782811692459862800,4.84286279296875,-0.7687062621116638,-1.230750322341919,-0.6557101607322693
1782811692469934600,4.8529345703125,-0.7367634177207947,-1.0820337533950806,-0.7471268773078918
1782811692480006700,4.863006591796875,-0.6797237992286682,-0.9195761680603027,-0.7542689442634583
1782811692490077700,4.87307763671875,-0.6256433129310608,-0.7843255996704102,-0.6476099491119385
1782811692500149800,4.883149658203125,-0.6144686937332153,-0.6483376622200012,-0.46045446395874023
1782811692510220800,4.893220703125,-0.6631117463111877,-0.43225130438804626,-0.23265743255615234
1782811692520292900,4.90329296875,-0.7433581352233887,-0.15614008903503418,-0.016372544690966606
1782811692530364700,4.91336474609375,-0.8291704654693604,0.07202893495559692,0.1542838215827942
1782811692540435700,4.923435791015625,-0.9013397097587585,0.18560609221458435,0.2713982164859772
1782811692550507800,4.9335078125,-0.9397871494293213,0.20999591052532196,0.33722856640815735
1782811692560578800,4.943578857421875,-0.9157936573028564,0.1931397020816803,0.3696061968803406
1782811692570651000,4.95365087890625,-0.8358932137489319,0.20936474204063416,0.398562490940094
1782811692580722700,4.96372265625,-0.7242729663848877,0.26746800541877747,0.4030778706073761
1782811692590793700,4.973793701171875,-0.5919501781463623,0.3623402714729309,0.38344427943229675
1782811692600865800,4.98386572265625,-0.4390210509300232,0.457740843296051,0.34600555896759033
1782811692610936800,4.993936767578125,-0.27310439944267273,0.5115194916725159,0.30434074997901917
1782811692621009000,5.0040087890625,-0.1318836361169815,0.48695507645606995,0.2996748685836792
1782811692631081000,5.0140810546875,-0.013159544207155704,0.37553152441978455,0.36132949590682983
1782811692641152000,5.024152099609375,0.06216290593147278,0.22945980727672577,0.4835565984249115
1782811692651223800,5.034223876953125,0.09633637964725494,0.12039769440889359,0.6387849450111389
1782811692661294600,5.044294677734375,0.08500276505947113,0.06669425219297409,0.8063097596168518
1782811692671366700,5.05436669921875,0.0239681676030159,0.01656663790345192,0.9675902724266052
1782811692681438700,5.064438720703125,-0.07496985793113708,-0.03546300530433655,1.0722423791885376
1782811692691509800,5.074509765625,-0.18273502588272095,-0.11928527057170868,1.0959304571151733
1782811692701581800,5.084581787109375,-0.26193875074386597,-0.20625771582126617,1.0516529083251953
1782811692711652900,5.09465283203125,-0.32065290212631226,-0.23020966351032257,0.9721398949623108
1782811692721724700,5.104724609375,-0.36413565278053284,-0.2380705177783966,0.8642757534980774
1782811692731796700,5.114796630859375,-0.3929900825023651,-0.199068084359169,0.6910120844841003
1782811692741867800,5.12486767578125,-0.382642924785614,0.037945277988910675,0.48595163226127625
1782811692751939800,5.13493994140625,-0.343606561422348,0.44757798314094543,0.333952933549881
1782811692762011000,5.145010986328125,-0.2800334692001343,0.7333428859710693,0.3148689866065979
1782811692772082700,5.155082763671875,-0.24139659106731415,0.6849181056022644,0.40052610635757446
1782811692782154800,5.16515478515625,-0.22701604664325714,0.5767849683761597,0.6074933409690857
1782811692792225800,5.175225830078125,-0.22967085242271423,0.5576245188713074,0.885475218296051
1782811692802297900,5.1852978515625,-0.26534947752952576,0.4902971386909485,1.1074621677398682
1782811692812369000,5.195368896484375,-0.33192455768585205,0.3099769651889801,1.1517069339752197
1782811692822441000,5.20544091796875,-0.39721593260765076,0.06553445011377335,1.0349172353744507
1782811692832512800,5.2155126953125,-0.40494105219841003,-0.19078204035758972,0.7617674469947815
1782811692842583800,5.225583740234375,-0.342777818441391,-0.34602275490760803,0.3882623016834259
1782811692852655900,5.23565576171875,-0.24825280904769897,-0.31302815675735474,-0.031263262033462524
1782811692862726700,5.2457265625,-0.21019357442855835,-0.18151967227458954,-0.45266857743263245
1782811692872798700,5.255798828125,-0.2318570613861084,-0.06761947274208069,-0.8370825052261353
1782811692882871000,5.26587109375,-0.2690049707889557,-0.043977126479148865,-1.1471883058547974
1782811692892941800,5.27594189453125,-0.2842996120452881,-0.14354369044303894,-1.3393867015838623
1782811692903013600,5.286013671875,-0.27281951904296875,-0.3437817096710205,-1.3967045545578003
1782811692913084700,5.296084716796875,-0.2592218220233917,-0.6861447095870972,-1.3403856754302979
1782811692923156700,5.30615673828125,-0.23955704271793365,-1.081764817237854,-1.1938306093215942
1782811692933228800,5.316228759765625,-0.19025550782680511,-1.3799101114273071,-0.9916538000106812
1782811692943297800,5.3262978515625,-0.13056021928787231,-1.5698752403259277,-0.7866042256355286
1782811692953369900,5.336369873046875,-0.08425725251436234,-1.6300480365753174,-0.6246628761291504
1782811692963441000,5.34644091796875,-0.030831316486001015,-1.5391205549240112,-0.5236888527870178
1782811692973513000,5.356512939453125,0.04942183941602707,-1.3211560249328613,-0.45979493856430054
1782811692983584800,5.366584716796875,0.14214086532592773,-0.992051899433136,-0.3995411992073059
1782811692993655800,5.37665576171875,0.2220963090658188,-0.6005250215530396,-0.30869418382644653
1782811693003728000,5.386727783203125,0.2703373432159424,-0.29203617572784424,-0.16620786488056183
1782811693013798700,5.396798583984375,0.25937581062316895,-0.0805799812078476,0.04040766507387161
1782811693023870700,5.40687060546875,0.19000524282455444,0.10081803798675537,0.27488619089126587
1782811693033942800,5.41694287109375,0.086244598031044,0.2800701856613159,0.48564228415489197
1782811693044013800,5.427013916015625,-0.03660596162080765,0.4206070601940155,0.6446844339370728
1782811693054085600,5.437085693359375,-0.16270506381988525,0.5238308310508728,0.7355116605758667
1782811693064156700,5.44715673828125,-0.277896910905838,0.5623907446861267,0.7440856695175171
1782811693074228700,5.457228759765625,-0.3658648133277893,0.5283101201057434,0.6731706261634827
1782811693084300800,5.46730078125,-0.41872483491897583,0.45492854714393616,0.561295211315155
1782811693094371800,5.477371826171875,-0.42569658160209656,0.4440911114215851,0.44692131876945496
1782811693104444000,5.48744384765625,-0.4004215896129608,0.5388168096542358,0.35566118359565735
1782811693114515000,5.497514892578125,-0.35281530022621155,0.6617321372032166,0.29194962978363037
1782811693124586800,5.507586669921875,-0.29721754789352417,0.7370346188545227,0.27741092443466187
1782811693134658800,5.517658935546875,-0.2447478026151657,0.7646024823188782,0.30208367109298706
1782811693144729900,5.527729736328125,-0.1923525035381317,0.7444739937782288,0.3510701358318329
1782811693154802000,5.537802001953125,-0.1457919478416443,0.6883387565612793,0.4177355468273163
1782811693164873000,5.547873046875,-0.10388417541980743,0.6050150990486145,0.5375797152519226
1782811693174944800,5.55794482421875,-0.07979923486709595,0.5191094279289246,0.7040683627128601
1782811693185016800,5.568016845703125,-0.07004380971193314,0.4275831878185272,0.8800138235092163
1782811693195088000,5.578087890625,-0.06497659534215927,0.37055838108062744,1.0069210529327393
1782811693205160000,5.588159912109375,-0.06304926425218582,0.36353349685668945,1.108327031135559
1782811693215230700,5.598230712890625,-0.10304705798625946,0.33455517888069153,1.2180598974227905
1782811693225302800,5.608302734375,-0.17606081068515778,0.28171780705451965,1.3139046430587769
1782811693235374600,5.61837451171875,-0.17496664822101593,0.29636070132255554,1.3370108604431152
1782811693245445600,5.628445556640625,-0.05236323922872543,0.5692447423934937,1.2936570644378662
1782811693255517700,5.638517578125,0.07434548437595367,1.196885347366333,1.4490675926208496
1782811693265588700,5.648588623046875,0.03272293508052826,1.0695377588272095,1.5109466314315796
1782811693275660800,5.658660888671875,-0.04219130799174309,0.5993366837501526,1.4658787250518799
1782811693285732900,5.66873291015625,-0.031041188165545464,0.2951180040836334,1.3792200088500977
1782811693295804000,5.678803955078125,-0.056974008679389954,0.06641789525747299,1.1172524690628052
1782811693305875700,5.688875732421875,-0.1934136152267456,-0.08249195665121078,0.6017571091651917
1782811693315946800,5.69894677734375,-0.4809901714324951,-0.07284406572580338,-0.00861867144703865
1782811693326018800,5.709018798828125,-0.7982754707336426,0.018003815785050392,-0.5875653624534607
1782811693336092700,5.7190927734375,-0.9603410959243774,0.14934730529785156,-1.0442562103271484
1782811693346164700,5.729164794921875,-1.0632935762405396,-0.020521366968750954,-1.4262194633483887
