time,seconds_elapsed,z,y,x
1782811387053276000,0.06527587890625,0.09242460119724273,-0.26075002735741437,0.15992898841053246
1782811387063347000,0.075346923828125,0.10791326223015785,-0.2765111486561596,0.14422916884496806
1782811387073418800,0.085418701171875,0.1597948406368494,-0.33048794577643276,0.11867679443731903
1782811387083489800,0.09548974609375,0.19900223090946673,-0.3619183453720063,0.11283376749753951
1782811387093560800,0.105560791015625,0.12903262262642382,-0.3384660119835287,0.14096023017689585
1782811387103633000,0.1156328125,-0.012853051832318305,-0.34362916690036654,0.12413798245266079
1782811387113704000,0.125703857421875,-0.14499357734620572,-0.3377852631777525,0.0392111896649003
1782811387123775000,0.13577490234375,-0.2864496282160282,-0.2621289875604212,-0.01951324037387967
1782811387133845800,0.145845703125,-0.39829204658865924,-0.19700221619866787,0.0017976970717310905
1782811387143918000,0.15591796875,-0.43131344170272345,-0.13391089618727564,0.047966158528625964
1782811387153988900,0.16598876953125,-0.3167641024589538,-0.09037570584341884,0.11170403281524777
1782811387164060200,0.17606005859375,-0.14683891295194626,-0.09326748176217078,0.12828867239132521
1782811387174132200,0.18613232421875,0.003969488152861595,-0.07762004997096955,0.14237258119285107
1782811387184203300,0.196203369140625,0.10580080012083053,-0.07005787108838558,0.14206658398360014
1782811387194274300,0.2062744140625,0.1359837569385767,-0.06618943215720355,0.11482611035853624
1782811387204346000,0.21634619140625,0.10285188718736171,-0.012864669204875827,0.052454702119529246
1782811387214417200,0.226417236328125,0.0657698185056448,0.05185768607445061,0.03683437753096223
1782811387224488200,0.23648828125,-0.013460370075702666,0.08622107038199901,0.08779606461375951
1782811387234560300,0.246560302734375,-0.03284253141582012,0.1241279725152999,0.05529401719868183
1782811387244631000,0.256631103515625,0.03744622581899166,0.1185401624456048,0.05032222013548016
1782811387254702000,0.2667021484375,0.10916355455219745,0.07926167969815433,0.02973287496268749
1782811387264774100,0.276774169921875,0.14826689992845057,0.0652224137559533,-0.0056219315350055695
1782811387274845200,0.28684521484375,0.22847557815313338,0.09732954356931149,-0.02910962849780917
1782811387284916200,0.296916259765625,0.3067792995393276,0.10291304279007017,-0.017250117747485638
1782811387294988000,0.306988037109375,0.2610480604559183,0.10306194974146783,0.012952128292620182
1782811387305059000,0.31705908203125,0.20362346096932887,0.06389613358825445,-0.03980374873057008
1782811387315130000,0.327130126953125,0.18734569538533685,0.03486979945972562,-0.0814231685809791
1782811387325201200,0.337201171875,0.1718809997498989,0.011576236829534172,-0.0819962922938168
1782811387335273200,0.347273193359375,0.056086628881096834,-0.02129742037691176,-0.08648293618857861
1782811387345344000,0.357343994140625,-0.11104162338376045,-0.028896131877601147,-0.1083490232989192
1782811387355415000,0.3674150390625,-0.19817454791367053,-0.007882789139077067,-0.12421484708115457
1782811387365487000,0.377487060546875,-0.20968962914049624,-0.020659195538610217,-0.08446677406057715
1782811387375558100,0.38755810546875,-0.25395664089024067,-0.03744228029623627,-0.07596870256736875
1782811387385629200,0.397629150390625,-0.2526508189886808,-0.037026831363141534,-0.09322349648997187
1782811387395701200,0.407701171875,-0.2194733565300703,-0.07832133010812103,-0.07554697002395987
1782811387405772300,0.417772216796875,-0.2449129182130098,-0.07842632485255599,-0.06326587286069989
1782811387415843300,0.42784326171875,-0.26110242099165915,-0.06738068776838481,-0.03514627831354737
1782811387425915100,0.4379150390625,-0.17605799317359924,-0.0768575411658734,0.00864639392271638
1782811387435986200,0.447986083984375,-0.11468261023461818,-0.04495287512205541,0.025713556318730114
1782811387446057000,0.458056884765625,-0.06493102959394455,0.012159370479732751,0.030200930865854025
1782811387456129000,0.46812890625,0.017400632134079934,0.011206526734307408,0.04653846381306648
1782811387466200000,0.478199951171875,0.04498363558650016,0.016514131623134014,0.06976882501393557
1782811387476271000,0.48827099609375,-0.014478607207536697,-0.037324353004992004,0.024010844054073093
1782811387486343200,0.49834326171875,-0.055472296375036236,-0.05442037616930902,-0.054121174027025695
1782811387496414200,0.508414306640625,-0.04249357233643532,-0.04942410225197673,-0.09600830490291118
1782811387506485200,0.5184853515625,-0.03374678677916527,-0.048805312766507264,-0.16400252145975827
1782811387516556300,0.528556396484375,-0.03041559652984142,-0.11621084271520375,-0.2131761560820043
1782811387526628400,0.53862841796875,-0.06871230169832707,-0.12035261869505047,-0.2030984141819179
1782811387536699100,0.54869921875,-0.09618366146981716,-0.13510156727656722,-0.158603877286613
1782811387546770200,0.558770263671875,-0.04863280574381351,-0.11359868745543061,-0.08204203113168478
1782811387556842000,0.568842041015625,-0.02057224790751934,0.019568843018636106,0.0711145405344665
1782811387566913000,0.5789130859375,-0.08628829039931296,0.054527709001302715,0.19878157389611004
1782811387576984000,0.588984130859375,-0.07297405079603195,0.17619798616617918,0.2913562510885298
1782811387587056000,0.59905615234375,0.025981997996568678,0.24656192752905187,0.379348715057224
1782811387597127200,0.609127197265625,0.09893149887323378,0.1908206049542874,0.40492132853530344
1782811387607198200,0.6191982421875,0.17996493748426437,0.0665556351210922,0.3782758981939405
1782811387617270300,0.629270263671875,0.2105284180521965,-0.09657536420114338,0.29560682120509446
1782811387627341300,0.63934130859375,0.19483985053300856,-0.24558080753721295,0.16009762297570704
1782811387637412000,0.649412109375,0.17361235358715058,-0.32887130436003204,0.10832118544392287
1782811387647484200,0.659484130859375,0.24875556511580943,-0.4219683979913592,0.08026208891235291
1782811387657555200,0.66955517578125,0.36226913157105445,-0.4697808272629976,0.08746434844136237
1782811387667626200,0.679626220703125,0.4625368474841118,-0.5022813403081149,0.09451068675629794
1782811387677697300,0.689697265625,0.3802595462918281,-0.5681204246576875,0.06599522475935518
1782811387687769000,0.69976904296875,0.14763210915625094,-0.5769939783997834,0.03507949668765068
1782811387697840000,0.709840087890625,-0.04163432515859604,-0.5683432736281305,0.06282368205115199
1782811387707911200,0.7199111328125,-0.1691407611310482,-0.5956937834989279,0.11323248449154197
1782811387717983200,0.729983154296875,-0.22589316044449806,-0.6128653561174869,0.13745740968771278
1782811387728054300,0.74005419921875,-0.26521394796371456,-0.6285543620280921,0.11567593212090432
1782811387738125000,0.750125,-0.2715390593320131,-0.6398886798605322,0.0984340707451105
1782811387748197000,0.760197021484375,-0.33989480267763134,-0.655807622069493,0.09366334921196103
1782811387758268200,0.77026806640625,-0.3591869476467371,-0.6857901609443128,0.05308876223936677
1782811387768339200,0.780339111328125,-0.36125323252677916,-0.7237821110125631,0.006609919659048318
1782811387778411300,0.790411376953125,-0.29261399606466293,-0.7861798958018422,-0.03372903192676604
1782811387788482300,0.800482421875,-0.1883294457256794,-0.8568333216305821,-0.0367842547789216
1782811387798553300,0.81055322265625,-0.06628302872478961,-0.8683182269148528,-0.003669190032035112
1782811387808625200,0.820625244140625,0.033361586853861806,-0.8221635747876018,0.10631474099233745
1782811387818696200,0.8306962890625,0.0825222158640623,-0.761268303515762,0.20680917833335696
1782811387828767000,0.84076708984375,-0.020666940453648565,-0.7328055946193635,0.2624590232323855
1782811387838838000,0.850838134765625,-0.20283610998392104,-0.7257656860452145,0.2488950466517359
1782811387848910000,0.86091015625,-0.2780488796174526,-0.7002023518521339,0.2263668423708528
1782811387858981000,0.870981201171875,-0.2098433583974838,-0.7188651859417557,0.24747721574306486
1782811387869052200,0.88105224609375,-0.11435410893261432,-0.6972605993118137,0.30320852838046847
1782811387879124200,0.891124267578125,-0.0270224469602108,-0.630251156008616,0.37976884016543627
1782811387889195300,0.9011953125,0.0954588543266058,-0.5877537842798978,0.4635914711035788
1782811387899266300,0.911266357421875,0.2652028420478105,-0.5982745937723666,0.5344270485661924
1782811387909338000,0.921338134765625,0.3145972798138857,-0.6316171836648136,0.5575777686595916
1782811387919409200,0.9314091796875,0.35845512624084946,-0.6423602576058357,0.5113211174625903
1782811387929480200,0.941480224609375,0.42865678971409793,-0.631315131978318,0.4711448090925812
1782811387939552000,0.951552001953125,0.46983518779873845,-0.6722459850426763,0.427823992151767
1782811387949623000,0.961623046875,0.429714189812541,-0.7089132623784243,0.3979778660729527
1782811387959694000,0.971694091796875,0.30117315009534357,-0.6750958945810794,0.3418719479694962
1782811387969766100,0.98176611328125,0.20184826799035072,-0.6734996383655816,0.3205531194783747
1782811387979837200,0.991837158203125,0.20746260074079034,-0.7241994596417993,0.27509777472689745
1782811387989908200,1.001908203125,0.22290976071953772,-0.7591084220681339,0.2310891216523945
1782811387999979300,1.011979248046875,0.15804010592401027,-0.7735888559065759,0.20154314756393432
1782811388010051300,1.02205126953125,0.06913023484945297,-0.8044437206365168,0.17274726119041442
1782811388020122000,1.0321220703125,0.08476035017967223,-0.8354745264552533,0.1470040403857827
1782811388030193200,1.042193115234375,0.2564344291806221,-0.8672273629382252,0.17514599289521574
1782811388040265000,1.052264892578125,0.4366138861984014,-0.9473824843447655,0.21484993451312184
1782811388050336000,1.0623359375,0.4914315180569887,-1.0302813515014946,0.17758812535032628
1782811388060407000,1.072406982421875,0.5188794969528914,-1.0541392700161785,0.13473594883456824
1782811388070479000,1.08247900390625,0.5804875196039676,-1.042836370235309,0.152128543792665
1782811388080550100,1.092550048828125,0.6268839445978402,-1.059616678513959,0.16816110244393348
1782811388090621200,1.10262109375,0.5696352862000466,-1.0750284749183803,0.16004706183224915
1782811388100693200,1.112693359375,0.4540250397264957,-1.1201782608520239,0.13537453899905086
1782811388110764300,1.122764404296875,0.35819150686860085,-1.1527967011883855,0.11785554118230938
1782811388120835000,1.1328349609375,0.24315526089072226,-1.171896100064367,0.11171513873115181
1782811388130906000,1.142906005859375,0.16288520786762237,-1.160727494187653,0.10021116342023015
1782811388140978200,1.152978271484375,0.11304010372459888,-1.1258131249338388,0.057649494283646345
1782811388151049200,1.16304931640625,0.061736032944917675,-1.1426990855440498,0.0687180007867515
1782811388161120500,1.17312060546875,0.013776596418023108,-1.1805252505913375,0.051800329864025114
1782811388171192300,1.1831923828125,-0.016614450192451478,-1.1760717783138155,0.05757730583027005
1782811388181263400,1.193263427734375,0.017960019582509992,-1.171874911145866,0.07138955808356404
1782811388191334400,1.20333447265625,0.13572481374144554,-1.114963814139366,0.12771627933084964
1782811388201406500,1.213406494140625,0.24051088386178016,-1.0395150437928735,0.19722601501718162
1782811388211477500,1.2234775390625,0.30627193453907964,-0.9669760234132408,0.2564332601368427
1782811388221548500,1.233548583984375,0.35281507452726363,-0.926431393187493,0.270368992639333
1782811388231620600,1.24362060546875,0.35006372999250884,-0.9388368473827838,0.2801429292872548
1782811388241691400,1.25369140625,0.30119477740526196,-0.9303305925831198,0.27384587496966123
1782811388251762400,1.263762451171875,0.18078443717360496,-0.9351117624450475,0.27160394126176834
1782811388261834500,1.27383447265625,-0.051348494443297386,-0.947814153760299,0.2642101777486503
1782811388271905500,1.283905517578125,-0.3158125008225441,-0.8983629443056881,0.25177725102454424
1782811388281976600,1.2939765625,-0.5370809240758418,-0.8468080405700952,0.2677631940551102
1782811388292047600,1.304047607421875,-0.5945072771281004,-0.8078970759607851,0.28578108130469915
1782811388302119400,1.314119384765625,-0.6247130302995443,-0.8096032953567802,0.26684944021105766
1782811388312190500,1.3241904296875,-0.5964893908560276,-0.8026999457091093,0.26622633987665173
1782811388322261500,1.334261474609375,-0.4791413608044386,-0.8134500339128077,0.21860154213160274
1782811388332333600,1.34433349609375,-0.40192251204550267,-0.8353476852051913,0.11870485148802398
1782811388342404400,1.354404296875,-0.4448205735296011,-0.9167522952161729,-0.012724457016587257
1782811388352475400,1.364475341796875,-0.5324252072244883,-1.0414111597377806,-0.1440241477921605
1782811388362547500,1.37454736328125,-0.6519838990628719,-1.1286566047314555,-0.22484452817440032
1782811388372618500,1.384618408203125,-0.9235667975366115,-1.1004756353858858,-0.24125293440073728
1782811388382689500,1.394689453125,-1.3092793485373257,-1.0038643230885267,-0.1818047201320529
1782811388392761300,1.40476123046875,-1.6353969702750444,-0.776852899203822,-0.08535963124707341
1782811388402832400,1.414832275390625,-1.8239233998775481,-0.5116360286306589,-0.06469269079342484
1782811388412903400,1.4249033203125,-1.8803595728486775,-0.2889274895716458,-0.061011518062651156
1782811388422974500,1.434974365234375,-1.843206192496419,-0.1278684011526406,-0.08460662092268466
1782811388433046300,1.44504638671875,-1.664049648785591,-0.03215476834736764,-0.14948708937317132
1782811388443117300,1.455117431640625,-1.324581547087431,-0.030700331755354998,-0.18114537944048642
1782811388453188400,1.465188232421875,-0.938625834980607,-0.12958017350658774,-0.1627443380922079
1782811388463260400,1.475260498046875,-0.6614046383589506,-0.2640213041130453,-0.13738251782059668
1782811388473331500,1.48533154296875,-0.5189116456568241,-0.3871656724184751,-0.14733283394873142
1782811388483402500,1.495402587890625,-0.5130068055272102,-0.46029038373157377,-0.22232450817748903
1782811388493474600,1.505474609375,-0.5001444013446569,-0.4767294042918831,-0.2656204829379916
1782811388503545600,1.515545654296875,-0.5670066912621259,-0.4412184573844075,-0.23041078399941323
1782811388513616600,1.52561669921875,-0.7774450929433107,-0.33360556634031235,-0.2112805515937507
1782811388523688400,1.5356884765625,-0.9378525125205516,-0.13940284466706215,-0.19017083580866456
1782811388533759200,1.54575927734375,-1.0068249264597893,0.007746084082126617,-0.17890622221156954
1782811388543830300,1.555830322265625,-0.9609253450721502,0.11931896479837596,-0.1862928253315389
1782811388553901300,1.5659013671875,-0.867371447584033,0.19440708513893185,-0.25773922816887496
1782811388563973400,1.575973388671875,-0.6560726296812296,0.24549765929840503,-0.33451223285645243
1782811388574044400,1.58604443359375,-0.33116321468949317,0.2490470223430544,-0.3608246318511665
1782811388584115500,1.596115478515625,0.08632979145348071,0.27470957912690935,-0.36105011117011304
1782811388594187500,1.6061875,0.592277326118946,0.3622668665487319,-0.26617183321043847
1782811388604258600,1.616258544921875,1.0709726967215538,0.4997751296408474,-0.15781243464797734
1782811388614329600,1.62632958984375,1.4018115017622708,0.5800283045943826,-0.09736980251446366
1782811388624401700,1.636401611328125,1.4853846879839896,0.5130728565007447,-0.015410335099697112
1782811388634472400,1.646472412109375,1.393842130318284,0.3599027677658945,-0.001500613821297884
1782811388644543500,1.65654345703125,1.1897937219351529,0.20249526065699755,-0.09928703431263565
1782811388654615300,1.666615234375,0.9327578197300433,0.13134966739714146,-0.22515374025404453
1782811388664686300,1.676686279296875,0.6382897202312946,0.12437807481884956,-0.2907121079660952
1782811388674757400,1.68675732421875,0.37059155423641205,0.13297989894747733,-0.25374752818420526
1782811388684829400,1.696829345703125,0.1407552091240883,0.17520049956142902,-0.2117781258523464
1782811388694900500,1.706900390625,0.0624842209637165,0.25985212866961954,-0.19355697111561893
1782811388704971500,1.716971435546875,0.17639818491339682,0.3103719172038138,-0.21570143677592277
1782811388715042300,1.727042236328125,0.4219564152926206,0.3724377666249871,-0.20103373673707245
1782811388725114400,1.7371142578125,0.6964215912044048,0.42122006384208793,-0.19791618923842905
1782811388735185400,1.747185302734375,0.9788286660313605,0.42542379914224143,-0.17933160801678896
1782811388745256400,1.75725634765625,1.233438217872381,0.4118490089066326,-0.188027101778239
1782811388755328500,1.76732861328125,1.528379780101776,0.2963338933706283,-0.2354704054765403
1782811388765399600,1.777399658203125,1.7867413779526948,0.14537892340198158,-0.33701939337179065
1782811388775470600,1.787470703125,1.9571143112272023,0.007520166371762752,-0.43541057482324536
1782811388785542400,1.79754248046875,2.066419320076704,-0.11254545207545161,-0.48522944854646916
1782811388795613400,1.807613525390625,2.163451122808456,-0.2553422500297427,-0.48029754510223865
1782811388805684500,1.8176845703125,2.1970687302500007,-0.36562998630627985,-0.4473322640895843
1782811388815755300,1.82775537109375,2.119953926387429,-0.41988267775848503,-0.39892851786129174
1782811388825827300,1.837827392578125,1.960559483245015,-0.43689153409600257,-0.39149975610002874
1782811388835898400,1.8478984375,1.7620815684705973,-0.48314884288012977,-0.376491572060436
1782811388845969400,1.857969482421875,1.5469582238435744,-0.5375139086656272,-0.3525795852709561
1782811388856041500,1.86804150390625,1.2856518047124146,-0.6584006342373788,-0.36665816031023857
1782811388866112500,1.878112548828125,1.027763669592142,-0.8717778658494353,-0.43985513314194974
1782811388876183600,1.88818359375,0.7906658090442419,-1.0752490588665007,-0.5538044606659561
1782811388886255600,1.898255615234375,0.5319733718037605,-1.263547232671082,-0.6588900982547551
1782811388896326700,1.90832666015625,0.2790343835234642,-1.4081132322549819,-0.7078364999923855
1782811388906397400,1.9183974609375,0.06950023720562458,-1.4446999186351894,-0.6718231565207242
1782811388916469500,1.928469482421875,-0.05501695382297039,-1.4918807720050216,-0.5602980604689568
1782811388926540300,1.938540283203125,-0.16247954967617986,-1.5259446619093417,-0.46480998004786667
1782811388936611300,1.948611328125,-0.4285141663730144,-1.5426203407697379,-0.42944794009178877
1782811388946683400,1.958683349609375,-0.7486684957921504,-1.5091878806367516,-0.42465529898777604
1782811388956754400,1.96875439453125,-0.9939514163613319,-1.4238900625795126,-0.38703444725424047
1782811388966825500,1.978825439453125,-1.1309013879835605,-1.2802704039350152,-0.30405966531708833
1782811388976896500,1.988896484375,-1.2182447403937577,-1.142379352070391,-0.1876214435867965
1782811388986968600,1.998968505859375,-1.2646516867816449,-1.0478649389870465,-0.09070902945101261
1782811388997039600,2.00903955078125,-1.2637737349033356,-1.053332995134592,-0.09099822165593505
1782811389007110400,2.0191103515625,-1.1017471896916626,-1.1220888437137007,-0.1645994644396007
1782811389017182500,2.029182373046875,-0.6812386351197958,-1.1884335394978522,-0.16410700474753975
1782811389027253500,2.03925341796875,-0.12050269469022751,-1.244794309145212,-0.07077639462128281
1782811389037324500,2.049324462890625,0.31894670719504353,-1.3088047167629002,-0.006782353616505861
1782811389047396400,2.059396240234375,0.49778527099788183,-1.3061378356412052,0.02992795914337039
1782811389057467400,2.06946728515625,0.45778293095529077,-1.2043301968097686,0.01421791044473648
1782811389067538400,2.079538330078125,0.28857027363181115,-1.0639354915611445,0.03524272442534566
1782811389077610500,2.089610595703125,0.031738954088091846,-0.8623018892347812,0.030205607040971517
1782811389087681500,2.099681640625,-0.33246786754727364,-0.6627230274811386,0.09278700476884841
1782811389097752600,2.109752685546875,-0.5791133086413145,-0.5233250781849026,0.1509998320236802
1782811389107823400,2.1198232421875,-0.7326309687048196,-0.43819063399583097,0.15550620353221892
1782811389117895400,2.1298955078125,-0.8483627957314253,-0.3256691473178565,0.14575184836760163
1782811389127966500,2.139966552734375,-0.8548568339258432,-0.22067337996959685,0.1767747631408274
1782811389138037500,2.15003759765625,-0.7901034989863633,-0.13080094747319818,0.28324922473952174
1782811389148109300,2.160109375,-0.6998509811311959,-0.11859320780709386,0.3808813314519822
1782811389158180400,2.170180419921875,-0.5724199484825134,-0.13266586456224322,0.4485582987532019
1782811389168251400,2.18025146484375,-0.3569336157619953,-0.09388882853090763,0.5363040944844484
1782811389178323200,2.1903232421875,-0.07535890010595321,-0.050877369800209994,0.6394260307848453
1782811389188394000,2.20039404296875,0.13144494446516036,-0.04022884227484464,0.7699012534350156
1782811389198465000,2.210465087890625,0.2097135945379734,0.0594517214000225,0.8793782578505576
1782811389208537000,2.220537109375,0.12560323269963264,0.24563363370299338,0.948829249086976
1782811389218608000,2.230608154296875,-0.04555179086327552,0.47364641664996743,0.9725726743765175
1782811389228679200,2.24067919921875,-0.15055705669224262,0.720182259889692,1.0143234655216335
1782811389238750200,2.250750244140625,-0.12532032410502433,0.9115444974400102,1.0891042734786867
1782811389248822300,2.260822265625,0.061710898503661155,0.9397644836217165,1.0605778516963125
1782811389258893300,2.270893310546875,0.2717243527710438,0.8774044735595583,1.0027230440989137
1782811389268964000,2.280964111328125,0.4224813159495592,0.8327566457986831,0.9392568263605237
1782811389279036200,2.2910361328125,0.517345126992464,0.7795768442749976,0.8505193892434239
1782811389289107200,2.301107177734375,0.6425052920997142,0.6875619929224253,0.8009228530339896
1782811389299178200,2.31117822265625,0.726615653938055,0.6155997495174408,0.7610444316320121
1782811389309250000,2.32125,0.7648422164797782,0.5339098928242921,0.7271523911632597
1782811389319321000,2.331321044921875,0.674095193105936,0.49637233546003695,0.7103922488898038
1782811389329392000,2.34139208984375,0.5292658664107323,0.5147562795430422,0.7126435349479318
1782811389339464200,2.351464111328125,0.3207522953122854,0.5582905931040645,0.6886658625110983
1782811389349535200,2.36153515625,0.07568564784228801,0.5510331693217158,0.6796298847489058
1782811389359606300,2.371606201171875,-0.0973188029795885,0.5261680465258658,0.6852984319046139
1782811389369677000,2.381677001953125,-0.15492168164253234,0.4361296098127961,0.6879106602296233
1782811389379749000,2.3917490234375,-0.25987960119843484,0.3080295918613672,0.6361100381046533
1782811389389820200,2.401820068359375,-0.27176410025954245,0.21077596307247876,0.6229999427713453
1782811389399891200,2.41189111328125,-0.15380992100834845,0.15019757573008535,0.6023378246232867
1782811389409963000,2.421962890625,0.034491467666625975,0.04962093999832868,0.5891318677000701
1782811389420034000,2.432033935546875,0.22662439732849596,-0.04160824086926877,0.5628384656667709
1782811389430105000,2.44210498046875,0.4357049546599388,-0.10790982816405593,0.5441419485032558
1782811389440177200,2.45217724609375,0.6218821907877922,-0.14979031010344623,0.5790782373279333
1782811389450248200,2.462248291015625,0.7882254301548004,-0.16164989391900597,0.6604962913423776
1782811389460319200,2.4723193359375,0.8869050000935792,-0.1486120601043105,0.7013646005645394
1782811389470391300,2.482391357421875,0.9000918139249086,-0.11863017881661653,0.722588151987642
1782811389480462000,2.492462158203125,0.9314525823503732,-0.10003412635289131,0.7150820141412317
1782811389490533000,2.502533203125,1.021340358546376,-0.09279124255254864,0.7513190103009343
1782811389500604200,2.512604248046875,1.0676403374284504,-0.12415427600033581,0.7729244006484747
1782811389510676200,2.52267626953125,1.025415645161271,-0.14210983860343693,0.7276305300690233
1782811389520747300,2.532747314453125,0.969568085733056,-0.14409217152707277,0.7269115681447088
1782811389530818300,2.542818359375,0.997731519421935,-0.1584974212374538,0.7257339026674627
1782811389540890000,2.55289013671875,0.9607722003370522,-0.21492811431586742,0.718076812043041
1782811389550961200,2.562961181640625,0.8686281696468591,-0.2821444783680141,0.6644448828376829
1782811389561032000,2.573031982421875,0.70983987570405,-0.34284408093728125,0.5723129809767008
1782811389571104000,2.58310400390625,0.5156336468994617,-0.3926487800046801,0.5083509425453842
1782811389581175000,2.593175048828125,0.3189934689462185,-0.43221777013130486,0.42089200093150136
1782811389591246000,2.60324609375,0.19412147313058375,-0.46187568016164005,0.33022739514410493
1782811389601318100,2.613318115234375,0.0908709420144558,-0.4759544013313949,0.3024675738200545
1782811389611389200,2.62338916015625,-0.025111060380935666,-0.5303607489753515,0.3371270915299654
1782811389621460200,2.633460205078125,-0.23998189155161379,-0.5691910495638847,0.33604879477396604
1782811389631531300,2.64353125,-0.6161860249727964,-0.6174960846580565,0.25806582977473735
1782811389641603300,2.653603271484375,-1.1322300062388182,-0.6516661383505911,0.1310496615372598
1782811389651674400,2.66367431640625,-1.7253420296162365,-0.6402580976948141,0.049388154155761
1782811389661745200,2.6737451171875,-2.2749989421486854,-0.5478766049869358,-0.18823197670057415
1782811389671817000,2.68381689453125,-2.601635034802556,-0.4417256031889468,-0.5123411812253296
1782811389681888000,2.693887939453125,-2.7083926972568033,-0.33911351610682905,-0.8099933175876736
1782811389691959000,2.703958984375,-2.648076467981934,-0.2799015217468142,-0.976849913304299
1782811389702031000,2.714031005859375,-2.4851029973089696,-0.2025434106476605,-0.8981893413044512
1782811389712102100,2.72410205078125,-2.3520792592197655,-0.044819165739789606,-0.6967240812823176
1782811389722173200,2.734173095703125,-2.227095035201311,0.16612302074506877,-0.5079676423162222
1782811389732245200,2.744245361328125,-2.0569091489315032,0.43446529332976785,-0.3968326415605843
1782811389742316300,2.75431640625,-1.813397329688072,0.691617113532126,-0.3670274320140481
1782811389752387300,2.76438720703125,-1.625451330322027,0.7530632236197591,-0.3908458222359419
1782811389762458000,2.7744580078125,-1.3990589881837368,0.7473439691901207,-0.4454984727911651
1782811389772530200,2.7845302734375,-1.124292783498764,0.7132315639689565,-0.5535498283177613
1782811389782601200,2.794601318359375,-0.835412713265419,0.5960194717893377,-0.7220609132431447
1782811389792672300,2.80467236328125,-0.607908025971055,0.43561501135416325,-0.8954857814341783
1782811389802744000,2.814744140625,-0.5290466707020998,0.21002496204208582,-1.0597530913099646
1782811389812815000,2.824815185546875,-0.5543792648792266,0.04035064202360809,-1.2427832615837453
1782811389822886100,2.83488623046875,-0.5378934095025062,-0.017049407543614507,-1.3780980332195758
1782811389832958200,2.844958251953125,-0.39700317582190037,0.008970949701964855,-1.4606768015764653
1782811389843029200,2.855029296875,-0.16308979052901268,0.08280446687154472,-1.4368607494421302
1782811389853100000,2.86510009765625,0.04935469027757644,0.1498209975026548,-1.4347554477259516
1782811389863171000,2.875171142578125,0.22860358844697473,0.23675072761066257,-1.4694994288489223
1782811389873243100,2.8852431640625,0.44533027661740776,0.2866637093581259,-1.4667073139123619
1782811389883314200,2.895314208984375,0.5632786106497049,0.28395890737883744,-1.45684043828398
1782811389893385200,2.90538525390625,0.6511264054507017,0.2451734688453376,-1.4004787918537855
1782811389903457300,2.915457275390625,0.7447147897303104,0.1895318803180009,-1.3549424908205867
1782811389913528300,2.9255283203125,0.7755301992326974,0.14291684413738548,-1.2685033937737344
1782811389923599400,2.935599365234375,0.7666957353919744,0.13983480634354054,-1.1442170888915657
1782811389933671200,2.945671142578125,0.7217430794656277,0.1813605565611273,-0.9693072428397834
1782811389943742200,2.9557421875,0.7063742454200983,0.28958704945892094,-0.7689705484561622
1782811389953813000,2.96581298828125,0.7775538140147924,0.41655134137868877,-0.5100472250692546
1782811389963885000,2.975885009765625,0.9149930304586886,0.4944378602661192,-0.3086915629014373
1782811389973956000,2.9859560546875,1.091634376478195,0.5687442556444555,-0.20775573846846818
1782811389984027100,2.996027099609375,1.225087153634429,0.6088952103774994,-0.10456950476020574
1782811389994098200,3.00609814453125,1.2933072879016398,0.6219687000274657,-0.004881196170300245
1782811390004170200,3.016170166015625,1.3031903840124606,0.577484611460939,0.04640621573552489
1782811390014241300,3.0262412109375,1.2920581646233795,0.469053170575574,0.006478986755758523
1782811390024312300,3.036312255859375,1.289127371868491,0.2782937942892313,-0.1270733052521944
1782811390034384100,3.046384033203125,1.2979016299545765,0.07307020464688539,-0.2551842829890549
1782811390044455200,3.056455078125,1.4138678502589463,-0.073972194987908,-0.36063232414945956
1782811390054526200,3.066526123046875,1.6394617354959249,-0.1737462090998888,-0.4015986869186163
1782811390064598000,3.076597900390625,1.8925024305850267,-0.2709246537607163,-0.3944162280686199
1782811390074669000,3.0866689453125,2.0538930159807203,-0.3048014235951006,-0.35922304187342524
1782811390084740000,3.096739990234375,2.0776304499208926,-0.3444184175819158,-0.30678032245263454
1782811390094812200,3.106812255859375,2.0321733516037463,-0.37537951916530726,-0.29931027883291245
1782811390104883200,3.11688330078125,1.9029361463159322,-0.3998733244307339,-0.2840361373335123
1782811390114954200,3.126954345703125,1.7553016990721224,-0.4307309656396508,-0.30632044985592366
1782811390125025300,3.137025390625,1.6270225251615047,-0.5034548410668969,-0.33764117853194475
1782811390135097300,3.147097412109375,1.5136878224045038,-0.5895271506279707,-0.3534277995981276
1782811390145168100,3.157168212890625,1.4304554124444722,-0.694427494777739,-0.36041458974555135
1782811390155239200,3.1672392578125,1.4099287572443484,-0.7790162877827882,-0.31241730542629953
1782811390165312300,3.177312255859375,1.356510470789671,-0.8494491296634078,-0.2706349500991404
1782811390175383300,3.18738330078125,1.1927443884342908,-0.9166654937155544,-0.2762995517320931
1782811390185454300,3.197454345703125,0.8752917191892862,-0.9805886614412068,-0.30309242772012945
1782811390195526400,3.2075263671875,0.5041419465482234,-1.0663500053569674,-0.3337419791363179
1782811390205597400,3.217597412109375,0.15648352413177488,-1.1746386767707764,-0.3759440211802721
1782811390215668500,3.22766845703125,-0.2076747821867466,-1.2676768798217177,-0.4178697305008769
1782811390225740500,3.237740478515625,-0.6082827045023441,-1.3074566631548106,-0.44082375897839665
1782811390235811300,3.247811279296875,-0.933998759701848,-1.3599357690632343,-0.44777255520299075
1782811390245882400,3.25788232421875,-1.1653577843368053,-1.4104142026737332,-0.37612317713946103
1782811390255953400,3.267953369140625,-1.3834429013788698,-1.429709854774177,-0.31997356602475047
1782811390266025200,3.278025146484375,-1.6085498798817395,-1.4438168521903454,-0.3521503270082176
1782811390276096300,3.28809619140625,-1.6866677233070133,-1.4457630178220569,-0.3391026293866336
1782811390286167300,3.298167236328125,-1.7113491600990294,-1.4880379789717495,-0.20837796202003955
1782811390296239400,3.3082392578125,-1.814326134970784,-1.5074303694449365,-0.08502908411845564
1782811390306310400,3.318310302734375,-2.122212518969178,-1.4878202445678412,-0.0029060967050492763
1782811390316381200,3.328381103515625,-2.7369518522650003,-1.4108720294438302,0.0612568711258471
1782811390326453500,3.33845361328125,-3.391791140758991,-1.2121648359581827,0.05024126385375857
1782811390336524300,3.348524169921875,-3.9500983927369115,-0.9335336994733661,0.04566328841373324
1782811390346595300,3.35859521484375,-4.206267448979616,-0.7104665562350303,0.14390315176099538
1782811390356667400,3.36866748046875,-4.094826597145199,-0.536143497095257,0.3223176449328661
1782811390366738400,3.378738525390625,-3.7516017732620237,-0.38520825474038717,0.4699718197904527
1782811390376809500,3.3888095703125,-3.218479231423139,-0.30298889428041875,0.6026993514120579
1782811390386880500,3.398880615234375,-2.4675363609582184,-0.2305624674297869,0.7351886903636157
1782811390396952300,3.408952392578125,-1.6952824069172143,-0.16758593290448187,0.869028421010822
1782811390407023400,3.4190234375,-1.025930608946085,-0.12356295904368161,0.9762246210128068
1782811390417094100,3.42909423828125,-0.4855839610725641,-0.03364157283902168,0.9931871539905667
1782811390427166200,3.439166259765625,-0.017974048107862472,0.11516118753179908,1.0097837762653827
1782811390437237200,3.4492373046875,0.42285716352462765,0.33934199110046026,1.0337997348859906
1782811390447308300,3.459308349609375,0.8779466176122427,0.6102851303659379,1.1860349539235233
1782811390457380400,3.46938037109375,1.2726982151150703,0.8401092005185783,1.3634567827962338
1782811390467451400,3.479451416015625,1.429872059598565,1.0222942982703447,1.497036255072057
1782811390477522400,3.4895224609375,1.3943781368911266,1.1739631155967711,1.4922994358085095
1782811390487594200,3.49959423828125,1.307386082136631,1.3092521682694553,1.4149366485342383
1782811390497665300,3.509665283203125,1.2031968088656664,1.4002297855287789,1.2815892314486206
1782811390507736300,3.519736328125,1.0637608656466007,1.4882729567714035,1.1136663216747342
1782811390517807400,3.529807373046875,0.901864668816328,1.5313165642060338,0.9326274713486432
1782811390527879200,3.539879150390625,0.8051426626861095,1.5288083807773887,0.7927978526368736
1782811390537950200,3.5499501953125,0.6817728881269693,1.4593714180663226,0.6535926494337618
1782811390548021200,3.560021240234375,0.41061727515459057,1.2890937618598342,0.5240750197693705
1782811390558093300,3.57009326171875,0.17160159828662871,1.1146104706570505,0.36109599613845345
1782811390568164400,3.580164306640625,0.10125205077528952,0.9767756790243088,0.22522417514175175
1782811390578235400,3.5902353515625,0.16162088702023028,0.7973352038055658,0.11270385750755667
1782811390588307500,3.600307373046875,0.27058570412993427,0.6395788832589984,0.013872458007931708
1782811390598378500,3.61037841796875,0.4468219764798879,0.5421174569383264,-0.022449293825775384
1782811390608449300,3.62044921875,0.642636225003004,0.523327270141989,0.00042991584986448283
1782811390618520300,3.630520263671875,0.8565870187193155,0.5822158047012984,0.06493234476819634
1782811390628592000,3.640592041015625,1.027381392276287,0.6412099915921687,0.2548734634742141
1782811390638663200,3.6506630859375,1.1485784989714622,0.6771195093631744,0.4682146008595824
1782811390648734200,3.660734130859375,1.2360329105407,0.6956672657057642,0.6240099965967237
1782811390658806300,3.67080615234375,1.2547674216270446,0.7181498772792517,0.7315738608673215
1782811390668877300,3.680877197265625,1.2044032620459795,0.7430784207001329,0.7872729517355561
1782811390678948400,3.6909482421875,1.0499795930534601,0.7139752219431101,0.7905293231830001
1782811390689020400,3.7010205078125,0.9917086058706045,0.7117971472516655,0.8108302068032324
1782811390699091500,3.711091552734375,1.0467828428387642,0.7083047750912607,0.8947193271063267
1782811390709162200,3.721162353515625,1.046449080839753,0.6475805495373904,0.9648330200351775
1782811390719234300,3.731234375,1.0061825369030237,0.5881023785218596,1.035482135014981
1782811390729305300,3.741305419921875,0.9397375956147909,0.5330959460929036,1.0375443282417953
1782811390739376400,3.75137646484375,0.858939719325304,0.44701793744340534,1.049354008501023
1782811390749447400,3.761447509765625,0.8328507538229226,0.35666137469187376,1.047310958366096
1782811390759519200,3.771519287109375,0.8303758881419897,0.27905498792007566,1.0253719521500169
1782811390769590300,3.78159033203125,0.7586001072198152,0.19628727286234496,0.9955695190824567
1782811390779661300,3.791661376953125,0.6324784036040306,0.15888605522885918,0.9538608135133981
1782811390789733400,3.8017333984375,0.4215560177981853,0.13327435184940695,0.867138223350048
1782811390799804400,3.811804443359375,0.1710492251008749,0.06117269997373223,0.7678624410837889
1782811390809875200,3.821875244140625,-0.07180676058232784,-0.025981559605151413,0.622480302811414
1782811390819947300,3.831947265625,-0.17923896129727362,-0.11985577508881687,0.528112020200491
1782811390830018300,3.842018310546875,-0.2696305953621864,-0.2240808503255248,0.42473640139997004
1782811390840089300,3.85208935546875,-0.34737259121239183,-0.359588952576369,0.2870446714997291
1782811390850161400,3.862161376953125,-0.49965398747920986,-0.4564019979909062,0.11954027939885854
1782811390860232400,3.872232421875,-0.6913648923367262,-0.4746604159981012,0.023599194513261316
1782811390870303500,3.882303466796875,-0.9290145415484905,-0.43826048436164855,-0.05632248346358537
1782811390880374500,3.89237451171875,-1.1312392416357993,-0.370323989341408,-0.06707593266814947
1782811390890446300,3.9024462890625,-1.2493740381509064,-0.31123832477480173,-0.03698562256991863
1782811390900517000,3.91251708984375,-1.2017021863937378,-0.32580358735248444,-0.030080373226106166
1782811390910588200,3.922588134765625,-0.9842565362989902,-0.37418110316097736,-0.21701105806976556
1782811390920660200,3.93266015625,-0.65040218282938,-0.39486134148761626,-0.4657014489948749
1782811390930731300,3.942731201171875,-0.39719431447982784,-0.44348099548891184,-0.5212313207760453
1782811390940802300,3.95280224609375,-0.27494448386132714,-0.4910696990072727,-0.4749512156382203
1782811390950874400,3.962874267578125,-0.3826794669151306,-0.43783392951264977,-0.29743513261079785
1782811390960945400,3.9729453125,-0.6301321327388286,-0.25432386676743624,-0.052798400990664955
1782811390971016400,3.983016357421875,-0.9456967962801456,0.12391542574316262,0.19723200636655092
1782811390981088500,3.993088623046875,-1.1467612204164266,0.5791600703924894,0.3544683946922421
1782811390991159600,4.00315966796875,-1.2369938645273446,0.9765537799019366,0.5229837174013257
1782811391001230300,4.013230224609375,-1.073799444580078,1.3117457386508584,0.6190072198733687
1782811391011301400,4.02330126953125,-0.7145470304816961,1.5446414713338017,0.5578948717847466
1782811391021373200,4.033373291015625,-0.2438467502862215,1.43245506182909,0.28342180482745166
1782811391031444200,4.0434443359375,0.0631336247831583,0.9896915669597685,-0.1545028717085719
1782811391041515300,4.053515380859375,0.12723930946886539,0.5580993083156645,-0.4077490262418985
1782811391051587300,4.06358740234375,0.13941840756237506,0.3376994115252048,-0.5400435732737183
1782811391061658400,4.073658447265625,0.3179652949422598,0.2757760393146425,-0.5398486352235079
1782811391071729400,4.0837294921875,0.5640870044231414,0.34574250579252835,-0.45707858207821844
1782811391081801500,4.093801513671875,0.6248533155530691,0.47946657417081295,-0.3663353580966592
1782811391091872500,4.10387255859375,0.5283417373031377,0.5996029197666793,-0.3458560491696
1782811391101943300,4.113943359375,0.4082768495082855,0.7220319794096052,-0.3921969445839524
1782811391112014300,4.124014404296875,0.27085166158974167,0.7342490714259445,-0.5115817411601543
1782811391122086400,4.13408642578125,0.07295066992044448,0.5754154770366847,-0.6619552579790353
1782811391132157400,4.144157470703125,-0.14865034628808496,0.3834679869443178,-0.8065192117363214
1782811391142228500,4.154228515625,-0.3614730127573013,0.2130033567983657,-0.9443038806170224
1782811391152300300,4.16430029296875,-0.5856517704993486,0.04541084802262485,-1.0613652026817202
1782811391162370600,4.17437060546875,-0.7819470805376768,-0.10073840216472744,-1.1233458580374718
1782811391172441600,4.184441650390625,-0.8514484867870807,-0.23807664245218038,-1.1451178371235728
1782811391182513400,4.194513427734375,-0.8291688504397868,-0.3136056384280324,-1.0704062950104474
1782811391192584400,4.20458447265625,-0.7241355275601148,-0.26415998193137347,-0.9540089898124336
1782811391202655200,4.2146552734375,-0.6318138022154569,-0.17069069398678838,-0.7854618106603622
1782811391212727300,4.224727294921875,-0.51552492582798,-0.07680712615288794,-0.6886822291240096
1782811391222798300,4.23479833984375,-0.32790392063260076,-0.052876434662938114,-0.6144499949604273
1782811391232869400,4.244869384765625,-0.037730303457379336,-0.13032229711078105,-0.5890308915436268
1782811391242940400,4.2549404296875,0.34774785426557064,-0.2259340039115399,-0.5626970113694667
1782811391253012500,4.265012451171875,0.7645750899761915,-0.3894864435162395,-0.588825432099402
1782811391263083500,4.27508349609375,1.1349205604970454,-0.5669874751050025,-0.6359551398038864
1782811391273154600,4.285154541015625,1.4240063824355602,-0.7172926028627902,-0.619665099260211
1782811391283226400,4.295226318359375,1.6252292120039462,-0.8815020450714975,-0.6084934246435761
1782811391293297400,4.30529736328125,1.715471792986989,-0.9803185392629354,-0.582711625394225
1782811391303368400,4.315368408203125,1.7030349207401274,-1.0168372019082308,-0.5565191995173693
1782811391313440300,4.325440185546875,1.692178011161089,-1.0513584071259945,-0.534329871802032
1782811391323511300,4.33551123046875,1.6688754615068435,-1.083134039962664,-0.42661125536113975
1782811391333582300,4.345582275390625,1.6024866343200206,-1.101237851930037,-0.3172520321063697
1782811391343654400,4.355654296875,1.531072672447562,-1.1514483553193509,-0.2368468083962798
1782811391353725400,4.365725341796875,1.4164987832844256,-1.1725411930348724,-0.2005965143635869
1782811391363796500,4.37579638671875,1.1773995197862386,-1.1747257705323397,-0.19105653260201214
1782811391373867500,4.385867431640625,0.8726514338135719,-1.1648507846627383,-0.21052154991999267
1782811391383939600,4.395939697265625,0.5462795450538397,-1.1280226907420903,-0.24060732997357845
1782811391394010400,4.40601025390625,0.2755535556703806,-1.0654818442203104,-0.2337237079396844
1782811391404081400,4.416081298828125,0.06763327428996563,-0.9975342432841658,-0.18990327091366052
1782811391414153200,4.4261533203125,-0.07677285855710506,-0.9810361129477619,-0.1445918646775186
1782811391424224300,4.436224365234375,-0.12362696419060229,-0.9939179524831473,-0.15406579546555876
1782811391434295300,4.44629541015625,-0.08419277942478656,-1.010019923108816,-0.15197554518803955
1782811391444367400,4.456367431640625,0.008473229312896728,-1.0331211049720643,-0.07566504344567657
1782811391454438400,4.4664384765625,0.002879354828596115,-1.0375593796804548,0.023949615386128425
1782811391464509400,4.476509521484375,-0.25531331619620323,-0.9154482268802822,0.15675605746284127
1782811391474580500,4.48658056640625,-0.57074763135612,-0.7234057519808411,0.25040084810480473
1782811391484652500,4.496652587890625,-0.7419400643199682,-0.5713102336749434,0.37575127508714795
1782811391494723300,4.506723388671875,-0.8843617453515529,-0.4692224627278745,0.45259544531479473
1782811391504794400,4.51679443359375,-0.9955424849450588,-0.40255174985975023,0.47177711564674973
1782811391514866400,4.526866455078125,-0.9219558552086353,-0.36763065860420463,0.4060619499377906
1782811391524937500,4.5369375,-0.6523468871563672,-0.37814854548722504,0.35820801961198445
1782811391535008500,4.547008544921875,-0.4160732024729252,-0.45409766657128925,0.3491321482308209
1782811391545080300,4.557080322265625,-0.3431564348220825,-0.5480332568533718,0.36079599027857184
1782811391555151400,4.5671513671875,-0.5261895277053118,-0.6487127684377133,0.2913870846182108
1782811391565222400,4.577222412109375,-0.9110358172655105,-0.6437656674243509,0.15391805755794047
1782811391575294500,4.58729443359375,-1.41235043143332,-0.483598778604716,0.027007833912968633
1782811391585365500,4.597365478515625,-2.0818770014494654,-0.2522442840144038,-0.0416151820667088
1782811391595436300,4.607436279296875,-2.730993236121535,-0.03936638022661209,-0.09837824890464544
1782811391605507300,4.61750732421875,-3.169917152827978,0.2015188899055123,-0.13691650774404407
1782811391615579400,4.627579345703125,-3.3155478590339422,0.4697131688542664,-0.15434183592796324
1782811391625650400,4.637650390625,-3.1612492777258154,0.6041486734375358,-0.10435571587905287
1782811391635721500,4.647721435546875,-2.6488445297449825,0.6361284505441784,0.007981061881780624
1782811391645793500,4.65779345703125,-1.9471756855368614,0.6081185999818146,0.1964921477846801
1782811391655864600,4.667864501953125,-1.2496318123042582,0.6416429761819541,0.3234017869077623
1782811391665935600,4.677935546875,-0.5466396105378866,0.7447147897303104,0.39123613672778007
1782811391676007400,4.68800732421875,0.21364625781178473,0.769664668200165,0.377604063346982
1782811391686078200,4.698078125,0.8702794439852237,0.7095765485927462,0.36179756853654976
1782811391696149200,4.708149169921875,1.40759476133883,0.6026460137896239,0.3761711079344153
1782811391706221300,4.71822119140625,1.8361890072107314,0.47624315514490007,0.4415716547362506
1782811391716292400,4.728292236328125,2.1743314132630824,0.40135611033439633,0.44831046147197484
1782811391726363400,4.73836328125,2.381783492609858,0.35715456503629683,0.45252866368889805
1782811391736434400,4.748434326171875,2.387676057779789,0.28803163671046494,0.4413305394567549
1782811391746506500,4.758506591796875,2.0945085194855926,0.2071875831916928,0.34165056030377744
1782811391756577500,4.76857763671875,1.4051672419309615,0.1717377918869257,0.12750950471237302
1782811391766648600,4.778648681640625,0.4532119697779417,0.2258759170487523,-0.08920008619278669
1782811391776720600,4.788720703125,-0.44984044751822944,0.27035291828736663,-0.27148469879627224
1782811391786791400,4.79879150390625,-1.1743430548250675,0.3763102241441607,-0.35181627274826166
1782811391796862500,4.808862548828125,-1.7509207075089215,0.6288599208459258,-0.31760961337238547
1782811391806934300,4.818934326171875,-2.1702432671666143,0.8180458372704684,-0.19277590374052522
1782811391817005300,4.82900537109375,-2.261993330103159,0.9820502584263682,-0.004725274956226349
1782811391827076400,4.839076416015625,-1.8822996010005473,1.0882494102150202,0.20699469096809625
1782811391837147400,4.8491474609375,-1.1905220362097024,1.0566453345529734,0.3717188047006726
1782811391847219500,4.859219482421875,-0.2919043864905834,0.976953519809246,0.49484512589275836
1782811391857290500,4.86929052734375,0.5390946019858122,0.8718050461173057,0.5832753967568278
1782811391867361300,4.879361328125,1.1694599589586256,0.7036356142364442,0.575785041001439
1782811391877433300,4.889433349609375,1.6157716478288173,0.5343415622398257,0.5735460299029946
1782811391887504400,4.89950439453125,1.818060060802102,0.5031494283795357,0.5813577265672385
1782811391897575400,4.909575439453125,1.8349129959255457,0.5073904269501567,0.6439230499431491
1782811391907647500,4.9196474609375,1.758929826441407,0.4572185750707984,0.7123638412237167
1782811391917718500,4.929718505859375,1.7404413990706205,0.4549291489593684,0.7427567875303328
1782811391927789600,4.93978955078125,1.7608347832798956,0.4271282649725675,0.703573508785665
1782811391937861400,4.949861328125,1.7385972325086592,0.34812121762260795,0.6684257691673934
1782811391947932400,4.959932373046875,1.5230395881175993,0.25147899873033164,0.5899978368796408
1782811391958003500,4.97000341796875,1.2586007161796093,0.13341522162482142,0.5196422980189324
1782811391968074200,4.98007421875,1.071796288064122,0.06224953542500734,0.49455344946980473
1782811391978146300,4.990146240234375,0.900171308901906,0.028747224926203487,0.5639952344864606
1782811391988217300,5.00021728515625,0.748212568718195,-0.021217852334678173,0.638439942356944
1782811391998288400,5.010288330078125,0.6959136416822671,-0.016260229927301407,0.6995765481039882
1782811392008360400,5.0203603515625,0.6509995642006396,0.03617985914498567,0.731121440924704
1782811392018431500,5.030431396484375,0.4599994379609823,0.07005231813043356,0.7490911051183938
1782811392028502500,5.04050244140625,0.1810913111656904,0.08405570904165506,0.7057379933431744
1782811392038574300,5.05057421875,-0.08282441368103027,0.06185410636663437,0.616781652778387
1782811392048645400,5.060645263671875,-0.30816695450544357,0.010887743108719587,0.5346238863125443
1782811392058716400,5.07071630859375,-0.4495160378694534,0.003446341061592102,0.48272068059593437
1782811392068788500,5.08078857421875,-0.5530091455698013,-0.022969372177124022,0.4067322504147887
1782811392078859300,5.090859375,-0.6162748723000288,-0.07752981440424919,0.32107115200310943
1782811392088930300,5.100930419921875,-0.6976064170747995,-0.09735708916336297,0.22646160798221826
1782811392099001300,5.11100146484375,-0.8760977748751639,-0.1151275775231421,0.14371318214684725
1782811392109073400,5.121073486328125,-1.0791039807289837,-0.1358447868593037,0.056176060730218885
1782811392119144400,5.13114453125,-1.2938193290770053,-0.07738777558505534,-0.023472937785089014
1782811392129215500,5.141215576171875,-1.507476692804694,-0.026488778474926946,-0.10683511160463094
1782811392139287600,5.15128759765625,-1.4001444453328846,0.02068520676270127,-0.2755596931502223
1782811392149358600,5.161358642578125,-0.9985966118186712,-0.016409575270116328,-0.48910716676265
1782811392159429400,5.171429443359375,-0.547545034945011,-0.19054039977341888,-0.5449114715710281
1782811392169501000,5.1815009765625,-0.3125876935571432,-0.3972074662223458,-0.4609925406515598
1782811392179572000,5.191572021484375,-0.5303010546773672,-0.4894819914244115,-0.3555065055683255
1782811392189643000,5.20164306640625,-0.9709440502613782,-0.3863666309952736,-0.28960604642033577
1782811392199714000,5.211714111328125,-1.2696692226827144,-0.11874693706408142,-0.1894029201760888
1782811392209785900,5.221785888671875,-1.3469938699036836,0.1598826650507748,-0.0115440150603652
1782811392219857000,5.23185693359375,-1.3740958118408917,0.38739188238978384,0.11591361333429813
1782811392229928000,5.241927978515625,-1.2700813106149433,0.6846108880318701,0.13266484164893627
1782811392240000000,5.252,-1.038539915150404,0.8336476032890379,0.053960138246417044
1782811392250070800,5.26207080078125,-0.6432575717717409,0.7629521649494767,-0.10321692110747098
1782811392260141800,5.272141845703125,-0.31959435744881626,0.50254444822371,-0.2290104156821966
1782811392270214000,5.2822138671875,-0.11899813534617423,0.2231890160523355,-0.3370595792517066
1782811392280285000,5.292284912109375,-0.011147416958212851,0.03395663013756275,-0.47511166689693923
1782811392290356000,5.30235595703125,0.0015793781459331512,-0.07173588730320334,-0.5974748947620392
1782811392300428000,5.312427978515625,-0.018401333609223365,-0.11993541619628667,-0.6696876057967543
1782811392310495700,5.322495849609375,-0.025345453658699987,-0.0574682924978435,-0.7536185194149613
1782811392320566800,5.33256689453125,-0.02863397381007671,0.11857611054182052,-0.824673877108097
1782811392330638800,5.342638916015625,-0.11596212865114211,0.3155938896358013,-0.8769277959585189
1782811392340710000,5.3527099609375,-0.19763854134082792,0.4362852387659251,-0.9450634668126702
1782811392350781000,5.362781005859375,-0.192690563544631,0.5350716300800442,-1.0518076852634548
1782811392360853000,5.37285302734375,-0.0517442157626152,0.5344672344461083,-1.143287699086964
1782811392370924000,5.382924072265625,0.15823533623516559,0.4647514547936618,-1.2141649237342178
1782811392380995000,5.3929951171875,0.37189854518175125,0.3751785897657275,-1.1479125824086367
1782811392391067100,5.403067138671875,0.5413742373555899,0.30071079328060146,-0.9954463310942053
1782811392401138000,5.413137939453125,0.6226280407190322,0.292573810184747,-0.8473075875900685
1782811392411209000,5.423208984375,0.5667202755361795,0.33582389997690915,-0.7890731330253183
1782811392421280000,5.433280029296875,0.4805670096933841,0.4279287677004933,-0.7221238954767585
1782811392431351800,5.443351806640625,0.4410656049102544,0.5621196498729288,-0.6242689397938549
1782811392441422800,5.4534228515625,0.3801537478297949,0.6675060239739715,-0.48838133670613165
1782811392451494000,5.463493896484375,0.28820319388508797,0.7794885814696549,-0.3683874683208763
1782811392461566000,5.47356591796875,0.20528525670170783,0.8428564534001052,-0.29183205190673467
1782811392471637000,5.483636962890625,0.1630447823435068,0.8033829595372081,-0.30122824128344655
1782811392481707800,5.493707763671875,0.21879063496291637,0.6833905524566769,-0.3674434654690325
1782811392491779800,5.50377978515625,0.34551322708129883,0.48260333782657977,-0.5147505804546177
1782811392501851000,5.513850830078125,0.5580313576459884,0.2716208923965692,-0.6917309491701423
1782811392511922000,5.523921875,0.7725561518579721,0.09883855989277363,-0.9208284586139023
1782811392521994000,5.533993896484375,0.8818056311279535,-0.04203530717492103,-1.1395181174203752
1782811392532065000,5.54406494140625,1.0160650484919547,-0.09709610013961792,-1.2350408307634293
1782811392542136000,5.554135986328125,1.1452297730654477,-0.0895600055463612,-1.1808413308031855
1782811392552207000,5.56420703125,1.2001876901775599,-0.10229118456467985,-1.0707130228720605
1782811392562279000,5.57427880859375,1.1830951010793447,-0.14906155743747948,-0.9723056940034032
1782811392572350000,5.584349853515625,1.197102583643794,-0.15335004841163755,-0.8466919399097561
1782811392582420700,5.594420654296875,1.3484855697661637,-0.21055910545140505,-0.7769856587380171
1782811392592492800,5.604492919921875,1.554682096093893,-0.2972907557040453,-0.725389473143965
1782811392602563800,5.614563720703125,1.740785097941756,-0.3604658815413713,-0.6483851439185441
1782811392612635000,5.624634765625,1.8229793970257042,-0.4479140095002949,-0.5679238061070442
1782811392622707000,5.63470703125,1.7008751123577355,-0.49476416961103675,-0.5025093769103288
1782811392632778000,5.644778076171875,1.3510656493872404,-0.5531109985090792,-0.5490083854958415
1782811392642849000,5.65484912109375,0.9084317722469568,-0.5106238559134304,-0.6245214532501995
1782811392652920000,5.664920166015625,0.5570528680026531,-0.49099458794444795,-0.5927835220754146
1782811392662992100,5.6749921875,0.4573766882419586,-0.4534760275416076,-0.36009792501181365
1782811392673063000,5.68506298828125,0.5990834990024566,-0.3155537037558853,-0.10394041307643055
1782811392683134000,5.695134033203125,0.7078875725924968,-0.21058876993730663,0.029265111320465803
1782811392693205800,5.705205810546875,0.6690326490193605,-0.3477827794484794,0.03709069037958979
1782811392703277800,5.71527783203125,0.17695523427426815,-0.4033569287627935,-0.015362550435215235
1782811392713348900,5.725348876953125,-0.3097153529912233,-0.6298544848412275,-0.13625497509539128
1782811392723421000,5.7354208984375,-0.3406032432079315,-0.8683559285767376,-0.11647943052351474
1782811392733492000,5.745491943359375,-0.46490299209356306,-0.8140918389476836,-0.11086977394819258
1782811392743563000,5.75556298828125,-0.6377782635778189,-0.8157301076740026,-0.0045662850022315975
1782811392753634000,5.765634033203125,-0.8600859667509794,-0.8364858954548835,0.020802695662528275
1782811392763705900,5.775705810546875,-0.630810178130865,-0.8153829016715287,0.0005189093075692653
1782811392773777000,5.78577685546875,-0.02916647325158119,-0.7317018711611628,0.09420110935047268
1782811392783848000,5.795847900390625,0.3824877437353134,-0.5870648521676659,0.3834802619040012
1782811392793919700,5.805919677734375,0.5056213714510203,-0.5445153118602931,0.6970502444967627
1782811392803990800,5.81599072265625,0.7014250985801219,-0.6131069097883999,0.8344218025319278
