time,seconds_elapsed,z,y,x
1782811387053276000,0.06527587890625,0.018819693475961685,0.016551267355680466,-0.008184767328202724
1782811387063347000,0.075346923828125,0.03509347140789032,-0.007696281652897596,0.0026516353245824575
1782811387073418800,0.085418701171875,0.04058597609400749,-0.0415988564491272,0.00684211915358901
1782811387083489800,0.09548974609375,0.043963927775621414,-0.07004380971193314,0.0014316411688923836
1782811387093560800,0.105560791015625,0.04732323810458183,-0.08431249111890793,-0.0071565210819244385
1782811387103633000,0.1156328125,0.044574182480573654,-0.08887224644422531,-0.010739746503531933
1782811387113704000,0.125703857421875,0.04280877113342285,-0.08213578164577484,-0.006538344081491232
1782811387123775000,0.13577490234375,0.045592207461595535,-0.07886948436498642,0.021053163334727287
1782811387133845800,0.145845703125,0.04900557920336723,-0.06520267575979233,0.06246691569685936
1782811387143918000,0.15591796875,0.056367866694927216,-0.04141776263713837,0.09414932876825333
1782811387153988900,0.16598876953125,0.06864370405673981,-0.028354421257972717,0.11053042858839035
1782811387164060200,0.17606005859375,0.0812458023428917,-0.013309117406606674,0.09995436668395996
1782811387174132200,0.18613232421875,0.09690199792385101,0.00021947454661130905,0.07694119215011597
1782811387184203300,0.196203369140625,0.10889962315559387,0.0023836633190512657,0.05363311991095543
1782811387194274300,0.2062744140625,0.11723770946264267,0.0007921581855043769,0.038563892245292664
1782811387204346000,0.21634619140625,0.12895476818084717,-0.0132142947986722,0.034042343497276306
1782811387214417200,0.226417236328125,0.1416490077972412,-0.02581637352705002,0.046723783016204834
1782811387224488200,0.23648828125,0.15839162468910217,-0.030424857512116432,0.06378591805696487
1782811387234560300,0.246560302734375,0.1703934222459793,-0.028340669348835945,0.07935289293527603
1782811387244631000,0.256631103515625,0.17563478648662567,-0.03529577702283859,0.08172470331192017
1782811387254702000,0.2667021484375,0.17767983675003052,-0.037239085882902145,0.07486599683761597
1782811387264774100,0.276774169921875,0.17679911851882935,-0.028405219316482544,0.05336451157927513
1782811387274845200,0.28684521484375,0.1793549507856369,-0.030653193593025208,0.024739526212215424
1782811387284916200,0.296916259765625,0.18819841742515564,-0.037284333258867264,-0.008396388962864876
1782811387294988000,0.306988037109375,0.19590294361114502,-0.042399730533361435,-0.033011455088853836
1782811387305059000,0.31705908203125,0.19351033866405487,-0.04273020476102829,-0.04475385695695877
1782811387315130000,0.327130126953125,0.1818467527627945,-0.05319855734705925,-0.05486241728067398
1782811387325201200,0.337201171875,0.16926518082618713,-0.06600560247898102,-0.06622380763292313
1782811387335273200,0.347273193359375,0.15674778819084167,-0.06578029692173004,-0.0645018070936203
1782811387345344000,0.357343994140625,0.14780791103839874,-0.04473297670483589,-0.05689110979437828
1782811387355415000,0.3674150390625,0.1360604465007782,-0.020847084000706673,-0.049582332372665405
1782811387365487000,0.377487060546875,0.1177837997674942,-0.0034771764185279608,-0.0376812107861042
1782811387375558100,0.38755810546875,0.10622142255306244,0.023238589987158775,-0.018400993198156357
1782811387385629200,0.397629150390625,0.08850425481796265,0.03949933499097824,-0.00769387511536479
1782811387395701200,0.407701171875,0.0721106305718422,0.044523388147354126,0.011484879069030285
1782811387405772300,0.417772216796875,0.05460481345653534,0.06190365552902222,0.030869198963046074
1782811387415843300,0.42784326171875,0.044477880001068115,0.08395862579345703,0.05012492090463638
1782811387425915100,0.4379150390625,0.04481232911348343,0.09037470072507858,0.05803223326802254
1782811387435986200,0.447986083984375,0.04630902409553528,0.08839809894561768,0.06083840876817703
1782811387446057000,0.458056884765625,0.04741210490465164,0.07708605378866196,0.06214894726872444
1782811387456129000,0.46812890625,0.04336436837911606,0.05892835557460785,0.05915369093418121
1782811387466200000,0.478199951171875,0.037786565721035004,0.04178335890173912,0.05984620004892349
1782811387476271000,0.48827099609375,0.023476332426071167,0.04086483269929886,0.05497181415557861
1782811387486343200,0.49834326171875,0.005980859976261854,0.06352090835571289,0.04462278634309769
1782811387496414200,0.508414306640625,-0.005553290713578463,0.08771838992834091,0.03144599869847298
1782811387506485200,0.5184853515625,-0.02550966665148735,0.10771238058805466,0.012391763739287853
1782811387516556300,0.528556396484375,-0.061759818345308304,0.12611961364746094,-0.006204823963344097
1782811387526628400,0.53862841796875,-0.09797985106706619,0.1504298895597458,-0.01871228590607643
1782811387536699100,0.54869921875,-0.1338459700345993,0.1642777919769287,-0.03360974043607712
1782811387546770200,0.558770263671875,-0.15129795670509338,0.16776596009731293,-0.059490762650966644
1782811387556842000,0.568842041015625,-0.14661239087581635,0.16593849658966064,-0.07607000321149826
1782811387566913000,0.5789130859375,-0.12286335974931717,0.19312302768230438,-0.09370636940002441
1782811387576984000,0.588984130859375,-0.08540014177560806,0.19522824883460999,-0.09401556104421616
1782811387587056000,0.59905615234375,-0.034675490111112595,0.19053521752357483,-0.08353137969970703
1782811387597127200,0.609127197265625,0.009738844819366932,0.16084842383861542,-0.050421092659235
1782811387607198200,0.6191982421875,0.03902572765946388,0.11629585176706314,-0.007219844032078981
1782811387617270300,0.629270263671875,0.04982671141624451,0.06585691124200821,0.039701059460639954
1782811387627341300,0.63934130859375,0.05214767903089523,0.03994182497262955,0.07212112098932266
1782811387637412000,0.649412109375,0.05643323436379433,0.03833114355802536,0.07540266960859299
1782811387647484200,0.659484130859375,0.06528886407613754,0.03720322623848915,0.05691244453191757
1782811387657555200,0.66955517578125,0.07515720278024673,0.02961880899965763,0.01990995556116104
1782811387667626200,0.679626220703125,0.08161643147468567,0.011870082467794418,-0.035963088274002075
1782811387677697300,0.689697265625,0.08522234857082367,-0.006774708162993193,-0.07186436653137207
1782811387687769000,0.69976904296875,0.0926194116473198,-0.010581055656075478,-0.08071532100439072
1782811387697840000,0.709840087890625,0.10497301816940308,-0.01306578516960144,-0.07533733546733856
1782811387707911200,0.7199111328125,0.11838497221469879,-0.025551963597536087,-0.05891480669379234
1782811387717983200,0.729983154296875,0.1371285766363144,-0.04168299585580826,-0.0334928035736084
1782811387728054300,0.74005419921875,0.14477375149726868,-0.05469094216823578,-0.00875534862279892
1782811387738125000,0.750125,0.15310971438884735,-0.0707244947552681,0.017928194254636765
1782811387748197000,0.760197021484375,0.15847204625606537,-0.06451395153999329,0.03867131844162941
1782811387758268200,0.77026806640625,0.15734446048736572,-0.04819623380899429,0.04998496174812317
1782811387768339200,0.780339111328125,0.15237507224082947,-0.024360885843634605,0.05765116587281227
1782811387778411300,0.790411376953125,0.13667653501033783,-0.006263375282287598,0.05651586130261421
1782811387788482300,0.800482421875,0.11804432421922684,0.0019338903948664665,0.053658053278923035
1782811387798553300,0.81055322265625,0.10572214424610138,-0.001766039291396737,0.03773687779903412
1782811387808625200,0.820625244140625,0.10205800086259842,-0.016286954283714294,0.014129534363746643
1782811387818696200,0.8306962890625,0.11240224540233612,-0.037238575518131256,0.00005845728446729481
1782811387828767000,0.84076708984375,0.11803878843784332,-0.044550199061632156,0.00490891607478261
1782811387838838000,0.850838134765625,0.11700894683599472,-0.021734099835157394,0.02258085459470749
1782811387848910000,0.86091015625,0.11281340569257736,-0.000629437156021595,0.044756270945072174
1782811387858981000,0.870981201171875,0.10595230013132095,0.012718059122562408,0.05748964473605156
1782811387869052200,0.88105224609375,0.10990521311759949,0.022324299439787865,0.06641481071710587
1782811387879124200,0.891124267578125,0.12164948135614395,0.033093590289354324,0.073960080742836
1782811387889195300,0.9011953125,0.14066249132156372,0.02646820619702339,0.07785869389772415
1782811387899266300,0.911266357421875,0.1603057086467743,0.0053506698459386826,0.06941834092140198
1782811387909338000,0.921338134765625,0.17536716163158417,-0.012126507237553596,0.06284836679697037
1782811387919409200,0.9314091796875,0.18852797150611877,-0.028615735471248627,0.056444261223077774
1782811387929480200,0.941480224609375,0.20585496723651886,-0.06382304430007935,0.05364019423723221
1782811387939552000,0.951552001953125,0.2139376699924469,-0.10456354916095734,0.04920097067952156
1782811387949623000,0.961623046875,0.2204665243625641,-0.12849442660808563,0.042336005717515945
1782811387959694000,0.971694091796875,0.23182037472724915,-0.12862998247146606,0.03814445808529854
1782811387969766100,0.98176611328125,0.2412521094083786,-0.12069937586784363,0.03714697062969208
1782811387979837200,0.991837158203125,0.2456415295600891,-0.12273509800434113,0.033704835921525955
1782811387989908200,1.001908203125,0.23699283599853516,-0.12838003039360046,0.03431904688477516
1782811387999979300,1.011979248046875,0.23485830426216125,-0.12358340620994568,0.04646013304591179
1782811388010051300,1.02205126953125,0.22703559696674347,-0.10295620560646057,0.0646245926618576
1782811388020122000,1.0321220703125,0.21965758502483368,-0.09039993584156036,0.07890259474515915
1782811388030193200,1.042193115234375,0.2194894254207611,-0.09672366082668304,0.07592979818582535
1782811388040265000,1.052264892578125,0.21115000545978546,-0.11988517642021179,0.06748011708259583
1782811388050336000,1.0623359375,0.194486603140831,-0.1421220302581787,0.06526090949773788
1782811388060407000,1.072406982421875,0.17804424464702606,-0.16296686232089996,0.05576540529727936
1782811388070479000,1.08247900390625,0.16898006200790405,-0.18874052166938782,0.039889175444841385
1782811388080550100,1.092550048828125,0.1594584584236145,-0.21303945779800415,0.015020044520497322
1782811388090621200,1.10262109375,0.1491621881723404,-0.2242782711982727,-0.007406014483422041
1782811388100693200,1.112693359375,0.13684161007404327,-0.22867780923843384,-0.022922657430171967
1782811388110764300,1.122764404296875,0.11907373368740082,-0.22589875757694244,-0.02739846706390381
1782811388120835000,1.1328349609375,0.10347506403923035,-0.21076615154743195,-0.028938040137290955
1782811388130906000,1.142906005859375,0.08687103539705276,-0.19278915226459503,-0.028052346780896187
1782811388140978200,1.152978271484375,0.07204441726207733,-0.18010558187961578,-0.015836160629987717
1782811388151049200,1.16304931640625,0.048253051936626434,-0.16850996017456055,0.00038580334512516856
1782811388161120500,1.17312060546875,0.02813180536031723,-0.14988167583942413,0.016665441915392876
1782811388171192300,1.1831923828125,0.008159060031175613,-0.1289747655391693,0.027033673599362373
1782811388181263400,1.193263427734375,-0.010829545557498932,-0.11423896998167038,0.03409584239125252
1782811388191334400,1.20333447265625,-0.012713676318526268,-0.1103719025850296,0.024420220404863358
1782811388201406500,1.213406494140625,-0.009781003929674625,-0.10664907097816467,0.0029855018947273493
1782811388211477500,1.2234775390625,0.006536764092743397,-0.10919550061225891,-0.018906135112047195
1782811388221548500,1.233548583984375,0.019663218408823013,-0.11963429301977158,-0.05009148642420769
1782811388231620600,1.24362060546875,0.03333326429128647,-0.12956300377845764,-0.08253248780965805
1782811388241691400,1.25369140625,0.03965800628066063,-0.13634474575519562,-0.1189594715833664
1782811388251762400,1.263762451171875,0.043678008019924164,-0.15276294946670532,-0.13886821269989014
1782811388261834500,1.27383447265625,0.0458383671939373,-0.15151232481002808,-0.1413785219192505
1782811388271905500,1.283905517578125,0.04961232468485832,-0.13972261548042297,-0.11973467469215393
1782811388281976600,1.2939765625,0.056489408016204834,-0.12020803242921829,-0.09449057281017303
1782811388292047600,1.304047607421875,0.062216617166996,-0.11153791844844818,-0.05824670568108559
1782811388302119400,1.314119384765625,0.06265684217214584,-0.11063005030155182,-0.03237968683242798
1782811388312190500,1.3241904296875,0.06088634952902794,-0.11902633309364319,-0.013591693714261055
1782811388322261500,1.334261474609375,0.05980857089161873,-0.15375368297100067,-0.013225242495536804
1782811388332333600,1.34433349609375,0.047572508454322815,-0.1954479068517685,-0.028909943997859955
1782811388342404400,1.354404296875,0.016270246356725693,-0.24324364960193634,-0.06045695021748543
1782811388352475400,1.364475341796875,-0.038266681134700775,-0.2949540615081787,-0.10172253102064133
1782811388362547500,1.37454736328125,-0.11446531116962433,-0.3401537537574768,-0.1507188230752945
1782811388372618500,1.384618408203125,-0.18071918189525604,-0.35334667563438416,-0.1841338574886322
1782811388382689500,1.394689453125,-0.2229768931865692,-0.3242915868759155,-0.19997726380825043
1782811388392761300,1.40476123046875,-0.24371391534805298,-0.2650097906589508,-0.19393903017044067
1782811388402832400,1.414832275390625,-0.2432001829147339,-0.19750185310840607,-0.16824272274971008
1782811388412903400,1.4249033203125,-0.23359690606594086,-0.1345943659543991,-0.11874832957983017
1782811388422974500,1.434974365234375,-0.22118709981441498,-0.07826504111289978,-0.050172194838523865
1782811388433046300,1.44504638671875,-0.21502716839313507,-0.036492470651865005,0.02202506549656391
1782811388443117300,1.455117431640625,-0.21593956649303436,-0.03073364868760109,0.08011686056852341
1782811388453188400,1.465188232421875,-0.21975082159042358,-0.05031578987836838,0.11128029972314835
1782811388463260400,1.475260498046875,-0.2264537215232849,-0.08185746520757675,0.12211377173662186
1782811388473331500,1.48533154296875,-0.25387322902679443,-0.09682320803403854,0.107213594019413
1782811388483402500,1.495402587890625,-0.2906232476234436,-0.09011923521757126,0.07834546267986298
1782811388493474600,1.505474609375,-0.33313941955566406,-0.08612361550331116,0.0465390719473362
1782811388503545600,1.515545654296875,-0.3704819977283478,-0.07373565435409546,0.026415428146719933
1782811388513616600,1.52561669921875,-0.39412921667099,-0.03232353925704956,0.04144726321101189
1782811388523688400,1.5356884765625,-0.40436533093452454,0.01762404479086399,0.08356142789125443
1782811388533759200,1.54575927734375,-0.4143407344818115,0.07019346952438354,0.14714515209197998
1782811388543830300,1.555830322265625,-0.4198899567127228,0.12726928293704987,0.22907863557338715
1782811388553901300,1.5659013671875,-0.4364657402038574,0.19998443126678467,0.31819239258766174
1782811388563973400,1.575973388671875,-0.4683474898338318,0.2826031446456909,0.3881256580352783
1782811388574044400,1.58604443359375,-0.5035287737846375,0.3713856339454651,0.43115296959877014
1782811388584115500,1.596115478515625,-0.5270380973815918,0.4392496347427368,0.436472624540329
1782811388594187500,1.6061875,-0.5328558683395386,0.45102208852767944,0.4176368713378906
1782811388604258600,1.616258544921875,-0.5151572823524475,0.4054953455924988,0.37632831931114197
1782811388614329600,1.62632958984375,-0.4844118058681488,0.33780637383461,0.32344675064086914
1782811388624401700,1.636401611328125,-0.4512123167514801,0.27666524052619934,0.26184970140457153
1782811388634472400,1.646472412109375,-0.43372678756713867,0.2332320213317871,0.19907313585281372
1782811388644543500,1.65654345703125,-0.43770721554756165,0.20876774191856384,0.14246007800102234
1782811388654615300,1.666615234375,-0.45654618740081787,0.2069542557001114,0.09869680553674698
1782811388664686300,1.676686279296875,-0.475779265165329,0.21322625875473022,0.07024119794368744
1782811388674757400,1.68675732421875,-0.4806058704853058,0.2396308183670044,0.06462544947862625
1782811388684829400,1.696829345703125,-0.4800820052623749,0.2896154224872589,0.08094077557325363
1782811388694900500,1.706900390625,-0.47100692987442017,0.3433344066143036,0.1094823107123375
1782811388704971500,1.716971435546875,-0.45771244168281555,0.3849684000015259,0.14269034564495087
1782811388715042300,1.727042236328125,-0.43206295371055603,0.40549713373184204,0.17721490561962128
1782811388725114400,1.7371142578125,-0.4023982584476471,0.41466638445854187,0.20256979763507843
1782811388735185400,1.747185302734375,-0.3637861907482147,0.422791987657547,0.21538999676704407
1782811388745256400,1.75725634765625,-0.32258176803588867,0.42488789558410645,0.21737857162952423
1782811388755328500,1.76732861328125,-0.2960083484649658,0.40448108315467834,0.19935715198516846
1782811388765399600,1.777399658203125,-0.2906966507434845,0.37247735261917114,0.17288480699062347
1782811388775470600,1.787470703125,-0.2925557494163513,0.3384176790714264,0.13751912117004395
1782811388785542400,1.79754248046875,-0.29800909757614136,0.30119067430496216,0.09361771494150162
1782811388795613400,1.807613525390625,-0.30102288722991943,0.2621614634990692,0.04353083297610283
1782811388805684500,1.8176845703125,-0.2988941967487335,0.20858077704906464,-0.009512944146990776
1782811388815755300,1.82775537109375,-0.2885248064994812,0.1480887532234192,-0.0441657193005085
1782811388825827300,1.837827392578125,-0.26883018016815186,0.06890232115983963,-0.0515594519674778
1782811388835898400,1.8478984375,-0.23037834465503693,-0.016288742423057556,-0.039967890828847885
1782811388845969400,1.857969482421875,-0.19401635229587555,-0.09890985488891602,-0.01316450722515583
1782811388856041500,1.86804150390625,-0.15685909986495972,-0.16779525578022003,0.005621385760605335
1782811388866112500,1.878112548828125,-0.13545100390911102,-0.219875767827034,0.01909271813929081
1782811388876183600,1.88818359375,-0.14288626611232758,-0.24970462918281555,0.024426041170954704
1782811388886255600,1.898255615234375,-0.15933740139007568,-0.255874365568161,0.026852713897824287
1782811388896326700,1.90832666015625,-0.1717682182788849,-0.24887874722480774,0.028350621461868286
1782811388906397400,1.9183974609375,-0.17795102298259735,-0.22771327197551727,0.02535989135503769
1782811388916469500,1.928469482421875,-0.17414404451847076,-0.23842774331569672,0.008158653974533081
1782811388926540300,1.938540283203125,-0.16849148273468018,-0.25168177485466003,0.00014387103146873415
1782811388936611300,1.948611328125,-0.16191625595092773,-0.23616908490657806,-0.007137729320675135
1782811388946683400,1.958683349609375,-0.15513397753238678,-0.18998748064041138,0.0030179694294929504
1782811388956754400,1.96875439453125,-0.1445743590593338,-0.1355752944946289,0.026602284982800484
1782811388966825500,1.978825439453125,-0.11328514665365219,-0.09124299138784409,0.06491637974977493
1782811388976896500,1.988896484375,-0.06256528198719025,-0.04735427722334862,0.12263671308755875
1782811388986968600,1.998968505859375,-0.00614461675286293,-0.008004741743206978,0.19421184062957764
1782811388997039600,2.00903955078125,0.031619518995285034,0.04654359072446823,0.26398766040802
1782811389007110400,2.0191103515625,0.05764685943722725,0.09530580043792725,0.30955567955970764
1782811389017182500,2.029182373046875,0.08136927336454391,0.09073813259601593,0.3106677532196045
1782811389027253500,2.03925341796875,0.10132727026939392,0.03032698854804039,0.264120489358902
1782811389037324500,2.049324462890625,0.11749304085969925,-0.07386987656354904,0.18836906552314758
1782811389047396400,2.059396240234375,0.1289944350719452,-0.1841127723455429,0.11543360352516174
1782811389057467400,2.06946728515625,0.1398686170578003,-0.2984163463115692,0.05933815985918045
1782811389067538400,2.079538330078125,0.14897076785564423,-0.4198455810546875,0.021266141906380653
1782811389077610500,2.089610595703125,0.1683056801557541,-0.5074201822280884,0.017761139199137688
1782811389087681500,2.099681640625,0.20004896819591522,-0.5484467148780823,0.024073095992207527
1782811389097752600,2.109752685546875,0.2361023724079132,-0.5529583692550659,0.035280242562294006
1782811389107823400,2.1198232421875,0.2602798640727997,-0.5125429630279541,0.045431945472955704
1782811389117895400,2.1298955078125,0.28276464343070984,-0.43407657742500305,0.04894164949655533
1782811389127966500,2.139966552734375,0.3060784935951233,-0.342745840549469,0.0530833974480629
1782811389138037500,2.15003759765625,0.34609320759773254,-0.24761079251766205,0.05186555162072182
1782811389148109300,2.160109375,0.3821795582771301,-0.1430492252111435,0.03972499817609787
1782811389158180400,2.170180419921875,0.4178357422351837,-0.04544247314333916,0.02350609377026558
1782811389168251400,2.18025146484375,0.4606013000011444,0.022688642144203186,-0.011335774324834347
1782811389178323200,2.1903232421875,0.5089200139045715,0.0506657138466835,-0.04544297978281975
1782811389188394000,2.20039404296875,0.5665633678436279,0.05271555110812187,-0.07538437098264694
1782811389198465000,2.210465087890625,0.6117544174194336,0.03776067867875099,-0.08660420775413513
1782811389208537000,2.220537109375,0.6677473783493042,0.0375090129673481,-0.06875170767307281
1782811389218608000,2.230608154296875,0.7350990772247314,0.05448273941874504,-0.022751178592443466
1782811389228679200,2.24067919921875,0.8241245746612549,0.07029552012681961,0.03927836939692497
1782811389238750200,2.250750244140625,0.917006254196167,0.06860776990652084,0.10100121051073074
1782811389248822300,2.260822265625,0.9859128594398499,0.034812524914741516,0.14307543635368347
1782811389258893300,2.270893310546875,1.028592824935913,-0.008169615641236305,0.16560132801532745
1782811389268964000,2.280964111328125,1.052716612815857,-0.042691636830568314,0.16387905180454254
1782811389279036200,2.2910361328125,1.0692352056503296,-0.07566288113594055,0.1422136127948761
1782811389289107200,2.301107177734375,1.0647603273391724,-0.11422865092754364,0.09079676121473312
1782811389299178200,2.31117822265625,1.0484545230865479,-0.15466906130313873,0.029528997838497162
1782811389309250000,2.32125,1.017057180404663,-0.18855831027030945,-0.04942014440894127
1782811389319321000,2.331321044921875,0.9952426552772522,-0.20592010021209717,-0.12228790670633316
1782811389329392000,2.34139208984375,0.9643100500106812,-0.2194305956363678,-0.1810034066438675
1782811389339464200,2.351464111328125,0.9276121258735657,-0.21628782153129578,-0.20644232630729675
1782811389349535200,2.36153515625,0.898150622844696,-0.1922093778848648,-0.19999001920223236
1782811389359606300,2.371606201171875,0.8703111410140991,-0.16728278994560242,-0.18014883995056152
1782811389369677000,2.381677001953125,0.8292915225028992,-0.1320832520723343,-0.15378302335739136
1782811389379749000,2.3917490234375,0.7845498323440552,-0.07349123060703278,-0.12817853689193726
1782811389389820200,2.401820068359375,0.7394667863845825,0.006376700475811958,-0.11046480387449265
1782811389399891200,2.41189111328125,0.6985888481140137,0.09233514964580536,-0.10595519840717316
1782811389409963000,2.421962890625,0.6589791178703308,0.17270907759666443,-0.1108090728521347
1782811389420034000,2.432033935546875,0.610058069229126,0.23328067362308502,-0.1198870837688446
1782811389430105000,2.44210498046875,0.5618862509727478,0.2693457007408142,-0.12903690338134766
1782811389440177200,2.45217724609375,0.5202594995498657,0.2893045246601105,-0.13432444632053375
1782811389450248200,2.462248291015625,0.4865041971206665,0.2924065589904785,-0.1455898880958557
1782811389460319200,2.4723193359375,0.4632924795150757,0.28868478536605835,-0.1475631594657898
1782811389470391300,2.482391357421875,0.4437315762042999,0.2862139046192169,-0.14181844890117645
1782811389480462000,2.492462158203125,0.4296817481517792,0.27703917026519775,-0.13386620581150055
1782811389490533000,2.502533203125,0.41660723090171814,0.24494700133800507,-0.12817023694515228
1782811389500604200,2.512604248046875,0.40226081013679504,0.20137494802474976,-0.1238703578710556
1782811389510676200,2.52267626953125,0.38192543387413025,0.16993632912635803,-0.11721884459257126
1782811389520747300,2.532747314453125,0.3649373948574066,0.14694508910179138,-0.11435495316982269
1782811389530818300,2.542818359375,0.3538722097873688,0.11876697838306427,-0.12265602499246597
1782811389540890000,2.55289013671875,0.3379266858100891,0.09040699154138565,-0.14118057489395142
1782811389550961200,2.562961181640625,0.3117653727531433,0.05848022177815437,-0.15927381813526154
1782811389561032000,2.573031982421875,0.2818105220794678,0.0292214322835207,-0.17171785235404968
1782811389571104000,2.58310400390625,0.24129106104373932,-0.0018424771260470152,-0.17530512809753418
1782811389581175000,2.593175048828125,0.19570736587047577,-0.03906739503145218,-0.17864258587360382
1782811389591246000,2.60324609375,0.1404624879360199,-0.08566711843013763,-0.18818603456020355
1782811389601318100,2.613318115234375,0.08621903508901596,-0.1502109318971634,-0.21337077021598816
1782811389611389200,2.62338916015625,0.034238118678331375,-0.22847990691661835,-0.25411927700042725
1782811389621460200,2.633460205078125,-0.014768180437386036,-0.3206891119480133,-0.3043062090873718
1782811389631531300,2.64353125,-0.06690062582492828,-0.40854573249816895,-0.346391886472702
1782811389641603300,2.653603271484375,-0.12402203679084778,-0.4456302523612976,-0.38267695903778076
1782811389651674400,2.66367431640625,-0.16982227563858032,-0.4206857681274414,-0.3850109577178955
1782811389661745200,2.6737451171875,-0.2149946242570877,-0.3432675302028656,-0.36847129464149475
1782811389671817000,2.68381689453125,-0.2703811824321747,-0.23207975924015045,-0.3489825427532196
1782811389681888000,2.693887939453125,-0.33996134996414185,-0.12906354665756226,-0.3430420458316803
1782811389691959000,2.703958984375,-0.41558128595352173,-0.055713701993227005,-0.3458165228366852
1782811389702031000,2.714031005859375,-0.4700593054294586,-0.024311324581503868,-0.33641305565834045
1782811389712102100,2.72410205078125,-0.4919472932815552,-0.009606413543224335,-0.2954331338405609
1782811389722173200,2.734173095703125,-0.47367164492607117,-0.003775243181735277,-0.23117655515670776
1782811389732245200,2.744245361328125,-0.4243714511394501,-0.0017941175028681755,-0.16102436184883118
1782811389742316300,2.75431640625,-0.34154272079467773,-0.0077627673745155334,-0.10214266180992126
1782811389752387300,2.76438720703125,-0.249657541513443,-0.013367390260100365,-0.056992221623659134
1782811389762458000,2.7744580078125,-0.15734510123729706,-0.021000167354941368,-0.025116940960288048
1782811389772530200,2.7845302734375,-0.08085805177688599,-0.04909225553274155,0.011566237546503544
1782811389782601200,2.794601318359375,-0.029233423992991447,-0.09373269230127335,0.058741625398397446
1782811389792672300,2.80467236328125,-0.007442907430231571,-0.1591886729001999,0.11708162724971771
1782811389802744000,2.814744140625,-0.01302769873291254,-0.20778298377990723,0.1802888959646225
1782811389812815000,2.824815185546875,-0.04699498414993286,-0.20756754279136658,0.24098126590251923
1782811389822886100,2.83488623046875,-0.09442523121833801,-0.17196719348430634,0.2774467468261719
1782811389832958200,2.844958251953125,-0.14715981483459473,-0.14503704011440277,0.29171034693717957
1782811389843029200,2.855029296875,-0.20176981389522552,-0.12421461939811707,0.2864605784416199
1782811389853100000,2.86510009765625,-0.253569096326828,-0.09894601255655289,0.2670389413833618
1782811389863171000,2.875171142578125,-0.30988579988479614,-0.07810209691524506,0.24062789976596832
1782811389873243100,2.8852431640625,-0.3723132312297821,-0.06470000743865967,0.2077019065618515
1782811389883314200,2.895314208984375,-0.4370625913143158,-0.04536766931414604,0.16571596264839172
1782811389893385200,2.90538525390625,-0.5127168297767639,-0.024332422763109207,0.12814994156360626
1782811389903457300,2.915457275390625,-0.5944518446922302,-0.010252850130200386,0.08839717507362366
1782811389913528300,2.9255283203125,-0.6795592904090881,0.014174196869134903,0.055240556597709656
1782811389923599400,2.935599365234375,-0.7598776817321777,0.04680594056844711,0.029876206070184708
1782811389933671200,2.945671142578125,-0.8190283179283142,0.09441553801298141,0.012372846715152264
1782811389943742200,2.9557421875,-0.8517328500747681,0.14999254047870636,0.011105730198323727
1782811389953813000,2.96581298828125,-0.8615460991859436,0.1939067244529724,0.010780026204884052
1782811389963885000,2.975885009765625,-0.8526884317398071,0.2219691276550293,0.016453702002763748
1782811389973956000,2.9859560546875,-0.8334337472915649,0.22643472254276276,0.01399746909737587
1782811389984027100,2.996027099609375,-0.7989595532417297,0.21041364967823029,0.01768273487687111
1782811389994098200,3.00609814453125,-0.7564986348152161,0.18353383243083954,0.03538902848958969
1782811390004170200,3.016170166015625,-0.7134109735488892,0.16032549738883972,0.06456200778484344
1782811390014241300,3.0262412109375,-0.684069037437439,0.15243561565876007,0.0963340476155281
1782811390024312300,3.036312255859375,-0.6767072677612305,0.17102357745170593,0.13113363087177277
1782811390034384100,3.046384033203125,-0.6852426528930664,0.2064284384250641,0.1524040251970291
1782811390044455200,3.056455078125,-0.7024477124214172,0.24393798410892487,0.15751612186431885
1782811390054526200,3.066526123046875,-0.7154932022094727,0.26236599683761597,0.14304503798484802
1782811390064598000,3.076597900390625,-0.7208333015441895,0.25332576036453247,0.11105015873908997
1782811390074669000,3.0866689453125,-0.7128989696502686,0.23533931374549866,0.06853652000427246
1782811390084740000,3.096739990234375,-0.6950758695602417,0.20217831432819366,0.036354828625917435
1782811390094812200,3.106812255859375,-0.6750084161758423,0.1574161797761917,0.018074357882142067
1782811390104883200,3.11688330078125,-0.6427161693572998,0.11211990565061569,0.016940291970968246
1782811390114954200,3.126954345703125,-0.6037285923957825,0.06966166198253632,0.027645401656627655
1782811390125025300,3.137025390625,-0.5679194927215576,0.024634694680571556,0.04510118067264557
1782811390135097300,3.147097412109375,-0.5406924486160278,-0.02197382040321827,0.05894456058740616
1782811390145168100,3.157168212890625,-0.5059117078781128,-0.07391355186700821,0.06512448191642761
1782811390155239200,3.1672392578125,-0.45891040563583374,-0.15197159349918365,0.060130514204502106
1782811390165312300,3.177312255859375,-0.42076241970062256,-0.24482965469360352,0.048664964735507965
1782811390175383300,3.18738330078125,-0.3869432210922241,-0.30832287669181824,0.026629168540239334
1782811390185454300,3.197454345703125,-0.3481409549713135,-0.3390823006629944,-0.007708421442657709
1782811390195526400,3.2075263671875,-0.31312039494514465,-0.34441661834716797,-0.039208024740219116
1782811390205597400,3.217597412109375,-0.2879454493522644,-0.3336728811264038,-0.07604510337114334
1782811390215668500,3.22766845703125,-0.26848146319389343,-0.3064761161804199,-0.09983139485120773
1782811390225740500,3.237740478515625,-0.25610238313674927,-0.26395300030708313,-0.11032921820878983
1782811390235811300,3.247811279296875,-0.24142250418663025,-0.22743147611618042,-0.11309624463319778
1782811390245882400,3.25788232421875,-0.23011994361877441,-0.19722726941108704,-0.11736556887626648
1782811390255953400,3.267953369140625,-0.22664745151996613,-0.16037312150001526,-0.12611138820648193
1782811390266025200,3.278025146484375,-0.22664272785186768,-0.11279264837503433,-0.1512765735387802
1782811390276096300,3.28809619140625,-0.2254299372434616,-0.10031120479106903,-0.1952189952135086
1782811390286167300,3.298167236328125,-0.221868097782135,-0.15421827137470245,-0.24535426497459412
1782811390296239400,3.3082392578125,-0.2179604470729828,-0.25522637367248535,-0.28582340478897095
1782811390306310400,3.318310302734375,-0.21592023968696594,-0.343247652053833,-0.29586708545684814
1782811390316381200,3.328381103515625,-0.2249417006969452,-0.368386834859848,-0.2634369730949402
1782811390326453500,3.33845361328125,-0.22770699858665466,-0.3042248785495758,-0.19578102231025696
1782811390336524300,3.348524169921875,-0.21212537586688995,-0.16090233623981476,-0.11654666066169739
1782811390346595300,3.35859521484375,-0.1789565533399582,0.014132436364889145,-0.03200569748878479
1782811390356667400,3.36866748046875,-0.13269637525081635,0.1736949384212494,0.05584852397441864
1782811390366738400,3.378738525390625,-0.08345915377140045,0.3196951746940613,0.15366792678833008
1782811390376809500,3.3888095703125,-0.04235326126217842,0.4231502115726471,0.2575061619281769
1782811390386880500,3.398880615234375,0.002446124330163002,0.4587891399860382,0.36319810152053833
1782811390396952300,3.408952392578125,0.04712730646133423,0.44464775919914246,0.4568771719932556
1782811390407023400,3.4190234375,0.08784151077270508,0.42166125774383545,0.5351467132568359
1782811390417094100,3.42909423828125,0.11799728125333786,0.4096088707447052,0.5776174664497375
1782811390427166200,3.439166259765625,0.14510884881019592,0.4242382049560547,0.58310467004776
1782811390437237200,3.4492373046875,0.18874076008796692,0.44202837347984314,0.5407844185829163
1782811390447308300,3.459308349609375,0.2572474181652069,0.4077441692352295,0.4729660153388977
1782811390457380400,3.46938037109375,0.33108943700790405,0.32388895750045776,0.39561212062835693
1782811390467451400,3.479451416015625,0.4162738025188446,0.22815556824207306,0.3298147916793823
1782811390477522400,3.4895224609375,0.4954413175582886,0.12380839139223099,0.28235912322998047
1782811390487594200,3.49959423828125,0.5662606954574585,0.010408115573227406,0.24908533692359924
1782811390497665300,3.509665283203125,0.6296420693397522,-0.1090487688779831,0.22585192322731018
1782811390507736300,3.519736328125,0.6871665716171265,-0.22208169102668762,0.21959252655506134
1782811390517807400,3.529807373046875,0.7374720573425293,-0.3199395537376404,0.22085511684417725
1782811390527879200,3.539879150390625,0.7688877582550049,-0.41636529564857483,0.23938627541065216
1782811390537950200,3.5499501953125,0.7783891558647156,-0.4927074611186981,0.26545754075050354
1782811390548021200,3.560021240234375,0.7629650235176086,-0.513242781162262,0.30478405952453613
1782811390558093300,3.57009326171875,0.7308356165885925,-0.486480176448822,0.3439048230648041
1782811390568164400,3.580164306640625,0.6766522526741028,-0.4384579658508301,0.3707961142063141
1782811390578235400,3.5902353515625,0.6049724817276001,-0.3661819100379944,0.37649741768836975
1782811390588307500,3.600307373046875,0.5280824303627014,-0.2697369158267975,0.34986990690231323
1782811390598378500,3.61037841796875,0.44465333223342896,-0.15796908736228943,0.29426631331443787
1782811390608449300,3.62044921875,0.3738306164741516,-0.05363379791378975,0.21872460842132568
1782811390618520300,3.630520263671875,0.3149465322494507,0.0437830351293087,0.1336379498243332
1782811390628592000,3.640592041015625,0.27233266830444336,0.11099550127983093,0.057843342423439026
1782811390638663200,3.6506630859375,0.2493160516023636,0.13462546467781067,0.01316775381565094
1782811390648734200,3.660734130859375,0.2307635098695755,0.13010504841804504,-0.012888694182038307
1782811390658806300,3.67080615234375,0.21490731835365295,0.10371366888284683,-0.015996869653463364
1782811390668877300,3.680877197265625,0.20474524796009064,0.08118478953838348,-0.0033457137178629637
1782811390678948400,3.6909482421875,0.19493550062179565,0.08276563882827759,0.017449313774704933
1782811390689020400,3.7010205078125,0.19228337705135345,0.07827886193990707,0.039924055337905884
1782811390699091500,3.711091552734375,0.1975441873073578,0.05334021523594856,0.05448409169912338
1782811390709162200,3.721162353515625,0.20797951519489288,0.029333336278796196,0.06586198508739471
1782811390719234300,3.731234375,0.2213195413351059,0.00025321589782834053,0.0679088905453682
1782811390729305300,3.741305419921875,0.23536500334739685,-0.014196882024407387,0.059234943240880966
1782811390739376400,3.75137646484375,0.2444911152124405,-0.023625005036592484,0.04037683084607124
1782811390749447400,3.761447509765625,0.25303810834884644,-0.049620602279901505,0.008236122317612171
1782811390759519200,3.771519287109375,0.2617439925670624,-0.08922633528709412,-0.023434454575181007
1782811390769590300,3.78159033203125,0.2591681182384491,-0.13798774778842926,-0.05499786138534546
1782811390779661300,3.791661376953125,0.2594115436077118,-0.19051885604858398,-0.08313042670488358
1782811390789733400,3.8017333984375,0.25492149591445923,-0.23914121091365814,-0.09995251893997192
1782811390799804400,3.811804443359375,0.24388352036476135,-0.2630321681499481,-0.11323104053735733
1782811390809875200,3.821875244140625,0.22224950790405273,-0.281243234872818,-0.1222342997789383
1782811390819947300,3.831947265625,0.18745717406272888,-0.2995985448360443,-0.141496941447258
1782811390830018300,3.842018310546875,0.14581802487373352,-0.3233318626880646,-0.17338156700134277
1782811390840089300,3.85208935546875,0.08595334738492966,-0.335326224565506,-0.22060659527778625
1782811390850161400,3.862161376953125,0.015584766864776611,-0.32965385913848877,-0.2715842127799988
1782811390860232400,3.872232421875,-0.05375941842794418,-0.30731552839279175,-0.31525900959968567
1782811390870303500,3.882303466796875,-0.11411032825708389,-0.2621898651123047,-0.3323363661766052
1782811390880374500,3.89237451171875,-0.15742185711860657,-0.2059508115053177,-0.32681164145469666
1782811390890446300,3.9024462890625,-0.1902300864458084,-0.14995895326137543,-0.29759481549263
1782811390900517000,3.91251708984375,-0.22036294639110565,-0.11828464269638062,-0.27042683959007263
1782811390910588200,3.922588134765625,-0.2727571725845337,-0.09452498704195023,-0.28613415360450745
1782811390920660200,3.93266015625,-0.3469453752040863,-0.08880957216024399,-0.36452510952949524
1782811390930731300,3.942731201171875,-0.42048677802085876,-0.09907864779233932,-0.48698198795318604
1782811390940802300,3.95280224609375,-0.48653873801231384,-0.11745206266641617,-0.6160518527030945
1782811390950874400,3.962874267578125,-0.532584011554718,-0.13398270308971405,-0.7165248394012451
1782811390960945400,3.9729453125,-0.5468577146530151,-0.14880318939685822,-0.7443538308143616
1782811390971016400,3.983016357421875,-0.515864908695221,-0.17004509270191193,-0.7016950249671936
1782811390981088500,3.993088623046875,-0.4477148950099945,-0.1865641474723816,-0.5879980325698853
1782811390991159600,4.00315966796875,-0.3333145081996918,-0.18361997604370117,-0.43283411860466003
1782811391001230300,4.013230224609375,-0.18324486911296844,-0.16401271522045135,-0.26874852180480957
1782811391011301400,4.02330126953125,-0.033590108156204224,-0.16122692823410034,-0.1244322657585144
1782811391021373200,4.033373291015625,0.051552481949329376,-0.1985284835100174,-0.007618298754096031
1782811391031444200,4.0434443359375,0.04477294906973839,-0.2257043421268463,0.07207164168357849
1782811391041515300,4.053515380859375,-0.012087403796613216,-0.18602722883224487,0.1139698252081871
1782811391051587300,4.06358740234375,-0.0861438438296318,-0.11900316178798676,0.1012968048453331
1782811391061658400,4.073658447265625,-0.13799558579921722,-0.0715448334813118,0.030841819941997528
1782811391071729400,4.0837294921875,-0.15282100439071655,-0.054825086146593094,-0.06957539916038513
1782811391081801500,4.093801513671875,-0.13687506318092346,-0.03450889512896538,-0.16944313049316406
1782811391091872500,4.10387255859375,-0.10680603981018066,-0.014921024441719055,-0.2540924847126007
1782811391101943300,4.113943359375,-0.07531069964170456,-0.01675434596836567,-0.3079354763031006
1782811391112014300,4.124014404296875,-0.05393807962536812,-0.04266290366649628,-0.3377971351146698
1782811391122086400,4.13408642578125,-0.047475118190050125,-0.08321911096572876,-0.3462175130844116
1782811391132157400,4.144157470703125,-0.05607280880212784,-0.11386139690876007,-0.3411864936351776
1782811391142228500,4.154228515625,-0.08107509464025497,-0.12293025851249695,-0.32396942377090454
1782811391152300300,4.16430029296875,-0.1172635406255722,-0.10306645184755325,-0.30076512694358826
1782811391162370600,4.17437060546875,-0.16066774725914001,-0.05406482145190239,-0.27299341559410095
1782811391172441600,4.184441650390625,-0.21112525463104248,0.00337116327136755,-0.24914805591106415
1782811391182513400,4.194513427734375,-0.2513773441314697,0.06626943498849869,-0.22834530472755432
1782811391192584400,4.20458447265625,-0.2717456817626953,0.12460709363222122,-0.20088621973991394
1782811391202655200,4.2146552734375,-0.2715078592300415,0.19292862713336945,-0.16952909529209137
1782811391212727300,4.224727294921875,-0.2548108994960785,0.264189213514328,-0.1262095868587494
1782811391222798300,4.23479833984375,-0.2317267805337906,0.3391670286655426,-0.06980890780687332
1782811391232869400,4.244869384765625,-0.20875585079193115,0.40734952688217163,-0.019618989899754524
1782811391242940400,4.2549404296875,-0.19069482386112213,0.4365217983722687,0.024768181145191193
1782811391253012500,4.265012451171875,-0.19776548445224762,0.4312185049057007,0.06487572938203812
1782811391263083500,4.27508349609375,-0.21566326916217804,0.39118000864982605,0.10172562301158905
1782811391273154600,4.285154541015625,-0.2480708509683609,0.32870352268218994,0.13088944554328918
1782811391283226400,4.295226318359375,-0.28515908122062683,0.25890713930130005,0.149919331073761
1782811391293297400,4.30529736328125,-0.31800514459609985,0.21089386940002441,0.16154193878173828
1782811391303368400,4.315368408203125,-0.3462737798690796,0.1918053925037384,0.16028866171836853
1782811391313440300,4.325440185546875,-0.3701493740081787,0.17177125811576843,0.1493566632270813
1782811391323511300,4.33551123046875,-0.3910386860370636,0.1472262442111969,0.13838763535022736
1782811391333582300,4.345582275390625,-0.4056608974933624,0.10735341161489487,0.1274292767047882
1782811391343654400,4.355654296875,-0.41809067130088806,0.05238070711493492,0.1219029426574707
1782811391353725400,4.365725341796875,-0.42954254150390625,-0.008827978745102882,0.12390168756246567
1782811391363796500,4.37579638671875,-0.4444306790828705,-0.04394335299730301,0.1264953464269638
1782811391373867500,4.385867431640625,-0.45439136028289795,-0.04984534531831741,0.13173289597034454
1782811391383939600,4.395939697265625,-0.4579940736293793,-0.030547812581062317,0.13652312755584717
1782811391394010400,4.40601025390625,-0.4601835012435913,0.006479611620306969,0.1437346637248993
1782811391404081400,4.416081298828125,-0.4469774067401886,0.05192459002137184,0.15160538256168365
1782811391414153200,4.4261533203125,-0.4408540725708008,0.09848196059465408,0.16001549363136292
1782811391424224300,4.436224365234375,-0.4335378408432007,0.134380042552948,0.16427788138389587
1782811391434295300,4.44629541015625,-0.42620813846588135,0.1558958888053894,0.15571895241737366
1782811391444367400,4.456367431640625,-0.4271644651889801,0.14006897807121277,0.13216915726661682
1782811391454438400,4.4664384765625,-0.4226112961769104,0.11248888820409775,0.10547593981027603
1782811391464509400,4.476509521484375,-0.39236947894096375,0.1298188716173172,0.08512619137763977
1782811391474580500,4.48658056640625,-0.3430206775665283,0.1629018783569336,0.07637966424226761
1782811391484652500,4.496652587890625,-0.28321167826652527,0.2013036012649536,0.07285763323307037
1782811391494723300,4.506723388671875,-0.21020859479904175,0.2416204810142517,0.0904260203242302
1782811391504794400,4.51679443359375,-0.13832908868789673,0.28831103444099426,0.12099644541740417
1782811391514866400,4.526866455078125,-0.08128780126571655,0.2879927456378937,0.13692134618759155
1782811391524937500,4.5369375,-0.03945512697100639,0.21672548353672028,0.12473391741514206
1782811391535008500,4.547008544921875,0.006491442676633596,0.08396508544683456,0.09053346514701843
1782811391545080300,4.557080322265625,0.0392451286315918,-0.0700756162405014,0.040460169315338135
1782811391555151400,4.5671513671875,0.059906307607889175,-0.20897087454795837,-0.023713568225502968
1782811391565222400,4.577222412109375,0.06248078495264053,-0.3218953013420105,-0.09383060783147812
1782811391575294500,4.58729443359375,0.0701042041182518,-0.3657090663909912,-0.1431703269481659
1782811391585365500,4.597365478515625,0.08818493783473969,-0.3348270654678345,-0.1572943925857544
1782811391595436300,4.607436279296875,0.10983272641897202,-0.2183152139186859,-0.12335953116416931
1782811391605507300,4.61750732421875,0.14465674757957458,-0.03837926685810089,-0.05870436877012253
1782811391615579400,4.627579345703125,0.19760482013225555,0.16541962325572968,0.03602461516857147
1782811391625650400,4.637650390625,0.2567746639251709,0.3490797281265259,0.1374998390674591
1782811391635721500,4.647721435546875,0.31485968828201294,0.46595317125320435,0.2434680461883545
1782811391645793500,4.65779345703125,0.3779531717300415,0.5272085666656494,0.3569759428501129
1782811391655864600,4.667864501953125,0.4493912160396576,0.5604411363601685,0.4710748493671417
1782811391665935600,4.677935546875,0.51566082239151,0.5625042915344238,0.5656298995018005
1782811391676007400,4.68800732421875,0.5761691927909851,0.5285962224006653,0.6266694068908691
1782811391686078200,4.698078125,0.6185914874076843,0.4474659264087677,0.6366597414016724
1782811391696149200,4.708149169921875,0.651742160320282,0.34623077511787415,0.6058399081230164
1782811391706221300,4.71822119140625,0.6776075959205627,0.20120511949062347,0.5337971448898315
1782811391716292400,4.728292236328125,0.7034799456596375,0.013245153240859509,0.43848201632499695
1782811391726363400,4.73836328125,0.7197625637054443,-0.20865927636623383,0.31873777508735657
1782811391736434400,4.748434326171875,0.72682124376297,-0.451917439699173,0.1875080168247223
1782811391746506500,4.758506591796875,0.709119439125061,-0.6800464391708374,0.05732150748372078
1782811391756577500,4.76857763671875,0.6653593182563782,-0.8286016583442688,-0.04159554839134216
1782811391766648600,4.778648681640625,0.6014597415924072,-0.865196168422699,-0.09626305103302002
1782811391776720600,4.788720703125,0.5207030177116394,-0.816673755645752,-0.11091780662536621
1782811391786791400,4.79879150390625,0.4341830611228943,-0.7045472264289856,-0.08254608511924744
1782811391796862500,4.808862548828125,0.37390637397766113,-0.5205612778663635,-0.012452970258891582
1782811391806934300,4.818934326171875,0.34218332171440125,-0.2897358536720276,0.08337715268135071
1782811391817005300,4.82900537109375,0.33497992157936096,-0.048224519938230515,0.18420346081256866
1782811391827076400,4.839076416015625,0.3482525646686554,0.1524132490158081,0.2788226306438446
1782811391837147400,4.8491474609375,0.35303935408592224,0.2760426998138428,0.34669095277786255
1782811391847219500,4.859219482421875,0.35439836978912354,0.3295466899871826,0.3808947503566742
1782811391857290500,4.86929052734375,0.35317420959472656,0.320453405380249,0.3784566819667816
1782811391867361300,4.879361328125,0.34122753143310547,0.276894748210907,0.34117722511291504
1782811391877433300,4.889433349609375,0.323397159576416,0.20758622884750366,0.28601008653640747
1782811391887504400,4.89950439453125,0.3136899173259735,0.1379387080669403,0.2362486869096756
1782811391897575400,4.909575439453125,0.30940699577331543,0.0891755223274231,0.20031549036502838
1782811391907647500,4.9196474609375,0.3101545572280884,0.0650336965918541,0.17954815924167633
1782811391917718500,4.929718505859375,0.3166210651397705,0.040865544229745865,0.1468457281589508
1782811391927789600,4.93978955078125,0.3182953894138336,-0.0018217300530523062,0.10502371937036514
1782811391937861400,4.949861328125,0.31219282746315,-0.032841168344020844,0.052041616290807724
1782811391947932400,4.959932373046875,0.294380784034729,-0.04177394136786461,0.013140820898115635
1782811391958003500,4.97000341796875,0.25847581028938293,-0.04343695566058159,-0.0265045166015625
1782811391968074200,4.98007421875,0.2226022332906723,-0.05955493822693825,-0.03876278176903725
1782811391978146300,4.990146240234375,0.1841437667608261,-0.06405608355998993,-0.035967867821455
1782811391988217300,5.00021728515625,0.15121272206306458,-0.08031041920185089,-0.03432096913456917
1782811391998288400,5.010288330078125,0.13496699929237366,-0.11434278637170792,-0.0446941964328289
1782811392008360400,5.0203603515625,0.13105641305446625,-0.171805277466774,-0.056633949279785156
1782811392018431500,5.030431396484375,0.13442589342594147,-0.21550701558589935,-0.06998628377914429
1782811392028502500,5.04050244140625,0.12819063663482666,-0.24244089424610138,-0.07036472111940384
1782811392038574300,5.05057421875,0.11260104179382324,-0.2547224164009094,-0.06851301342248917
1782811392048645400,5.060645263671875,0.09347555041313171,-0.26195183396339417,-0.07023262232542038
1782811392058716400,5.07071630859375,0.0712120309472084,-0.26272401213645935,-0.07639924436807632
1782811392068788500,5.08078857421875,0.037643689662218094,-0.26093196868896484,-0.09805766493082047
1782811392078859300,5.090859375,0.005298041272908449,-0.2585591673851013,-0.1314620077610016
1782811392088930300,5.100930419921875,-0.02948843501508236,-0.25037235021591187,-0.15937992930412292
1782811392099001300,5.11100146484375,-0.059311822056770325,-0.23233729600906372,-0.17256967723369598
1782811392109073400,5.121073486328125,-0.09685147553682327,-0.19833990931510925,-0.16380362212657928
1782811392119144400,5.13114453125,-0.13054397702217102,-0.13522356748580933,-0.12633830308914185
1782811392129215500,5.141215576171875,-0.14972300827503204,-0.042140234261751175,-0.08228722959756851
1782811392139287600,5.15128759765625,-0.18028174340724945,0.039068207144737244,-0.06702952086925507
1782811392149358600,5.161358642578125,-0.24188411235809326,0.07055928558111191,-0.10772368311882019
1782811392159429400,5.171429443359375,-0.31645703315734863,0.044685982167720795,-0.19822928309440613
1782811392169501000,5.1815009765625,-0.3927430212497711,-0.00781877338886261,-0.29436352849006653
1782811392179572000,5.191572021484375,-0.46561023592948914,-0.004958349745720625,-0.3671264946460724
1782811392189643000,5.20164306640625,-0.506597101688385,0.05795616656541824,-0.40581023693084717
1782811392199714000,5.211714111328125,-0.5109515190124512,0.1202227920293808,-0.4050198793411255
1782811392209785900,5.221785888671875,-0.4802604615688324,0.18115538358688354,-0.36901500821113586
1782811392219857000,5.23185693359375,-0.41557055711746216,0.21817389130592346,-0.2979641258716583
1782811392229928000,5.241927978515625,-0.3223476707935333,0.2360474318265915,-0.1935836672782898
1782811392240000000,5.252,-0.24783340096473694,0.20807035267353058,-0.07467833906412125
1782811392250070800,5.26207080078125,-0.2008107602596283,0.1364358514547348,0.028719954192638397
1782811392260141800,5.272141845703125,-0.18642283976078033,0.0514361634850502,0.1026267558336258
1782811392270214000,5.2822138671875,-0.193956658244133,-0.010349709540605545,0.13544543087482452
1782811392280285000,5.292284912109375,-0.21519869565963745,-0.031020259484648705,0.13150827586650848
1782811392290356000,5.30235595703125,-0.24229636788368225,-0.004073062911629677,0.10422471165657043
1782811392300428000,5.312427978515625,-0.27240315079689026,0.05200504511594772,0.0618608184158802
1782811392310495700,5.322495849609375,-0.3024177551269531,0.09492986649274826,0.020819641649723053
1782811392320566800,5.33256689453125,-0.32136693596839905,0.1183704361319542,0.0032459802459925413
1782811392330638800,5.342638916015625,-0.33196577429771423,0.12800255417823792,0.02833561971783638
1782811392340710000,5.3527099609375,-0.34989988803863525,0.13626109063625336,0.08543779700994492
1782811392350781000,5.362781005859375,-0.37688544392585754,0.13700251281261444,0.14528115093708038
1782811392360853000,5.37285302734375,-0.41549941897392273,0.13419486582279205,0.17855477333068848
1782811392370924000,5.382924072265625,-0.4616900682449341,0.13831424713134766,0.1705373227596283
1782811392380995000,5.3929951171875,-0.5087836384773254,0.1455608755350113,0.12511172890663147
1782811392391067100,5.403067138671875,-0.5500168800354004,0.15187948942184448,0.04981110990047455
1782811392401138000,5.413137939453125,-0.5700931549072266,0.16137200593948364,-0.03204889968037605
1782811392411209000,5.423208984375,-0.5811338424682617,0.18459904193878174,-0.10714977234601974
1782811392421280000,5.433280029296875,-0.5796076059341431,0.21185962855815887,-0.16178056597709656
1782811392431351800,5.443351806640625,-0.5635775327682495,0.21800434589385986,-0.18125653266906738
1782811392441422800,5.4534228515625,-0.525698184967041,0.19981391727924347,-0.16680459678173065
1782811392451494000,5.463493896484375,-0.47651010751724243,0.16922138631343842,-0.11038446426391602
1782811392461566000,5.47356591796875,-0.4259975552558899,0.12881354987621307,-0.03200458362698555
1782811392471637000,5.483636962890625,-0.3752118647098541,0.10473751276731491,0.052868496626615524
1782811392481707800,5.493707763671875,-0.33605682849884033,0.09797289967536926,0.12570644915103912
1782811392491779800,5.50377978515625,-0.3134971857070923,0.09885041415691376,0.172846257686615
1782811392501851000,5.513850830078125,-0.3151649832725525,0.10968079417943954,0.1947031468153
1782811392511922000,5.523921875,-0.3464350402355194,0.1423170417547226,0.1901579350233078
1782811392521994000,5.533993896484375,-0.3878231644630432,0.21187305450439453,0.15350741147994995
1782811392532065000,5.54406494140625,-0.4215470254421234,0.2787777781486511,0.11470834910869598
1782811392542136000,5.554135986328125,-0.44431424140930176,0.32350122928619385,0.0799923911690712
1782811392552207000,5.56420703125,-0.46780386567115784,0.3502143323421478,0.06482755392789841
1782811392562279000,5.57427880859375,-0.48419061303138733,0.3765476644039154,0.07566198706626892
1782811392572350000,5.584349853515625,-0.49008339643478394,0.39221611618995667,0.08707735687494278
1782811392582420700,5.594420654296875,-0.47956201434135437,0.3829829692840576,0.09150820970535278
1782811392592492800,5.604492919921875,-0.4652262032032013,0.3397689461708069,0.08017885684967041
1782811392602563800,5.614563720703125,-0.44692307710647583,0.2551383972167969,0.05809427797794342
1782811392612635000,5.624634765625,-0.42252424359321594,0.14475542306900024,0.034282952547073364
1782811392622707000,5.63470703125,-0.3990839421749115,0.047835756093263626,0.019809598103165627
1782811392632778000,5.644778076171875,-0.37306833267211914,-0.011698946356773376,0.002791997976601124
1782811392642849000,5.65484912109375,-0.34082499146461487,-0.03184887021780014,-0.00048140130820684135
1782811392652920000,5.664920166015625,-0.3042304813861847,-0.011971303261816502,0.01288234069943428
1782811392662992100,5.6749921875,-0.24037261307239532,-0.0009233944583684206,0.03733392059803009
1782811392673063000,5.68506298828125,-0.14603598415851593,-0.013373405672609806,0.04815381020307541
1782811392683134000,5.695134033203125,-0.06026330962777138,-0.06901408731937408,0.027724290266633034
1782811392693205800,5.705205810546875,-0.012165287509560585,-0.11656536161899567,-0.001534261740744114
1782811392703277800,5.71527783203125,-0.023875800892710686,-0.04019927233457565,0.13038992881774902
1782811392713348900,5.725348876953125,-0.09012539684772491,-0.09250082075595856,0.19155234098434448
1782811392723421000,5.7354208984375,-0.10838773101568222,-0.09997298568487167,0.2375801056623459
1782811392733492000,5.745491943359375,-0.07729559391736984,-0.07536458224058151,0.24412348866462708
1782811392743563000,5.75556298828125,-0.03453750163316727,0.04564080014824867,0.2610541880130768
1782811392753634000,5.765634033203125,0.005693010054528713,0.19840531051158905,0.2716045677661896
1782811392763705900,5.775705810546875,0.024557221680879593,0.2609010338783264,0.2325846552848816
1782811392773777000,5.78577685546875,0.052500173449516296,0.19491298496723175,0.1699947714805603
1782811392783848000,5.795847900390625,0.12443606555461884,0.07947441935539246,0.11682166159152985
1782811392793919700,5.805919677734375,0.21409830451011658,-0.09948866814374924,0.0906052365899086
1782811392803990800,5.81599072265625,0.26636672019958496,-0.4509440064430237,0.0384058877825737
