time,seconds_elapsed,z,y,x
1782661663018810600,0.066810546875,0.012212415841221808,-0.13299182684728875,0.14354748845743015
1782661663028882400,0.07688232421875,0.03151157507300377,-0.12420548559776506,0.12602242622608317
1782661663038953200,0.086953125,-0.0148836808770895,-0.11132571015530265,0.11094971644976176
1782661663049025500,0.097025634765625,0.043322424376010894,-0.08994536986844613,0.0880334992319811
1782661663059097600,0.10709765625,0.011598667857050896,-0.07846139616593718,0.09333390719504095
1782661663069169400,0.11716943359375,0.024766192466020583,-0.05464178210133686,0.06992184188487008
1782661663079240400,0.127240478515625,-0.001418050104379654,-0.03891299216961488,0.07753033499405719
1782661663089312300,0.137312255859375,0.03344692704975605,-0.06493609849470668,0.06955973057420924
1782661663099384300,0.14738427734375,0.026415128716826438,-0.07199841069690882,0.06494902190836147
1782661663109456600,0.15745654296875,-0.012940730115771293,-0.0755442392107565,0.10410488292314111
1782661663119528400,0.167528564453125,0.02970540243387222,-0.07131027316912077,0.12252551488787866
1782661663129599200,0.17759912109375,0.016382395002245902,-0.060901865409407764,0.13614857384515924
1782661663139671300,0.18767138671875,0.017429273706674575,-0.0591873896417208,0.14537270372374914
1782661663149743400,0.197743408203125,-0.007116554006934166,-0.053607909008953715,0.13963890017895028
1782661663159815400,0.2078154296875,0.023556232154369354,-0.02626534498259425,0.12084704201533458
1782661663169886500,0.217886474609375,-0.0015904840618371963,-0.046201843136688694,0.10106930548637173
1782661663179958300,0.227958251953125,0.02055120511949062,-0.10039506861977279,0.010826176514057442
1782661663190030300,0.2380302734375,0.07471826411485671,-0.10240066368798725,0.00999463019389659
1782661663200102400,0.248102294921875,0.011121113473176956,-0.12305232437411323,0.05518387135509401
1782661663210173400,0.25817333984375,0.05167231957018375,-0.13173782646451146,0.050474287158343935
1782661663220245200,0.268245361328125,0.017855974686145783,-0.13937191980583594,0.051976389683829616
1782661663230317300,0.2783173828125,0.03851064018011093,-0.12437103315670973,0.06334591582696884
1782661663240389400,0.288389404296875,0.011880407407879828,-0.11968927768180146,0.07274812395251355
1782661663250460400,0.29846044921875,0.03208616009056568,-0.09215598598946817,0.07789047354334033
1782661663260532500,0.308532470703125,0.020863339808583257,-0.09998196690739132,0.06135278751468286
1782661663270604300,0.318604248046875,0.03448036175072193,-0.09117742328089662,0.0411518845370505
1782661663280676400,0.32867626953125,0.01772270369529724,-0.06604194084475748,0.044319573054043576
1782661663290747400,0.338747314453125,-0.00636953503191471,-0.055618572977930304,0.06089534433707595
1782661663300819500,0.3488193359375,0.0005155483067035675,-0.053208991085551674,0.07313295855163596
1782661663310891300,0.358891357421875,-0.003972410762310028,-0.036167876446247096,0.07216805904223583
1782661663320963300,0.36896337890625,0.04271510613262653,-0.05247584537225775,0.08707947730962187
1782661663331034400,0.379034423828125,0.027601123631000517,-0.06549259073315188,0.11019803956593387
1782661663341106400,0.3891064453125,-0.0012818565040826797,-0.04462357010245323,0.13897187850442713
1782661663351178500,0.399178466796875,0.010387538501620292,0.0005106712021864951,0.1779771612005308
1782661663361250300,0.409250244140625,0.03282967193424702,-0.025360276768496257,0.18007628890424965
1782661663371321300,0.4193212890625,-0.010869184538722038,-0.06175932248895988,0.1541952487978153
1782661663381393400,0.429393310546875,0.008127776876091957,-0.04619776061661541,0.13610470730396917
1782661663391465500,0.439465576171875,0.025925883895158767,-0.03784894313467666,0.13241436488605104
1782661663401537500,0.44953759765625,0.006162029761075973,-0.03530670217280276,0.11244900596365331
1782661663411609300,0.459609375,0.0007668927192687987,-0.03655260144751519,0.09060884787901304
1782661663421680400,0.469680419921875,0.017218845826387403,-0.041446008645417164,0.0737926371699199
1782661663431752400,0.47975244140625,0.01376958215534687,-0.04742070827400312,0.0484990598289296
1782661663441824500,0.489824462890625,0.017205986344814298,-0.06754650932196528,0.05426049116617068
1782661663451896300,0.499896240234375,0.029318448942899703,-0.08050035464763641,0.0496559839122463
1782661663461967400,0.50996728515625,0.024371640190482137,-0.11172036289554088,0.024032818423863497
1782661663472039400,0.520039306640625,0.019431845700740812,-0.1334999224998988,0.02156797181344591
1782661663482111500,0.530111572265625,0.02212473804652691,-0.13941361265624871,0.016434874108154324
1782661663492183600,0.54018359375,0.01823591391444206,-0.15186327131944707,0.014981296032667159
1782661663502254600,0.550254638671875,0.03858955063521862,-0.15021895644483155,0.00246987897856161
1782661663512326400,0.560326416015625,0.04771919803023338,-0.14539451369675807,0.006153289332194253
1782661663522398500,0.5703984375,0.04144084841310978,-0.15004005621396935,-0.011298241872061044
1782661663532470500,0.580470458984375,0.044295068800449366,-0.15042932039303705,-0.003312503815162927
1782661663542541000,0.590541015625,0.03652560384273529,-0.12947654873533174,0.00838743245927617
1782661663552613000,0.600613037109375,0.03893324950635433,-0.12387384249060414,0.01034111467716284
1782661663562685000,0.610684814453125,0.037896892195940016,-0.11798846511328592,-0.00010041903401724993
1782661663572757000,0.620757080078125,0.026533786660432813,-0.10711934450664556,0.0357797173788771
1782661663582827800,0.630827880859375,0.025345453658699987,-0.08573543315636925,0.055373557841451836
1782661663592900000,0.640900146484375,0.013680150306224822,-0.07440980095388368,0.08028524145907721
1782661663602972000,0.650971923828125,-0.10242343264222145,0.027530003756703808,0.16005893493313342
1782661663613044000,0.6610439453125,-0.046912557822465895,0.518588258921355,0.5110832170534879
1782661663623114800,0.67111474609375,0.13832009093165396,0.19629412272823973,0.289607160665188
1782661663633186800,0.681186767578125,-0.11622574802339077,-0.24592644263710825,0.03421415769574232
1782661663643259000,0.6912587890625,0.06692892541289329,-0.20253084342703223,0.05877859877827577
1782661663653330700,0.70133056640625,0.04312894763052463,-0.18731321788784117,0.13519181197644212
1782661663663401700,0.711401611328125,0.09340309084057807,-0.1832103856788948,0.05360774461217224
1782661663673473800,0.721473876953125,-0.006853519156575202,-0.15960947413258253,0.06841763873384334
1782661663683545900,0.7315458984375,0.04133388090729713,-0.1257089946290478,0.042233414429752154
1782661663693618000,0.741617919921875,0.027733225578069686,-0.06848131508720107,0.07097278484306298
1782661663703689000,0.75168896484375,0.015322656816244125,-0.023202084954455495,0.07261602200544438
1782661663713760800,0.7617607421875,-0.005032148948311805,0.02064030817504972,0.10409761293213814
1782661663723832800,0.771832763671875,0.019950316616892814,0.09108359838444739,0.1496075191487558
1782661663733905000,0.78190478515625,0.027720950618386267,0.03353368288460187,0.13145402282075955
1782661663743976700,0.791976806640625,0.005705518165230751,0.011335559941455721,0.15190446184636092
1782661663754047700,0.8020478515625,0.03756137663125991,0.08241499262992293,0.2607733717003837
1782661663764119800,0.812119873046875,-0.09204875362217425,0.09652737860726192,0.3205134450551122
1782661663774191900,0.82219189453125,-0.01695464193224907,0.11314568299092352,0.3081664430487901
1782661663784264000,0.832263916015625,-0.040023967352509494,0.05196739352662116,0.2884973179934546
1782661663794335000,0.8423349609375,-0.017756021443009376,0.00032067418857477603,0.22542674850914626
1782661663804406800,0.85240673828125,0.050150224569439884,-0.06529217279022559,0.16054370450908317
1782661663814478800,0.862478759765625,0.0751069711714983,-0.11600320044704712,0.08355328507800586
1782661663824551000,0.872551025390625,0.03721826228201389,-0.13357289640456438,0.014795619001146405
1782661663834622000,0.8826220703125,0.02971124765276909,-0.14679151187995448,-0.026002666325261815
1782661663844694000,0.892694091796875,0.044804187366366384,-0.15351188790984452,-0.041475563533464446
1782661663854765800,0.902765869140625,0.03820435070991516,-0.14129117003115824,-0.11069276428031734
1782661663864838000,0.912837890625,0.02936170356273651,-0.1530364250183571,-0.13498655346161684
1782661663874909000,0.922908935546875,0.07304419342279433,-0.16429270004536956,-0.1636781118109822
1782661663884981000,0.93298095703125,0.059119128444790836,-0.20051904694689437,-0.1879887790618464
1782661663895052800,0.943052734375,0.06435235292315483,-0.2451220309190452,-0.16345164611134677
1782661663905124900,0.953124755859375,0.05627426040768623,-0.29243314133873205,-0.11589469857127405
1782661663915196000,0.96319580078125,0.05508768097162246,-0.32462263393960894,-0.08859727059458382
1782661663925268000,0.97326806640625,0.07979425220489501,-0.3208049022823572,-0.0556758926557377
1782661663935340000,0.983340087890625,0.03898118030130863,-0.37466380864400417,0.1052679718857631
1782661663945411800,0.993411865234375,-0.05186813440322876,-0.3516671466011554,1.2517951278179884
1782661663955483000,1.00348291015625,0.2883066542595625,-0.23621957987602799,-0.31352731249481436
1782661663965555000,1.013554931640625,-0.19951836373805998,0.00986884838975966,-0.14893841511500067
1782661663975627000,1.023626953125,0.03693301559984684,0.29979550506658853,-0.10202219489756971
1782661663985698800,1.03369873046875,0.03290390621423721,0.2119272519994527,-0.3119362804437056
1782661663995769900,1.043769775390625,-0.12121464235186576,0.30300820176908744,-0.06586036459961905
1782661664005842000,1.053842041015625,0.10953531047403811,0.10685521367774345,-0.2694239668741822
1782661664015914000,1.0639140625,-0.1271867024987936,0.050729001704929395,0.10264179723379202
1782661664025986000,1.073986083984375,0.09205226075351237,-0.02210570455249399,0.09543749187816865
1782661664036057000,1.08405712890625,-0.08976093494594097,-0.09415116012836806,0.33209735373444854
1782661664046129000,1.09412890625,0.121387660831213,-0.1381060645884834,0.26434668187620114
1782661664056201000,1.104200927734375,-0.026147417691349983,-0.2165832976443693,0.24723838375220072
1782661664066273000,1.11427294921875,0.06289747793972492,-0.21134053815267978,0.22384506880827246
1782661664076344000,1.124343994140625,0.027447394374012946,-0.16369005797710268,0.22698972350955007
1782661664086416100,1.134416015625,0.01593231314718723,-0.08489584052707068,0.21992318265680222
1782661664096488000,1.144488037109375,-0.0015688567519187926,-0.05434526510648429,0.16160828326698393
1782661664106560000,1.15456005859375,0.023871873974800107,0.005713756270613521,0.07525173167074099
1782661664116631000,1.164631103515625,0.0021785130828619,0.028849781118379905,0.052801853323075916
1782661664126703000,1.174703125,-0.009793664261698722,0.06401573224677704,0.0667742189083714
1782661664136775000,1.18477490234375,0.0036690439015626907,0.08006316880676895,0.08935862862220965
1782661664146847000,1.194846923828125,-0.012796353209018707,0.06678950780904852,0.10479665544643066
1782661664156919000,1.2049189453125,0.003954290583729743,0.027091429676348342,0.08923844544179738
1782661664166989800,1.21498974609375,0.026241525715589523,-0.0260437289880123,0.07704645133409649
1782661664177062100,1.225062255859375,0.015161328774690628,-0.05788679190455004,0.08579527358482592
1782661664187134000,1.235134033203125,0.01964285810291767,-0.10674388965722173,0.09067004914749413
1782661664197206000,1.2452060546875,0.045671617850661275,-0.1348981627921108,0.07831051645316182
1782661664207276800,1.25527685546875,0.028462708896398542,-0.15191617968361823,0.03505881922580301
1782661664217348900,1.265348876953125,0.025171850657463073,-0.19350253751464186,0.02234212539056316
1782661664227421000,1.2754208984375,0.027422844454646107,-0.18409553448297084,0.02858241715277545
1782661664237493000,1.285492919921875,0.022491233271360395,-0.14810708799054845,0.03875758241219446
1782661664247563800,1.295563720703125,0.039704818400740624,-0.12173247394720092,0.050058600763231514
1782661664257635800,1.3056357421875,0.018163433200120926,-0.10352732049720362,0.05573136743633076
1782661664267708000,1.3157080078125,0.013981179079413413,-0.0695309520042967,0.06894703290280886
1782661664277779700,1.32577978515625,0.03134381729066372,-0.03786762043568306,0.03686194139132276
1782661664287850800,1.335850830078125,0.016233341920375823,-0.01485839117220603,0.026605911181727424
1782661664297922800,1.3459228515625,0.00890402194559574,0.000479974669823423,0.02671905269999988
1782661664307995000,1.355994873046875,0.0009749825119972228,-0.027508221183158457,0.03314977986724116
1782661664318067000,1.36606689453125,0.014292729246616363,-0.028161579658510162,0.05169749054405838
1782661664328138000,1.376137939453125,0.002021276694536209,-0.04073744025095366,0.06375308098890818
1782661664338209800,1.386209716796875,0.028210195440053938,-0.06410329179922118,0.09632511576712131
1782661664348281900,1.39628173828125,0.037193127840757366,-0.06272434986252337,0.11386791458455844
1782661664358354000,1.40635400390625,0.0202864167034626,-0.08866133054043165,0.12705087422467767
1782661664368425000,1.416425048828125,0.026575287714600562,-0.08071029847073369,0.132026187552372
1782661664378496800,1.426496826171875,-0.010981412741541862,-0.050774704010179264,0.1604111824369058
1782661664388568800,1.43656884765625,0.008316577446460723,0.02490477895280346,0.18138243959937245
1782661664398641000,1.446640869140625,0.04362637575864792,0.019435855155577882,0.16309556268267333
1782661664408712000,1.4567119140625,0.012948328900337218,-0.07155695967287756,0.09656502547021954
1782661664418784000,1.466783935546875,0.004863806644082069,-0.09006275830357335,0.06907761874622664
1782661664428855800,1.476855712890625,-0.0024731121152639386,-0.08557322833198122,0.0553444687442854
1782661664438928000,1.486927978515625,0.006653612670302391,-0.07729606044730171,0.05784295276282355
1782661664448999000,1.4969990234375,0.024013328272104263,-0.06573965169624425,0.06257119599427097
1782661664459071000,1.507071044921875,-0.008456278178095817,-0.0663777030046098,0.056234503786033015
1782661664469143000,1.51714306640625,0.02267535766661167,-0.04129054408906959,0.05304372665439732
1782661664479214800,1.52721484375,0.0246259072124958,-0.05399077997985296,0.0574785855629947
1782661664489286000,1.537285888671875,0.019086393263936043,-0.03620467392583378,0.05254702917863614
1782661664499358000,1.54735791015625,0.006212883165478706,-0.02955114345392212,0.06021205651434138
1782661664509430000,1.557429931640625,0.027307109120488164,-0.04323786963140592,0.07731058216299862
1782661664519501800,1.567501708984375,0.0026128128468990326,-0.0496964985857252,0.10093838171623647
1782661664529572900,1.57757275390625,0.00006605097353458404,-0.05532867752010934,0.09717893785117193
1782661664539645400,1.5876455078125,0.0023018472015857694,-0.033189755684603,0.0888219461959321
1782661664549717500,1.597717529296875,0.02175122855901718,-0.03671167359990068,0.08805647824876942
1782661664559789300,1.607789306640625,0.015457681372761725,-0.046090975773893296,0.10204195904396474
1782661664569860400,1.6178603515625,0.010366495713591575,-0.030196711348462846,0.10930643362160772
1782661664579932400,1.627932373046875,0.005575754305720329,-0.028483970880135892,0.08948505888031795
1782661664590004500,1.63800439453125,0.015896072790026663,-0.04016331189111806,0.1159468032178469
1782661664600075500,1.648075439453125,0.006912555867433548,-0.057488394570956,0.09933826217637397
1782661664610147600,1.658147705078125,0.015731822139024732,-0.047237131868023426,0.09192821424873546
1782661664620219400,1.668219482421875,0.014977204379439352,-0.05082414177563041,0.0969080119553022
1782661664630291500,1.67829150390625,0.01437690039873123,-0.05767034527543,0.07940576434396207
1782661664640362500,1.688362548828125,0.026046295404434202,-0.06485169901372864,0.057238794590905306
1782661664650434600,1.6984345703125,0.01692892296910286,-0.06285802271217107,0.057414425152447074
1782661664660506400,1.70850634765625,0.016937106275558472,-0.06942698930632323,0.06200422802758403
1782661664670578400,1.718578369140625,0.01259703124463558,-0.08662269171914085,0.034910158869577566
1782661664680649500,1.7286494140625,0.008852584019303321,-0.08835705949738622,0.028512539387494325
1782661664690721500,1.738721435546875,0.02201835506260395,-0.09516959818960168,0.011807196041196583
1782661664700793600,1.748793701171875,0.025455928295850753,-0.09333282948280684,0.0020949721184093505
1782661664710865400,1.758865478515625,0.023956045126914977,-0.07240013249875046,0.02341825758893974
1782661664720936400,1.7689365234375,0.01931435680091381,-0.07294553708760067,0.015024578051967545
1782661664731008500,1.779008544921875,0.025000001221895215,-0.056586970485514025,0.010516644774004817
1782661664741080600,1.78908056640625,0.011232172632217407,-0.04148432222865522,0.028809165980201213
1782661664751152600,1.799152587890625,0.01646481258869171,-0.02974615456936881,0.057533421022770925
1782661664761223700,1.8092236328125,0.004489128112792969,-0.025919983877334744,0.05907574596079066
1782661664771295500,1.81929541015625,0.010313888743519782,-0.022522660456085575,0.04789228044166229
1782661664781367600,1.829367431640625,0.006110007312893867,-0.030841247196542097,0.06272297988934442
1782661664791439600,1.839439697265625,0.014779051458835601,-0.03900380312507041,0.06734020049436949
1782661664801510700,1.8495107421875,0.017612229058146477,-0.03637856918801553,0.07288754155635833
1782661664811582500,1.85958251953125,0.01491115340590477,-0.03398255003010854,0.05994672010904178
1782661664821654500,1.869654541015625,0.015053776746988295,-0.03866354745319113,0.08455019629402086
1782661664831726600,1.8797265625,-0.011586392897367476,-0.02945285244490951,0.08157842307477257
1782661664841797400,1.88979736328125,0.017588263660669325,-0.0300515855230391,0.07526409796196967
1782661664851869400,1.899869384765625,0.006661211454868316,-0.04356123810056597,0.06819977646577172
1782661664861941500,1.90994140625,0.011744213807582855,-0.02894619983071461,0.06094776864405721
1782661664872013600,1.920013671875,0.01757598870098591,-0.04414122994560748,0.055710543844010675
1782661664882084400,1.93008447265625,0.017122399714589117,-0.04906467608874664,0.05644086741255596
1782661664892156400,1.940156494140625,0.016811434069275856,-0.05848444727044552,0.05148805817761458
1782661664902228500,1.950228515625,0.019051321950554846,-0.05525817870032042,0.058354742776439525
1782661664912299500,1.960299560546875,0.028481413596868514,-0.036190654533635826,0.04841166923984419
1782661664922371300,1.970371337890625,-0.01461480080783367,-0.04739210323402658,0.03741349715974647
1782661664932443400,1.980443359375,0.025472879430651664,-0.04775337429447099,0.028083925012149846
1782661664942515500,1.990515380859375,0.013494856867194175,-0.02822113695917651,0.02579348055399023
1782661664952586500,2.00058642578125,0.01482347512245178,-0.04145836580349132,0.018554985234397463
1782661664962658300,2.010658203125,0.02902735704183578,-0.04468308173734695,0.0024974839381175116
1782661664972730400,2.02073046875,0.021686346629261968,-0.04751536428751424,-0.0009357921459246427
1782661664982802400,2.030802490234375,0.015095277801156043,-0.05799978729235008,-0.016746940298588014
1782661664992873500,2.04087353515625,0.019284546184539793,-0.06334845484392718,-0.0011141215546289459
1782661665002945500,2.050945556640625,0.018234160348773003,-0.05876200383650139,-0.006084658242505975
1782661665013017300,2.061017333984375,0.017478958067297934,-0.06368974256226792,0.016104505076049828
1782661665023089400,2.07108935546875,0.012839023306965828,-0.07474871405204758,0.025395494212349875
1782661665033160400,2.081160400390625,0.02151157458424568,-0.07064741621306166,0.004246090304269455
1782661665043232500,2.091232421875,0.017463175976276397,-0.07494051029710098,0.007345430859364569
1782661665053304300,2.10130419921875,0.01790273643732071,-0.062277062752749766,0.004293879535328597
1782661665063376400,2.11137646484375,0.01683423042297363,-0.05742927566170692,0.015277164573548361
1782661665073447400,2.121447509765625,0.031018823119997978,-0.049834016493428494,0.0076448795968201005
1782661665083519500,2.13151953125,0.018572598522901534,-0.052302342835720626,0.008396118089230731
1782661665093591600,2.141591552734375,0.005529577076435089,-0.04111167125767096,0.04737635767562315
1782661665103662600,2.15166259765625,0.007307108142971992,-0.0196285555829294,0.032404811285412866
1782661665113734400,2.161734375,0.021055647510290144,-0.014830745113454759,0.02692537979390472
1782661665123806500,2.171806396484375,0.01790390548110008,-0.004837192631792277,0.04382401265602093
1782661665133878500,2.18187841796875,0.005779752445220947,0.0006491480911150574,0.048456782456627115
1782661665143949600,2.191949462890625,0.012066285368800162,0.010693279982544482,0.06135471004371065
1782661665154021400,2.202021484375,0.008176292192935943,0.005585124922264367,0.07575340671571902
1782661665164093400,2.212093505859375,0.008325345274806021,0.020459398650191724,0.0885417410150636
1782661665174165500,2.22216552734375,0.012211246797442435,0.022995876591559498,0.0898482479032129
1782661665184236500,2.232236572265625,0.008018471282720565,0.004461801714450121,0.08248055041311309
1782661665194308600,2.24230859375,-0.002758358797430992,0.00779801519876346,0.06352461969500874
1782661665204380400,2.25238037109375,0.01983399676084518,0.008385532763134688,0.025504461879003792
1782661665214452500,2.262452392578125,0.013544541227817534,-0.012067034287471324,-0.007669644145318307
1782661665224523500,2.2725234375,0.015339023429155349,-0.011684282047580928,-0.010850347407511434
1782661665234595600,2.282595703125,0.022967034089565276,-0.026508067697286603,-0.017739686796138993
1782661665244667600,2.292667724609375,0.012044073536992073,-0.016375508603733033,-0.004431822134717368
1782661665254738700,2.30273876953125,0.024468086302280423,-0.033403234038501976,-0.01350914112087339
1782661665264810500,2.312810546875,0.012199556359648703,-0.044520785581413654,0.009093507502553983
1782661665274882600,2.322882568359375,0.018188567641377447,-0.05388343801470473,0.033171877534617665
1782661665284954600,2.33295458984375,0.030911855614185333,-0.0564735641057603,0.016339756870339624
1782661665295025400,2.343025390625,0.029567455267906186,-0.05810136623699218,0.02738213341834489
1782661665305097500,2.353097412109375,0.012062778237462043,-0.05140875499686226,0.020046146240760572
1782661665315169500,2.36316943359375,0.007426935130357742,-0.06605749460691586,0.024169281452219
1782661665325241600,2.37324169921875,0.026285364857316015,-0.04775863499147817,0.03468758846034761
1782661665335312400,2.3833125,0.021497546058893202,-0.040567463112063704,0.03768764249258674
1782661665345384400,2.393384521484375,0.0083306059718132,-0.03561902865814045,0.04824898492484353
1782661665355456300,2.403456298828125,0.02284428449273109,-0.03232340291254222,0.023745872974954545
1782661665365527300,2.41352734375,0.015362404304742812,-0.01713469294058159,0.028359376386087386
1782661665375599400,2.423599365234375,0.012664251261949538,0.005059000422619283,0.022697227005125022
1782661665385671400,2.43367138671875,0.028375030612945554,0.004473181624989956,0.016267171124741433
1782661665395743500,2.443743408203125,0.003833294552564621,0.016245507282204925,0.006979383159102872
1782661665405814500,2.453814453125,0.016698621344566345,0.013743899724818766,0.02586493378842715
1782661665415886300,2.46388623046875,0.02238601933121681,0.0014443353231064974,0.030063696085941043
1782661665425958400,2.47395849609375,0.0036830724269151685,-0.018476919596083462,0.03660061444086023
1782661665436030500,2.484030517578125,0.010716624325513839,-0.022097338582947847,0.040736257507442496
1782661665446101500,2.4941015625,0.01834872663915157,-0.020906192569620907,0.04813576120818033
1782661665456173300,2.50417333984375,0.01117021331191063,-0.04590321638314053,0.041829742699419144
1782661665466245400,2.514245361328125,0.018508885636925695,-0.044852282558102155,0.049134763916581864
1782661665476316400,2.52431640625,0.020163667106628418,-0.03433224025061354,0.05029604451460763
1782661665486388500,2.534388427734375,0.006100070440769195,-0.10581709366850554,0.24417885005110873
1782661665496460500,2.54446044921875,-0.024137831434607505,-0.05538246266711503,0.5449716773256659
1782661665506532400,2.554532470703125,0.10948913324475287,-0.009973678737413137,-0.09209739680318162
1782661665516603400,2.564603271484375,-0.06409983946681022,0.09334854764174669,0.006486211080988869
1782661665526675500,2.574675537109375,0.002782324194908142,0.17054907529270275,-0.06744901746397372
1782661665536747500,2.58474755859375,-0.018327099329233168,0.13346046727234498,-0.11012600637618451
1782661665546819600,2.594819580078125,-0.00756254420876503,0.08241895641898736,-0.1376092209822498
1782661665556890600,2.604890625,0.014426000237464903,0.0312920688371174,-0.13300642162822185
1782661665566962700,2.614962646484375,-0.003088613665103912,-0.022232600601483136,-0.07914754266603849
1782661665577034800,2.62503466796875,0.020700842723250387,-0.048127376972325144,-0.03186343441770877
1782661665587105800,2.635105712890625,0.022646716094017028,-0.10021717303590849,0.0006357908526202664
1782661665597177900,2.645177734375,0.0382113649725914,-0.13147314764633775,0.014989200777909717
1782661665607249700,2.655249755859375,0.010980828219652175,-0.14333019244493916,0.011808561447798275
1782661665617321700,2.66532177734375,0.04390460817813873,-0.138424081029091,0.011172067342279478
1782661665627392800,2.675392822265625,0.04540799847841263,-0.11872147382926194,0.08656341754626483
1782661665637464800,2.68546484375,0.008752046254277229,-0.08488945645205676,0.09339923664936796
1782661665647536600,2.69553662109375,0.010554127240180969,-0.05360734275337308,0.10719053744617849
1782661665657608700,2.705608642578125,-0.001110007068514824,-0.03940218219235539,0.11185000802404246
1782661665667679700,2.7156796875,0.006077274087071418,-0.014050974646303801,0.11650664732400327
1782661665677751800,2.725751708984375,-0.007238719081878662,0.02690356982089579,0.12056339363520964
1782661665687824000,2.735823974609375,0.00577916792333126,0.063033013952896,0.09350028587104751
1782661665697894700,2.745894775390625,0.008318915534019469,0.07253107453519478,0.057771668491745365
1782661665707966500,2.755966552734375,-0.013833879563212394,0.09499905479513109,0.01756886027387809
1782661665718038500,2.76603857421875,-0.009200959065556525,0.08704919176921248,0.0036456264933571216
1782661665728110600,2.776110595703125,0.00874678555727005,0.06788458216991275,-0.0013630091486265881
1782661665738181600,2.786181640625,0.013230068451166152,0.06306024901969358,0.002755920245172456
1782661665748253700,2.796253662109375,0.012028291445970535,0.021961492042522877,-0.006554120651469566
1782661665758325500,2.806325439453125,0.014264672195911406,0.0007940364545211196,-0.028123014913522638
1782661665768396500,2.816396484375,0.009767360776662825,-0.03893156900592148,-0.0011362329217372462
1782661665778468600,2.826468505859375,0.02532616443634033,-0.06943153761727736,-0.010907799516059458
1782661665788540700,2.836540771484375,0.017543839997053147,-0.10625106463897972,-0.014643807706609368
1782661665798612500,2.846612548828125,0.022783494216203688,-0.1135881477951072,0.005779090291517786
1782661665808683500,2.85668359375,0.02982172228991985,-0.09781718095578253,0.019019232612126506
1782661665818755600,2.866755615234375,0.032520459854602814,-0.09090672571389004,0.03379836170277558
1782661665828827600,2.87682763671875,0.0150187054336071,-0.07160906431945041,0.04452047505415976
1782661665838899700,2.886899658203125,0.009335983622074127,-0.05574735045675188,0.07462360810134559
1782661665848970800,2.896970703125,0.025352467921376225,-0.023160912693850694,0.060428946101455945
1782661665859042600,2.90704248046875,0.007998597538471222,0.004210749562829732,0.05204140404432546
1782661665869114600,2.917114501953125,0.00440846409201622,0.009116988842841237,0.02168108593225479
1782661665879185700,2.927185546875,0.0048562078595161436,0.003972410762310028,0.011025927736703306
1782661665889257700,2.9372578125,0.0036591070294380184,0.013451054258085786,0.002585349451238289
1782661665899329500,2.94732958984375,0.020117489877343176,0.024858766120299695,0.004095795113383792
1782661665909401600,2.957401611328125,0.006050386080145836,0.029472817520704117,0.0027002673680661246
1782661665919472600,2.96747265625,0.0015630115330219267,-0.011838650625385343,-0.012530327250552363
1782661665929544700,2.977544677734375,0.010395137286186218,-0.036451588758453723,0.005986262202216312
1782661665939616800,2.98761669921875,0.012498247045278549,-0.04577175375688821,-0.02405555997863412
1782661665949687800,2.997687744140625,0.023576690420508382,-0.05424333910197019,0.015761756052984854
1782661665959759600,3.007759521484375,0.021639000356197355,-0.04139954828834161,0.015203674645652062
1782661665969831700,3.017831787109375,0.009376900154352188,-0.04567808412406593,0.026059730274742468
1782661665979903700,3.02790380859375,0.005196399599313736,-0.03966945482641458,0.043596642774087375
1782661665989974800,3.037974853515625,0.009544657936692237,-0.024341975704580545,0.03917457484840415
1782661666000046800,3.048046875,0.010000000488758086,-0.013433920460194348,0.0777675686828792
1782661666010118700,3.05811865234375,0.0032651392757892606,-0.007223028322402387,0.03420582369223703
1782661666020189700,3.068189697265625,0.00670680416226387,-0.007085957939270884,0.06893178510132711
1782661666030261800,3.07826171875,0.023768413600325583,-0.022463450215291232,0.048748828772339034
1782661666040333800,3.088333740234375,0.014639350727200507,-0.005962050209566951,0.06174146260528359
1782661666050405600,3.098405517578125,0.014637597161531447,0.01543758843280375,0.07341277100685983
1782661666060476700,3.1084765625,0.014184592697024344,0.014314466154389083,0.09681806864952668
1782661666070548700,3.118548828125,0.004901800566911697,0.024174290987476706,0.07952716223392635
1782661666080620800,3.128620849609375,0.006091887134313583,0.032425675976928324,0.05903982983061578
1782661666090691600,3.138691650390625,0.003994038072228432,0.020876491551101207,0.030148008801951072
1782661666100763600,3.148763671875,-0.0009498480707406997,0.010405676946509628,0.03377946977263782
1782661666110835500,3.15883544921875,0.0020317980885505675,0.007559785996098071,0.024321636169450357
1782661666120907800,3.16890771484375,0.011155015742778777,-0.007846585314534605,0.03825293452541809
1782661666130978600,3.178978515625,0.022526304584741592,-0.0032181400625966488,0.027023931097821332
1782661666141050600,3.189050537109375,0.01803717647194862,-0.01718898041108623,0.025391155963949856
1782661666151122700,3.199122802734375,0.0029226094484329224,-0.027547311084531245,0.024801419043028725
1782661666161193700,3.20919384765625,0.009959083956480026,-0.025170371086429805,0.019463839141046626
1782661666171265500,3.219265625,0.037943069425225254,-0.03916163316844031,0.04265676354151219
1782661666181337600,3.229337646484375,0.03135726129412651,-0.03454191921222955,0.03491422768991906
1782661666191409700,3.23940966796875,0.02716448577940464,-0.04024469743110239,0.03267400188192259
1782661666201480700,3.249480712890625,0.021027005937695502,-0.017634349558409302,0.030370784707157872
1782661666211552500,3.259552490234375,0.013092705807089804,-0.020026340995170176,0.015619790299027226
1782661666221624600,3.26962451171875,0.006355506506562233,-0.021323066274821757,0.014345998370391315
1782661666231695600,3.279695556640625,0.023410686203837395,0.00040830680625513193,0.026215614956198258
1782661666241767700,3.289767578125,0.007841945672035217,-0.002614840407203883,0.014125492054084315
1782661666251839700,3.29983984375,0.009175824624300003,0.009196008895803243,0.034837956716469484
1782661666261911600,3.30991162109375,0.0072153382062911985,0.002915175060648471,0.033299791930336504
1782661666271982600,3.319982666015625,0.008686579802632332,-0.001992470725160092,0.024903678407683035
1782661666282054700,3.3300546875,0.00658171647787094,-0.006969857278931886,0.038531719500757754
1782661666292126700,3.340126708984375,0.00806581755578518,-0.011671331234462559,0.04158635783102363
1782661666302197800,3.35019775390625,0.023167525097727775,-0.00683108812905848,0.02989393357618246
1782661666312269600,3.36026953125,0.009254150557518005,0.0031723281594924625,0.02358427550534252
1782661666322341600,3.370341552734375,0.004911737439036369,-0.023303207241371273,0.0020158561673248184
1782661666332413700,3.38041357421875,0.0025239655196666716,-0.022099786268360913,0.011499979555816388
1782661666342484700,3.390484619140625,0.02557049458622932,-0.0072200691803358495,0.010943523849989287
1782661666352556800,3.400556884765625,0.01584580390751362,-0.02157022770261392,0.003420430302200839
1782661666362628600,3.410628662109375,0.007914426386356354,-0.02603190155290067,-0.008986635894863865
1782661666372699600,3.42069970703125,0.017490648505091667,-0.03608436288125813,-0.02951697175626177
1782661666382771700,3.430771728515625,0.030358313384652134,-0.030734818546846506,0.006009807474585249
1782661666392843800,3.44084375,0.018984686455130576,-0.014342797199729829,-0.0015298536155140027
1782661666402914800,3.450914794921875,0.010148469048738479,-0.024930479649640618,-0.004505339462077245
1782661666412987000,3.46098681640625,0.0080517890304327,-0.03810856218524277,0.00332395222436171
1782661666423058700,3.47105859375,0.01673018552660942,-0.03898644099831581,-0.004643807217851281
1782661666433130800,3.481130859375,0.01089431897997856,-0.032813414919190105,-0.02927426730787847
1782661666443201800,3.491201904296875,0.02136778219938278,-0.03677550521688536,-0.015564616912533528
1782661666453273900,3.50127392578125,0.02240004785656929,-0.03317021073391661,-0.004752701819268987
1782661666463345700,3.511345703125,0.018500117808580397,-0.03758409991972148,-0.006329463316430337
1782661666473416400,3.52141650390625,0.021045126116275785,-0.047017077642865474,-0.01950245868496131
1782661666483488500,3.531488525390625,0.0072749594390392296,-0.04382182526551187,-0.006543686022423207
1782661666493560600,3.541560546875,0.007266191610693931,-0.02611035535028204,0.009622732708160765
1782661666503633000,3.5516328125,0.00875379981994629,-0.006051920450106263,0.02826021316081751
1782661666513703700,3.56170361328125,0.0060632455617189406,-0.00859718448612839,0.040764547453587874
1782661666523775500,3.571775390625,0.010705518409609795,-0.013257011257018893,0.03501600299738347
1782661666533847600,3.58184765625,0.016692191603779792,0.008251713783014565,0.03362290923774708
1782661666543919000,3.591919189453125,0.01175356615781784,0.01697099027885124,0.05493618933749385
1782661666553991200,3.6019912109375,0.0018774843096733091,0.0259429811604321,0.04452110067524481
1782661666564063000,3.61206298828125,0.014150690427422523,0.026264175938814877,0.0335243168346351
1782661666574135000,3.622135009765625,0.011160860961675644,0.020566475753858685,0.027149384108395316
1782661666584206000,3.6322060546875,0.003232406049966812,0.024042645698133854,0.050730855735298244
1782661666594278100,3.642278076171875,0.002633271113038063,0.03574718508245423,0.03001235405777115
1782661666604350200,3.65235009765625,0.003379705566167831,0.008165843864157795,0.04613550903536379
1782661666614421200,3.662421142578125,0.028965982243418693,0.015309231079090387,0.06551921844517346
1782661666624493000,3.6724931640625,-0.010389876589179038,0.02480606781868264,0.03758181206451263
1782661666634565000,3.682565185546875,0.022826748836040495,0.011930493627302348,0.03769360187591519
1782661666644636200,3.69263623046875,0.013104980766773223,0.020598131267447025,0.039819932680390774
1782661666654708200,3.702708251953125,0.015206336960196494,-0.00750955364620313,0.025005992571264506
1782661666664780000,3.712780029296875,0.0170142631649971,-0.00387008289899677,0.014777288760012015
1782661666674852000,3.72285205078125,-0.0010801964521408081,-0.01606481695305556,-0.004534702553879469
1782661666684923100,3.732923095703125,0.021813772401213644,-0.023602975639235226,0.00834142875992693
1782661666694995200,3.7429951171875,0.018524667727947235,-0.015581198154576122,0.013135316539532505
1782661666705067300,3.7530673828125,-0.004216156390309334,-0.03445413133092225,0.016600143105885944
1782661666715138300,3.76313818359375,0.004760346269607543,-0.029997992172278463,0.01037962918980047
1782661666725210000,3.773210205078125,0.021072598645091055,-0.026299539513140915,-0.013923663038783706
1782661666735282200,3.7832822265625,0.01598375107347965,-0.020526856129523364,-0.006327116095717064
1782661666745354200,3.793354248046875,0.00999590883553028,-0.007839004796277731,-0.014684893202246165
1782661666755425000,3.803425048828125,0.0074503160059452055,-0.008650211581308393,-0.006565984619199298
1782661666765497000,3.8134970703125,0.013137129470705985,-0.011519593005161732,-0.008827737272414378
1782661666775569200,3.823569091796875,0.015082418319582938,-0.003111209089402109,0.006444285335135646
1782661666785640000,3.833639892578125,0.004749824875593185,-0.003561674536950886,0.0012673850207356736
1782661666795712000,3.8437119140625,0.01880465371310711,-0.014169961383473127,0.00530970551436767
1782661666805784000,3.8537841796875,0.02328618304133415,-0.01578156129857525,0.014088516477984375
1782661666815855000,3.863855224609375,-0.0011111761122941971,-0.021768051829654723,0.029551737108966334
1782661666825927000,3.873927001953125,0.014447627547383308,-0.010472148045152426,0.021574785146722567
1782661666835999000,3.8839990234375,0.0033738603472709652,-0.006456610527168959,0.008092965857614763
1782661666846071000,3.894071044921875,0.013543956705927849,-0.00278480841293931,0.03752859317308757
1782661666856142000,3.90414208984375,0.0250660521954298,0.014007793091703205,0.04052583419373259
1782661666866214100,3.914214111328125,0.009055997636914252,0.00528068034928292,0.01313764092735946
1782661666876286000,3.924285888671875,0.01937748516499996,0.00023179946187883613,0.008440322557138278
1782661666886357000,3.93435693359375,0.007853051587939261,0.005309559383895248,-0.02021975380857475
1782661666896429000,3.944428955078125,0.006499883413314819,0.0022185345659963785,-0.008541052118409425
1782661666906501000,3.954501220703125,0.017424013009667394,0.006898088950663805,0.01111925030965358
1782661666916572200,3.964572265625,0.0005167173504829406,0.003957962111849338,0.02141890503184404
1782661666926644000,3.97464404296875,0.011590484550595283,-0.00630067104678601,0.03127451034754049
1782661666936716000,3.984716064453125,0.011744213807582855,0.004236559857521206,0.009940959211322478
1782661666946788000,3.9947880859375,-0.005462357059121132,-0.005698704831954091,0.025315382747421972
1782661666956859100,4.004859130859375,0.0120429044932127,-0.008419763826299458,0.04722895769472234
1782661666966931200,4.01493115234375,0.008300795355439186,-0.013798552521504462,0.04528580600400455
1782661666977003000,4.0250029296875,0.012638532298803328,-0.02226737965391949,0.04067290538107045
1782661666987074000,4.035073974609375,-0.006966331881284714,-0.005254048070684075,0.038852174493623895
1782661666997146000,4.04514599609375,0.01817278555035591,0.01784178176401183,0.03198943085097707
1782661667007218200,4.05521826171875,0.012933131331205367,0.012422332264855503,0.014387645555031485
1782661667017290200,4.065290283203125,-0.003677811729907989,0.01483487329930067,0.0172593239672482
1782661667027361300,4.075361328125,0.005596797093749046,0.013755736293084918,0.020108507419866507
1782661667037433000,4.08543310546875,0.003799392282962799,0.012397837144415825,0.006583027085545473
1782661667047505200,4.095505126953125,-0.00578092148900032,-0.00006015095571056008,0.0018401434073923154
1782661667057576200,4.105576171875,0.006482932278513908,-0.025942962894123046,0.001717918966943398
1782661667067648300,4.115648193359375,0.01680851145982742,-0.0054014571847394105,-0.006526684655272401
1782661667077720000,4.125719970703125,0.0003477905243635177,0.0012330306599847973,-0.037016118172882126
1782661667087791000,4.135791015625,0.01860240913927555,-0.020109379636123775,-0.030203995039197615
1782661667097863200,4.14586328125,0.008127776876091957,-0.017277298015356064,-0.023911836092430167
1782661667107935200,4.155935302734375,-0.0015969138026237486,-0.021090243899635968,-0.022591707104304803
1782661667118006000,4.166006103515625,0.014867314264178276,-0.011270422283373773,-0.010540801967727019
1782661667128078000,4.176078125,0.016216975307464597,-0.020249463960248976,0.02164544836329296
1782661667138150000,4.18614990234375,0.0033469723403453827,-0.014485858932230622,0.018654532052157446
1782661667148222000,4.196221923828125,0.01037935519516468,-0.018790186796337364,0.027472597313928416
1782661667158293000,4.20629296875,0.021754151168465612,-0.0018625424688681958,0.03187962293410673
1782661667168365000,4.216364990234375,0.018311901760101317,-0.009818506442010402,0.03784637215167749
1782661667178437000,4.22643701171875,-0.0008428805649280548,-0.0038967334439046677,0.061192432154086415
1782661667188508200,4.236508056640625,0.0010994856745004653,0.002481167557556182,0.045020483298436734
1782661667198580000,4.246580078125,0.005288754057884216,0.016693305848632007,0.025547839796426705
1782661667208652000,4.256652099609375,0.012168576699495314,0.014467483025323599,0.0336696344563039
1782661667218723000,4.26672314453125,0.00992225907742977,0.016666089048143474,0.018545194492745214
1782661667228795100,4.276795166015625,0.010369418323040008,0.009888009747955947,0.000537070585344918
1782661667238867000,4.286866943359375,0.0031850597769021985,0.01072999526374042,0.013442907484248279
1782661667248939000,4.29693896484375,0.011713818669319151,0.013092559676617384,0.010557743969373404
1782661667259010000,4.307010009765625,0.024283377385139464,0.01795654898378998,0.016641520862467587
1782661667269082000,4.31708203125,0.017998598027229307,0.006069565704651177,0.013462607698561623
1782661667279154200,4.327154296875,0.012170330265164375,-0.006953874258510768,0.004139739286387339
1782661667289225200,4.33722509765625,0.0142693483710289,-0.01398486887384206,0.00800551133644767
1782661667299297000,4.347297119140625,0.019212065470218656,-0.008822243679966778,-0.0011829809731803834
1782661667309369000,4.357369140625,0.003503624206781387,0.0011847345388494432,-0.007302943424507975
1782661667319440100,4.367440185546875,0.0109884270042181,-0.01990379232773557,-0.004206434147316031
1782661667329512200,4.37751220703125,0.011741291198134421,-0.014137885744776577,0.006587881357176229
1782661667339584000,4.387583984375,0.012049918755888938,-0.006622633010149002,-0.0014593045633751898
1782661667349655000,4.397655029296875,0.000831190127134323,-0.016352219059690833,0.011689538178010843
1782661667359727000,4.40772705078125,0.021330957320332525,-0.017065134835708887,0.009033712739869951
1782661667369799200,4.417799072265625,-0.004857961425185203,-0.011371672434452921,0.01355883918122854
1782661667379871200,4.427871337890625,-0.007253916651010513,0.0030600268914364277,0.027894654084322974
1782661667389942300,4.4379423828125,0.0042693478822708126,0.0080517890304327,0.021189224461815318
1782661667400014000,4.44801416015625,0.00007189619243144989,0.01678900304175913,0.013032175825466402
1782661667410086100,4.458086181640625,0.003509469425678253,-0.0048373387622646985,0.026164775251527314
1782661667420157200,4.4681572265625,0.005752279916405678,-0.0002870915793813765,0.026223300505732183
1782661667430229200,4.478229248046875,0.0014086977541446686,0.004151073531154543,0.03172105767179746
1782661667440301000,4.488301025390625,0.017865911558270452,0.010766801876481621,0.012013358738319947
1782661667450372000,4.4983720703125,-0.007878186029195785,-0.010763842734415083,0.012717397088138386
1782661667460444000,4.50844384765625,0.010828852528333663,-0.006016155016981065,0.03155472922814079
1782661667470516200,4.51851611328125,0.013372107270359992,0.0013951806854456661,0.020229740913049316
1782661667480587000,4.5285869140625,0.021156769797205925,-0.0011580839939415455,0.019614084099582395
1782661667490659000,4.5386591796875,0.016515081471204757,0.00758097491459921,0.010636366730113513
1782661667500731000,4.54873095703125,0.018909283131361008,-0.01312953068614006,0.0009985506172524765
1782661667510803000,4.558802978515625,0.019660978281497953,-0.000041537586785852905,0.0012856787292519583
1782661667520874000,4.5688740234375,-0.008921557602286339,0.0021737273098900913,0.014608567429869435
1782661667530946000,4.578946044921875,-0.014765022933483123,0.01136363525846973,-0.0030308144966838878
1782661667541018000,4.58901806640625,0.017853052076697348,0.004241236032638699,-0.00675539711092133
1782661667551089000,4.5990888671875,0.0027361469656229016,-0.0006639986003749072,-0.003242731081158854
1782661667561160700,4.60916064453125,0.008719897550344467,-0.012820574334822595,0.0023325209010625256
1782661667571233000,4.61923291015625,-0.005191723424196243,-0.010188965455908328,-0.0123841739452444
1782661667581303800,4.6293037109375,0.011263152292370796,-0.03700809013005346,-0.012117983589996583
1782661667591376000,4.6393759765625,0.013808160600066184,-0.02496686613727361,-0.011302415723679586
1782661667601448000,4.649447998046875,-0.008183890977501869,-0.023814462965447453,-0.011525454207079018
1782661667611519000,4.65951904296875,0.01217091478705406,-0.015047383538819849,0.007018078051542398
1782661667621590800,4.6695908203125,0.012918518283963202,-0.015034743252955377,-0.015190107344603165
1782661667631662800,4.679662841796875,0.004240121787786483,-0.01836518458360806,-0.005542139730486087
1782661667641734000,4.68973388671875,0.004391512957215309,-0.008976210398972034,0.011224902641214429
1782661667651806000,4.699805908203125,0.004839841246604919,0.0016169702099636195,0.013213099050056189
1782661667661877800,4.709877685546875,0.0033341128587722774,-0.0015328173241578042,0.011882494333689101
1782661667671949800,4.71994970703125,0.019638766449689864,-0.004272873279917985,0.03558638676386326
1782661667682020900,4.730020751953125,0.005267711269855499,0.005110493147838861,0.008914479407528415
1782661667692093000,4.740093017578125,-0.0005704933643341064,0.0016530644366517663,0.017971020467136986
1782661667702165000,4.7501650390625,0.002118307328224182,0.027249734643753618,0.02434688477513846
1782661667712236000,4.760236083984375,0.007054010164737701,0.014784220824297516,0.020859170523541977
1782661667722307800,4.770307861328125,0.01049567505121231,0.010885258890688419,0.006015077304746955
1782661667732380000,4.7803798828125,-0.00327039997279644,0.003377678005862981,-0.0049150299412431195
1782661667742451000,4.790450927734375,0.003312485548853874,-0.0014965221680700777,-0.008811311293998732
1782661667752523000,4.80052294921875,0.0016658873856067657,0.005479362992849201,-0.004059262495278381
1782661667762594800,4.8105947265625,0.012891045755147934,0.002994633505027741,0.005442926272866316
1782661667772665900,4.820665771484375,0.010200491496920585,-0.022132391630019992,0.000007950411015190183
1782661667782738000,4.830738037109375,0.019488544324040413,-0.018995627974253148,-0.006272942789644002
1782661667792810000,4.84081005859375,0.004233692046999931,-0.011873064351640641,0.01852992385837715
1782661667802881000,4.850881103515625,0.015908347749710082,-0.012931158569827675,0.024545850546495055
1782661667812953000,4.860953125,0.015160159730911255,0.007545337345637381,0.0044301553340163075
1782661667823025000,4.87102490234375,0.031169629767537115,0.00325953151891008,0.020571033197967336
1782661667833096000,4.881095947265625,0.019647534278035162,-0.0012953370401635766,0.042827553531154985
1782661667843168000,4.89116796875,0.01874970865547657,0.026222693150956183,0.018965831057610922
1782661667853240000,4.901239990234375,0.004229015871882439,0.014826763058081269,0.032063925425871276
1782661667863312100,4.91131201171875,0.02277589543163776,0.004463445682264864,0.008029627430974505
1782661667873383000,4.9213828125,-0.006857026287913322,0.016683990031015127,-0.00400543624907732
1782661667883455000,4.931455078125,0.006603928309679031,0.013883636989071965,-0.0016607773856492712
1782661667893527000,4.941527099609375,0.014385083705186843,0.008189352603908628,-0.010967000623699277
1782661667903597800,4.951597900390625,0.0006172551155090331,0.006896390183921903,-0.00954426064447034
1782661667913670000,4.961669921875,0.011240355938673018,0.0014843568062409757,-0.016422768111829644
1782661667923741700,4.97174169921875,0.0030108722537755964,-0.010955602446850388,-0.006589013868337497
1782661667933812700,4.981812744140625,-0.004019757035374641,-0.008197554176673293,0.014065185834746807
1782661667943884800,4.991884765625,0.0045078328132629394,-0.013510730289760976,0.006554029319924302
1782661667953956900,5.001956787109375,0.00959375777542591,-0.014066701938398181,0.003937065454293042
1782661667964028000,5.01202783203125,0.006901449951529502,-0.014607256822194903,0.011026306762616149
1782661667974100000,5.022099853515625,-0.002670680513978004,-0.00886681347405538,0.012118549845577217
1782661667984171800,5.032171875,0.0024175825357437134,-0.002395206307154149,0.007839982043812052
1782661667994242800,5.042242919921875,0.0045101709008216855,0.010086820255685598,0.019670937986508943
1782661668004315000,5.05231494140625,0.020365327158570288,-0.01387726204721257,0.018070923477923495
1782661668014387000,5.062386962890625,0.020813070926070213,-0.02038235135860741,0.012424149762606248
1782661668024458000,5.0724580078125,-0.00013853168785572052,-0.014156389515846968,0.007888693723478354
1782661668034530000,5.082530029296875,-0.00642272652387619,-0.021977657726034522,0.011580250850948505
1782661668044601900,5.092601806640625,0.00120820674598217,-0.032579386967606844,-0.02394155537725892
1782661668054673000,5.1026728515625,-0.0010334347009658812,-0.024170838655065745,-0.00591889148785267
1782661668064745000,5.112744873046875,-0.005814239236712456,-0.024228304463345555,-0.018211884584883226
1782661668074817000,5.122817138671875,-0.019418986219167707,-0.04384511480955407,-0.02698435257268138
1782661668084888800,5.132888916015625,0.0211404031842947,-0.03940850233528763,-0.029106527791847473
1782661668094959900,5.1429599609375,-0.006381225469708442,-0.0356581733584404,-0.03316757125225849
1782661668105032000,5.153031982421875,0.018170447462797164,-0.013360088039003312,-0.03558285679963883
1782661668115104000,5.16310400390625,0.00037117139995098113,0.0382775620765984,0.0016437486190348863
1782661668125175000,5.173175048828125,0.005019873988628387,0.054364791790861636,-0.0012966796138789503
1782661668135247000,5.1832470703125,0.004577390918135643,0.05924827124979347,0.03088444245087448
1782661668145319000,5.19331884765625,-0.0057446811318397515,0.07489891791138797,0.0555522388766054
1782661668155390000,5.203389892578125,0.005631868407130241,0.06790133237531408,0.05339528460500296
1782661668165462000,5.2134619140625,0.005633037450909614,0.040379411460366096,0.07317345952538307
1782661668175534000,5.2235341796875,0.008923311167955398,0.047562546163797376,0.06727989427503198
1782661668185604900,5.23360498046875,-0.0005085340440273285,0.0367842547789216,0.07880651980917901
1782661668195677000,5.243677001953125,-0.03328267639875412,0.04221318449247628,0.08573474816977977
1782661668205749000,5.2537490234375,0.009956161347031593,0.054572534523718054,0.06569923748746515
1782661668215819800,5.26381982421875,0.020721885511279105,0.02031891246726736,0.07119281166875735
1782661668225891800,5.273891845703125,-0.0012830255478620527,0.03963789064437151,0.04694628199555445
1782661668235964000,5.2839638671875,0.004694879817962646,0.026556144622713326,0.04007000758447684
1782661668246035000,5.294034912109375,0.010965630650520324,-0.0011638744139112532,0.025277822649432343
1782661668256106800,5.304106689453125,0.04776245265007019,-0.02228758219173178,-0.009148096367157995
1782661668266177000,5.314177001953125,0.002559621354937553,-0.022124098725710063,-0.023088943436183035
1782661668276248000,5.324248046875,0.0347211847692728,-0.009443352986685931,-0.027206155796931124
1782661668286319900,5.33431982421875,0.008376783201098442,-0.046874545633327214,-0.04419009688890073
1782661668296392000,5.344391845703125,0.01809562866091728,-0.06081785865407437,-0.07086072103702462
1782661668306463000,5.354462890625,0.03380290088057518,-0.06261988484105095,-0.07314212367220316
1782661668316535000,5.36453515625,-0.0119862058699131,-0.08005670253336429,-0.03978610347602516
1782661668326607000,5.374607177734375,0.060736500513553615,-0.08538346878038719,-0.030890392701048403
1782661668336678100,5.38467822265625,-0.007198387071490287,-0.10297759592626243,-0.044500592176755886
1782661668346750000,5.39475,0.053559156230092046,-0.09106056456873193,-0.04483738181649241
1782661668356822000,5.404822021484375,0.005231470912694931,-0.09608811040716245,-0.04408031637149397
1782661668366892800,5.414892822265625,0.027981647381186484,-0.08358876738334074,-0.07063483072612434
1782661668376964900,5.42496484375,0.01706687013506889,-0.08110011063907295,-0.05493011122315656
1782661668387037000,5.435036865234375,0.02186930198073387,-0.07332965930067002,-0.07335298537733033
1782661668397107700,5.445107666015625,0.01485270121693611,-0.05011104333652183,-0.07376974948467686
1782661668407179800,5.4551796875,0.025939327898621557,-0.04965497013209387,-0.07853974949861876
1782661668417251800,5.465251953125,0.031041619473695752,-0.04383366183377802,-0.06145378650401253
1782661668427323000,5.475322998046875,0.006816694277524947,-0.02584631585292518,-0.06985289570135064
1782661668437395000,5.48539501953125,0.012220599147677421,-0.007473550751060247,-0.051111027859034944
1782661668447466800,5.495466796875,0.011341478225588798,0.0006673230686224997,-0.018461799658765085
1782661668457537800,5.505537841796875,0.018840894070267677,0.013190777620393782,0.01069348091194406
1782661668467609900,5.51560986328125,0.0035948096215724945,0.009448851145710795,0.0504309868727345
1782661668477682000,5.525681884765625,0.01244154842197895,0.009067194884363562,0.05205767475911416
1782661668487753000,5.5357529296875,0.013355740657448769,0.03073991484707221,0.06271529890638776
1782661668497825000,5.545824951171875,-0.013119009292125701,0.04011836763769388,0.07600232170918024
1782661668507896800,5.555896728515625,-0.0023328268617391584,0.04076055626505986,0.10003955144667998
1782661668517968000,5.5659677734375,-0.02042670195698738,0.05902427150188014,0.09152605405547655
1782661668528040000,5.5760400390625,-0.002610474759340286,0.05483567897193133,0.08474011110924184
1782661668538112000,5.586112060546875,-0.01697100854516029,0.07200025559412315,0.06857589803547598
1782661668548182000,5.59618212890625,-0.005153729501366615,0.0785256205085665,0.08197682040836661
1782661668558254000,5.606254150390625,-0.020866262418031693,0.07015011594910174,0.07947901224326342
1782661668568326000,5.616325927734375,-0.009945639953017234,0.06894360796986147,0.08089417627081275
1782661668578397000,5.62639697265625,-0.013542787662148476,0.05947555893333628,0.042791089411708526
1782661668588469000,5.636468994140625,0.007362053200602531,0.04154944162042811,0.02932723047097679
1782661668598541000,5.646541015625,0.93815412581563,0.2388441014270298,0.0438005404488882
1782661668608612000,5.656612060546875,-1.4111854793071745,-0.7434697581052779,-0.640544659551233
1782661668618684200,5.66668408203125,-1.072003208813071,0.3974121219489723,0.7570869992431253
1782661668628756000,5.676755859375,2.1727140411943195,-0.2638230233282782,-0.40632008941732345
1782661668638827000,5.686826904296875,-1.0171446604222059,-0.14374005188746378,-0.11393576478953472
1782661668648899000,5.696899169921875,0.8521832308024168,0.26008180923964824,0.30946130516491827
1782661668658971100,5.70697119140625,-0.9749369192898273,-0.21176139391325413,-0.22177304830718783
1782661668669042200,5.717042236328125,1.1665770969986915,0.16657193355634808,0.17373897564150392
1782661668679114000,5.727114013671875,-0.8598410520792007,-0.10797858255133032,-0.3066319269578904
1782661668689186000,5.73718603515625,0.21323124727010725,0.13681319350004195,0.16698329083621502
1782661668699257000,5.747257080078125,0.2520037532567978,-0.1757772217371501,-0.3674508450578898
1782661668709329200,5.7573291015625,-0.3338239583313465,0.09846786341685801,0.2171747241988778
1782661668719401200,5.767401123046875,0.28165479515492914,-0.06933664414174855,-0.19685467922044916
1782661668729472300,5.77747216796875,-0.09498597611784934,-0.027687742468528447,0.11453799586584791
1782661668739544000,5.7875439453125,0.20774960098862646,-0.014186327996384352,-0.02881219818750396
1782661668749616000,5.7976162109375,-0.3566927927434444,0.021940230058785527,0.17172811074312774
1782661668759687000,5.80768701171875,0.18874387174546717,0.26380391676900905,0.3539646464211866
1782661668769759000,5.817759033203125,-0.1415215173214674,0.07902816320322453,0.2062246016447432
1782661668779831000,5.8278310546875,-0.06131751527190208,-0.05455879825931042,0.13158309256052597
1782661668789902000,5.837902099609375,0.062280807346105575,-0.07485149857308715,-0.0005559762152144686
1782661668799974000,5.847973876953125,-0.01957271547615528,0.01495612505879253,0.09311957945777102
1782661668810046000,5.8580458984375,0.04536240577101707,-0.01697429648078978,-0.0689156513838563
1782661668820117000,5.868116943359375,-0.014800094246864319,0.014832772673759608,0.013864416265371255
1782661668830189000,5.87818896484375,0.04579612101316452,-0.013389862122759222,-0.08526540449182503
1782661668840260900,5.8882607421875,-0.0562625699698925,0.02147801937451586,0.02815118156208191
1782661668850332000,5.898331787109375,0.08394552666544913,-0.033474947567842896,-0.08722566258097067
1782661668860404000,5.908404052734375,-0.050437224817276,-0.0033141843155957756,0.041642161405179644
1782661668870476000,5.91847607421875,-0.0015121581286191938,-0.04338268492957577,-0.06016790227878373
1782661668880547000,5.928547119140625,0.0017757775008678436,-0.021318006507214157,-0.01118336962100584
1782661668890619100,5.938619140625,0.04097849159836769,-0.023767902143672106,-0.08009104319438337
1782661668900691000,5.94869091796875,-0.004358195209503174,-0.006279208133649081,-0.017904494569567032
1782661668910762000,5.958761962890625,0.03903846344649792,-0.021040523006394505,-0.05173673570905812
1782661668920834000,5.968833984375,-0.003007365122437477,-0.010393164524808525,-0.02647490977977868
1782661668930906000,5.978906005859375,0.005822422543168068,-0.03620225363988429,-0.0309276833709795
1782661668940977200,5.98897705078125,0.027076222974061964,-0.025219891050271687,-0.00364790978198871
1782661668951049200,5.99904931640625,0.01061725560426712,-0.023160967492777854,0.011546727607259525
1782661668961120300,6.009120361328125,0.008823357924818993,-0.004822031595278531,0.04893648313181474
1782661668971192000,6.019192138671875,0.03485854741334915,-0.02536552833234891,0.03789312933627516
1782661668981264100,6.02926416015625,-0.01780687484741211,-0.0204166920196265,0.027668115319451316
1782661668991335200,6.039335205078125,0.018407763350009917,-0.013344726073089987,0.012904864217946305
1782661669001407200,6.0494072265625,-0.0613426497131586,-0.010397237911727279,0.002727872327622026
1782661669011479000,6.05947900390625,0.08515665602087974,-0.010453680806700139,-0.024319346030952874
1782661669021549800,6.0695498046875,-0.04292845662236214,-0.01669314145185053,-0.014386741372733377
1782661669031622000,6.079621826171875,0.049853871971368785,0.009064400139078497,-0.03405565179893747
1782661669041694200,6.089694091796875,-0.018823942935466766,-0.01977788265943527,-0.021504037448472808
1782661669051765000,6.099764892578125,0.03519757010936737,-0.028571831826679408,-0.03451584862263407
1782661669061837000,6.109837158203125,-0.008939677780866623,-0.002995144961681217,-0.017170695835724472
1782661669071908900,6.119908935546875,0.0022919103294610976,0.008201700628828256,0.007735569537978154
1782661669081980000,6.12997998046875,-0.055614919716119766,0.12191354786884039,0.1222884364626836
1782661669092052000,6.140052001953125,0.013361001354455946,0.21093690752154215,0.22460390608524902
1782661669102124000,6.1501240234375,0.02517769587635994,0.02719723727153614,0.08690518018864095
1782661669112195000,6.160195068359375,-0.025253099200129508,-0.07681947417780756,-0.00606616360459011
1782661669122267000,6.170266845703125,0.0070662851244211195,-0.06233719544215127,0.06781420208113267
1782661669132339000,6.1803388671875,0.010953940212726592,-0.05146249447809532,0.05108645967335906
