time,seconds_elapsed,z,y,x
1782661068225097700,0.07409765625,-0.10250924527645111,0.10961022228002548,0.17736691236495972
1782661068235167500,0.08416748046875,-0.06445001065731049,0.09999381005764008,0.19212083518505096
1782661068245238500,0.094238525390625,-0.022634800523519516,0.08410730957984924,0.19731517136096954
1782661068255308500,0.10430859375,0.012499749660491943,0.03913131356239319,0.19351831078529358
1782661068265379600,0.114379638671875,0.04103662446141243,0.011755255050957203,0.18851344287395477
1782661068275449600,0.12444970703125,0.05800149217247963,-0.01386701688170433,0.1847807615995407
1782661068285520600,0.134520751953125,0.06485537439584732,-0.03645486757159233,0.17647643387317657
1782661068295590700,0.144590576171875,0.08071982115507126,-0.04760046303272247,0.16494229435920715
1782661068305661700,0.15466162109375,0.0890299528837204,-0.06250845640897751,0.14534908533096313
1782661068315731500,0.1647314453125,0.0971994698047638,-0.0573405884206295,0.12924973666667938
1782661068325802500,0.174802490234375,0.10405145585536957,-0.03627849742770195,0.12358931452035904
1782661068335872800,0.184872802734375,0.10932157933712006,-0.02064334601163864,0.12025317549705505
1782661068345942800,0.19494287109375,0.11674520373344421,-0.011530343443155289,0.11596569418907166
1782661068356013600,0.205013671875,0.11135150492191315,-0.017830850556492805,0.09962479770183563
1782661068366083600,0.21508349609375,0.11517376452684402,-0.02779771201312542,0.09187920391559601
1782661068376154600,0.225154541015625,0.116380974650383,-0.01336231455206871,0.08592544496059418
1782661068386224400,0.235224365234375,0.11617372930049896,0.015546555630862713,0.08228812366724014
1782661068396295400,0.24529541015625,0.12094611674547195,0.025205839425325394,0.06943118572235107
1782661068406365700,0.25536572265625,0.12445142865180969,0.02038971148431301,0.04099496081471443
1782661068416436700,0.265436767578125,0.13129281997680664,0.0015116281574591994,0.006070796400308609
1782661068426506500,0.275506591796875,0.13929927349090576,-0.028177695348858833,-0.027363423258066177
1782661068436577500,0.28557763671875,0.14323648810386658,-0.045934055000543594,-0.04652460291981697
1782661068446647600,0.2956474609375,0.1481933295726776,-0.04909764975309372,-0.05381840467453003
1782661068456717800,0.3057177734375,0.15479397773742676,-0.03230668604373932,-0.04845772683620453
1782661068466788900,0.315788818359375,0.1539294719696045,0.0004959070356562734,-0.027603041380643845
1782661068476859000,0.32585888671875,0.14425234496593475,0.04224628582596779,-0.005770180374383926
1782661068486929700,0.3359296875,0.13612347841262817,0.0798427164554596,0.02035605162382126
1782661068496999700,0.345999755859375,0.12530358135700226,0.10561013221740723,0.0514732226729393
1782661068507070700,0.35607080078125,0.11876270174980164,0.1274082362651825,0.07033121585845947
1782661068517140700,0.366140625,0.10831858217716217,0.1543242633342743,0.0907541960477829
1782661068527211800,0.376211669921875,0.08891767263412476,0.17300820350646973,0.09397612512111664
1782661068537281800,0.38628173828125,0.07818300276994705,0.18235483765602112,0.09067247062921524
1782661068547352800,0.396352783203125,0.07758793234825134,0.1795252412557602,0.09228971600532532
1782661068557422600,0.406422607421875,0.08042579889297485,0.16076408326625824,0.08869472146034241
1782661068567492600,0.41649267578125,0.08322767168283463,0.13828223943710327,0.07624278217554092
1782661068577563600,0.426563720703125,0.09062433987855911,0.11753355711698532,0.06454405188560486
1782661068587634000,0.436634033203125,0.09579164534807205,0.10742875933647156,0.06405707448720932
1782661068597704700,0.44670458984375,0.08875291049480438,0.10514403879642487,0.05803646519780159
1782661068607774700,0.456774658203125,0.0798061341047287,0.10903139412403107,0.0448199063539505
1782661068617845800,0.466845703125,0.07694855332374573,0.10958905518054962,0.030528051778674126
1782661068627915800,0.476915771484375,0.07796941697597504,0.09594983607530594,0.01287750992923975
1782661068637986600,0.486986572265625,0.07666260749101639,0.07356756180524826,-0.007188343908637762
1782661068648056800,0.497056884765625,0.06926114112138748,0.05895042046904564,-0.020800765603780746
1782661068658126800,0.507126953125,0.06755565851926804,0.07275650650262833,-0.02756253071129322
1782661068668197600,0.51719775390625,0.060378871858119965,0.08727065473794937,-0.023506509140133858
1782661068678267600,0.527267578125,0.05395532771945,0.09678106755018234,-0.016585486009716988
1782661068688338700,0.537338623046875,0.0509202778339386,0.1032349169254303,-0.017682557925581932
1782661068698409000,0.547408935546875,0.0466080866754055,0.1115676760673523,-0.03246283903717995
1782661068708479700,0.557479736328125,0.04824146255850792,0.0926700159907341,-0.04267534986138344
1782661068718549800,0.5675498046875,0.05006572604179382,0.0702051892876625,-0.052274979650974274
1782661068728620800,0.577620849609375,0.05430088937282562,0.058257393538951874,-0.05891065672039986
1782661068738690800,0.58769091796875,0.0591004379093647,0.0415298156440258,-0.06838858872652054
1782661068748760600,0.597760498046875,0.05521271005272865,0.019854532554745674,-0.08423785120248795
1782661068758831600,0.60783154296875,0.05694642663002014,-0.0059461710043251514,-0.10164480656385422
1782661068768902000,0.61790185546875,0.06416721642017365,-0.0359920859336853,-0.11141902208328247
1782661068778972700,0.62797265625,0.06672278791666031,-0.05589495226740837,-0.11437460035085678
1782661068789042700,0.638042724609375,0.06907393038272858,-0.06818477809429169,-0.10387413948774338
1782661068799113700,0.64811376953125,0.07611212879419327,-0.0711589977145195,-0.06691478937864304
1782661068809183700,0.658183837890625,0.07602100074291229,-0.07344745099544525,-0.02667360007762909
1782661068819254500,0.668254638671875,0.07569156587123871,-0.062103983014822006,0.01863662339746952
1782661068829324800,0.67832470703125,0.08072526007890701,-0.05069686472415924,0.057345643639564514
1782661068839395800,0.688395751953125,0.07617843896150589,-0.051914192736148834,0.08640073239803314
1782661068849465900,0.6984658203125,0.0750686526298523,-0.07209654897451401,0.09927667677402496
1782661068859535600,0.70853564453125,0.07339298725128174,-0.0923142060637474,0.110492043197155
1782661068869606700,0.718606689453125,0.07032767683267593,-0.10078271478414536,0.130350723862648
1782661068879677000,0.728677001953125,0.07198683172464371,-0.1085977628827095,0.14380741119384766
1782661068889748000,0.738748046875,0.07286275178194046,-0.1336243599653244,0.15365920960903168
1782661068899817700,0.748817626953125,0.07665269821882248,-0.16516603529453278,0.15544086694717407
1782661068909888800,0.758888671875,0.08028534799814224,-0.17594020068645477,0.16687293350696564
1782661068919958800,0.768958740234375,0.08049680292606354,-0.17476147413253784,0.18662452697753906
1782661068930029600,0.779029541015625,0.0773005411028862,-0.168278768658638,0.2127806395292282
1782661068940099800,0.789099853515625,0.07453085482120514,-0.1572181135416031,0.23600074648857117
1782661068950169900,0.799169921875,0.0710737556219101,-0.15206603705883026,0.2581563889980316
1782661068960241000,0.809240966796875,0.059830691665410995,-0.15357445180416107,0.26172715425491333
1782661068970310700,0.819310546875,0.05049002170562744,-0.16440151631832123,0.25783249735832214
1782661068980381700,0.829381591796875,0.03857477381825447,-0.1700572818517685,0.24888372421264648
1782661068990451700,0.83945166015625,0.026407212018966675,-0.1659715175628662,0.24085365235805511
1782661069000522800,0.849522705078125,0.01521287951618433,-0.15702436864376068,0.2305043339729309
1782661069010592800,0.8595927734375,0.006912029813975096,-0.13690219819545746,0.21649475395679474
1782661069020663800,0.869663818359375,0.001693831873126328,-0.10909320414066315,0.1840800791978836
1782661069030733800,0.87973388671875,-0.000892266514711082,-0.0880030170083046,0.14714547991752625
1782661069040803600,0.889803466796875,-0.0010709647322073579,-0.0727260634303093,0.1140328049659729
1782661069050874600,0.89987451171875,-0.005500168539583683,-0.06535177677869797,0.09607915580272675
1782661069060945000,0.90994482421875,-0.011836627498269081,-0.058419037610292435,0.0920652449131012
1782661069071016000,0.920015869140625,-0.019416220486164093,-0.05114350467920303,0.09032362699508667
1782661069081085700,0.930085693359375,-0.02475452609360218,-0.04816316068172455,0.07963582873344421
1782661069091156700,0.94015673828125,-0.02722160331904888,-0.04472805932164192,0.06366227567195892
1782661069101226800,0.950226806640625,-0.030594229698181152,-0.03684243932366371,0.04390455037355423
1782661069111297800,0.9602978515625,-0.024912061169743538,-0.024820391088724136,0.0343184694647789
1782661069121367800,0.970367919921875,-0.023340528830885887,-0.011524824425578117,0.02957804501056671
1782661069131437800,0.980437744140625,-0.023199165239930153,-0.018097244203090668,0.010751388967037201
1782661069141508900,0.9905087890625,-0.021329093724489212,-0.0312814898788929,-0.01994234137237072
1782661069151578600,1.00057861328125,-0.014170314185321331,-0.04285484179854393,-0.05628344789147377
1782661069161649700,1.010649658203125,-0.006923852488398552,-0.061188843101263046,-0.0776665061712265
1782661069171719700,1.0207197265625,0.006289534270763397,-0.07498422265052795,-0.08694137632846832
1782661069181790700,1.030790771484375,0.017241785302758217,-0.0782463327050209,-0.06836875528097153
1782661069191860700,1.04086083984375,0.02224144898355007,-0.0774659663438797,-0.04026403650641441
1782661069201931800,1.050931884765625,0.02264278754591942,-0.0646340548992157,-0.01274479366838932
1782661069212001800,1.061001708984375,0.01545043382793665,-0.046559903770685196,0.015324658714234829
1782661069222071600,1.071071533203125,0.008655644953250885,-0.026872221380472183,0.03372017666697502
1782661069232142600,1.081142578125,0.0030025062151253223,-0.007827498950064182,0.042344290763139725
1782661069242212900,1.091212890625,-0.003371770028024912,-0.013176990672945976,0.04527696594595909
1782661069252284000,1.101283935546875,-0.013330664485692978,-0.029537515714764595,0.03807128220796585
1782661069262353700,1.111353759765625,-0.01881278119981289,-0.034230537712574005,0.03228076919913292
1782661069272424700,1.1214248046875,-0.02357456274330616,-0.03865112364292145,0.015844298526644707
1782661069282494700,1.13149462890625,-0.027533352375030518,-0.054699599742889404,-0.010289832018315792
1782661069292565800,1.141565673828125,-0.029019396752119064,-0.06830009818077087,-0.043783608824014664
1782661069302635800,1.1516357421875,-0.02621322311460972,-0.08771480619907379,-0.06477916985750198
1782661069312705800,1.161705810546875,-0.023107819259166718,-0.09256215393543243,-0.07301647961139679
1782661069322776800,1.17177685546875,-0.024402648210525513,-0.07851318269968033,-0.06202321499586105
1782661069332846600,1.1818466796875,-0.02351571060717106,-0.05213543400168419,-0.03418741375207901
1782661069342917600,1.191917724609375,-0.02525928243994713,-0.020148208364844322,0.006556822918355465
1782661069352987600,1.201987548828125,-0.024338306859135628,0.005633785855025053,0.04360932484269142
1782661069363058700,1.21205859375,-0.025342851877212524,0.014724219217896461,0.06843184679746628
1782661069373128700,1.222128662109375,-0.02503429539501667,0.013545835390686989,0.07388316094875336
1782661069383199700,1.23219970703125,-0.031755849719047546,0.014587397687137127,0.06407447159290314
1782661069393269800,1.242269775390625,-0.03359624743461609,0.015513175167143345,0.03562936186790466
1782661069403339800,1.25233984375,-0.03567031770944595,0.015964047983288765,0.006492783781141043
1782661069413410600,1.26241064453125,-0.032999437302351,0.009745103307068348,-0.023373203352093697
1782661069423480800,1.272480712890625,-0.027761263772845268,0.006718686781823635,-0.04281667619943619
1782661069433552000,1.2825517578125,-0.02395411767065525,0.008989699184894562,-0.056637030094861984
1782661069443622100,1.2926220703125,-0.021169517189264297,0.013456086628139019,-0.06099396198987961
1782661069453693000,1.30269287109375,-0.019725115969777107,0.027973908931016922,-0.059200871735811234
1782661069463763000,1.312762939453125,-0.01835598610341549,0.040210869163274765,-0.05094746872782707
1782661069473834000,1.322833984375,-0.018209248781204224,0.047866787761449814,-0.05425291508436203
1782661069483904000,1.332904052734375,-0.015863535925745964,0.04952486976981163,-0.058985088020563126
1782661069493974000,1.34297412109375,-0.017917096614837646,0.03608296811580658,-0.06819888949394226
1782661069504045000,1.353045166015625,-0.016052883118391037,0.018374811857938766,-0.06633707880973816
1782661069514115000,1.363114990234375,-0.013019873760640621,-0.0065190172754228115,-0.05364612117409706
1782661069524185900,1.373185791015625,-0.012717604637145996,-0.015568172559142113,-0.034530218690633774
1782661069534255900,1.383255859375,-0.01782761514186859,-0.017479529604315758,-0.011170192621648312
1782661069544327000,1.393326904296875,-0.02432865835726261,-0.012638701125979424,0.00905971135944128
1782661069554397200,1.403397216796875,-0.03527829796075821,0.004691353067755699,0.03407138213515282
1782661069564467000,1.413467041015625,-0.04329095035791397,0.024452541023492813,0.0583447627723217
1782661069574538000,1.4235380859375,-0.05264812335371971,0.03958049416542053,0.07323117554187775
1782661069584608000,1.43360791015625,-0.06217079237103462,0.04756438732147217,0.07951197773218155
1782661069594678800,1.4436787109375,-0.06513558328151703,0.048580579459667206,0.07120629400014877
1782661069604749000,1.4537490234375,-0.06897372752428055,0.041597504168748856,0.04357146844267845
1782661069614820000,1.463820068359375,-0.06959861516952515,0.03303397819399834,0.010403250344097614
1782661069624890000,1.47389013671875,-0.06715543568134308,0.02601708099246025,-0.019457442685961723
1782661069634961000,1.4839609375,-0.06536126136779785,0.016033224761486053,-0.04608209431171417
1782661069645031000,1.494031005859375,-0.0582711286842823,0.01986897550523281,-0.0573965348303318
1782661069655101200,1.50410107421875,-0.05476602911949158,0.03567051514983177,-0.052673373371362686
1782661069665172200,1.514172119140625,-0.055968448519706726,0.04582354798913002,-0.056101929396390915
1782661069675242000,1.524241943359375,-0.05402173474431038,0.05153222754597664,-0.05763578414916992
1782661069685313000,1.53431298828125,-0.04632732644677162,0.046397119760513306,-0.06040600314736366
1782661069695383000,1.544383056640625,-0.043490633368492126,0.04767177999019623,-0.05366785079240799
1782661069705454000,1.5544541015625,-0.04374257102608681,0.057825081050395966,-0.04637398570775986
1782661069715523800,1.56452392578125,-0.04387418553233147,0.06795480847358704,-0.03418540209531784
1782661069725594000,1.574593994140625,-0.048199158161878586,0.07262866199016571,-0.030417563393712044
1782661069735665200,1.5846650390625,-0.04846659302711487,0.07461883872747421,-0.034031979739665985
1782661069745735000,1.59473486328125,-0.05052042379975319,0.07413574308156967,-0.04376104101538658
1782661069755806000,1.604805908203125,-0.04992760345339775,0.06172680854797363,-0.05961214005947113
1782661069765876000,1.6148759765625,-0.043153323233127594,0.05430564656853676,-0.07466991990804672
1782661069775947000,1.624947021484375,-0.03974553942680359,0.05317160114645958,-0.07972649484872818
1782661069786017000,1.63501708984375,-0.03859958052635193,0.045028720051050186,-0.08448263257741928
1782661069796087000,1.645087158203125,-0.034487493336200714,0.033848509192466736,-0.0857158973813057
1782661069806158000,1.655157958984375,-0.032028064131736755,0.02899915911257267,-0.07138409465551376
1782661069816227800,1.665227783203125,-0.03515877202153206,0.03700289502739906,-0.054951176047325134
1782661069826299000,1.675298828125,-0.037483446300029755,0.03488195315003395,-0.04254883527755737
1782661069836369200,1.685369140625,-0.04037584736943245,0.02878505177795887,-0.03609955310821533
1782661069846440200,1.695440185546875,-0.04084136709570885,0.024067793041467667,-0.03170320764183998
1782661069856510000,1.705510009765625,-0.04390651360154152,0.015144327655434608,-0.033780284225940704
1782661069866580000,1.715580078125,-0.04324285313487053,0.006973483599722385,-0.03511559218168259
1782661069876651000,1.725651123046875,-0.042751818895339966,-0.0006894301623106003,-0.03554803133010864
1782661069886720800,1.735720703125,-0.04390496760606766,-0.001811952330172062,-0.026999015361070633
1782661069896791800,1.745791748046875,-0.046911247074604034,-0.003430616110563278,-0.018263796344399452
1782661069906862000,1.755862060546875,-0.05109134316444397,-0.0019152774475514889,-0.0016754989046603441
1782661069916933000,1.76593310546875,-0.05526185780763626,0.004560261033475399,0.017914215102791786
1782661069927003000,1.7760029296875,-0.062437742948532104,0.01452367939054966,0.038918569684028625
1782661069937073000,1.786072998046875,-0.0671442374587059,0.018243862316012383,0.04515603184700012
1782661069947144000,1.79614404296875,-0.071721151471138,0.021932074800133705,0.046800799667835236
1782661069957214000,1.8062138671875,-0.07547210156917572,0.027469513937830925,0.03778351843357086
1782661069967285000,1.816284912109375,-0.07800529897212982,0.023091543465852737,0.016615383327007294
1782661069977355000,1.82635498046875,-0.08219952136278152,0.00918152928352356,-0.01509038545191288
1782661069987426000,1.836426025390625,-0.08361125737428665,0.004445895552635193,-0.044781435281038284
1782661069997495800,1.846495849609375,-0.08319559693336487,-0.005482511594891548,-0.06411401927471161
1782661070007566800,1.85656689453125,-0.08245284110307693,-0.0070471190847456455,-0.08064612746238708
1782661070017637000,1.86663720703125,-0.08497309684753418,-0.011373965069651604,-0.09314920753240585
1782661070027707100,1.87670703125,-0.08371981233358383,-0.019917387515306473,-0.09871015697717667
1782661070037778000,1.88677783203125,-0.08443721383810043,-0.015757188200950623,-0.08794845640659332
1782661070047848000,1.896847900390625,-0.07878278940916061,-0.0014544150326400995,-0.07038038223981857
1782661070057919000,1.9069189453125,-0.08216185867786407,0.013963371515274048,-0.047083061188459396
1782661070067989000,1.916989013671875,-0.08417440950870514,0.02270892634987831,-0.029087815433740616
1782661070078059000,1.92705908203125,-0.08681338280439377,0.029498985037207603,-0.01770939864218235
1782661070088130000,1.937130126953125,-0.09088322520256042,0.029565297067165375,-0.00982111506164074
1782661070098200000,1.947199951171875,-0.0922243520617485,0.016725249588489532,-0.01571517623960972
1782661070108270800,1.957270751953125,-0.08444365859031677,-0.003342735581099987,-0.020265987142920494
1782661070118340900,1.9673408203125,-0.07440683990716934,-0.01705128699541092,-0.024272359907627106
1782661070128412000,1.977411865234375,-0.06908584386110306,-0.02898198366165161,-0.026364538818597794
1782661070138482200,1.987482177734375,-0.06152576953172684,-0.044085826724767685,-0.019588075578212738
1782661070148553000,1.997552978515625,-0.04925871640443802,-0.04514816030859947,-0.007119689602404833
1782661070158623000,2.007623046875,-0.04312311112880707,-0.03710247576236725,0.004191046115010977
1782661070168693000,2.01769287109375,-0.04037632793188095,-0.03405635058879852,0.020079996436834335
1782661070178764000,2.027763916015625,-0.03634829819202423,-0.03131909668445587,0.021856362000107765
1782661070188834000,2.037833984375,-0.030424363911151886,-0.028279632329940796,0.023449731990695
1782661070198905000,2.047905029296875,-0.026267433539032936,-0.031367093324661255,0.024336792528629303
1782661070208975000,2.05797509765625,-0.01811975985765457,-0.03228934481739998,0.021338339895009995
1782661070219046000,2.0680458984375,-0.01432129554450512,-0.02806166559457779,0.022165359929203987
1782661070229116000,2.078115966796875,-0.011699146591126919,-0.03276054561138153,0.015883496031165123
1782661070239186200,2.088186279296875,-0.008035806939005852,-0.03539339452981949,0.006466039456427097
1782661070249257000,2.098257080078125,-0.0028157441411167383,-0.04082437977194786,0.0027197706513106823
1782661070259327000,2.108326904296875,0.0015630769776180387,-0.04220703989267349,-0.0038323928602039814
1782661070269398000,2.11839794921875,0.004202003125101328,-0.04269040375947952,0.00019803497707471251
1782661070279468000,2.128468017578125,0.009812326170504093,-0.040588561445474625,0.004709273111075163
1782661070289539000,2.1385390625,0.012971367686986923,-0.029453085735440254,0.013055619783699512
1782661070299608800,2.14860888671875,0.019822031259536743,-0.016534026712179184,0.019917581230401993
1782661070309679000,2.15867919921875,0.02755718119442463,-0.005472853314131498,0.03307066857814789
1782661070319750100,2.168750244140625,0.029553167521953583,0.001531059155240655,0.03787773475050926
1782661070329820000,2.17881982421875,0.03465365618467331,-0.010497374460101128,0.03279881924390793
1782661070339891000,2.188890869140625,0.04493318870663643,-0.019398929551243782,0.015166332013905048
1782661070349961000,2.1989609375,0.05338100343942642,-0.03341221809387207,-0.00109759287443012
1782661070360032000,2.209031982421875,0.0643129050731659,-0.04310968518257141,-0.01100830640643835
1782661070370102000,2.21910205078125,0.07021074742078781,-0.0458170548081398,-0.019913384690880775
1782661070380172000,2.229172119140625,0.07580236345529556,-0.04768867790699005,-0.02651481330394745
1782661070390243000,2.2392431640625,0.07719173282384872,-0.04646894708275795,-0.02989036962389946
1782661070400312800,2.249312744140625,0.07818648219108582,-0.04726231470704079,-0.03261640667915344
1782661070410384000,2.2593837890625,0.07672334462404251,-0.0371263213455677,-0.03386089950799942
1782661070420454100,2.2694541015625,0.073999784886837,-0.02850712276995182,-0.03484343737363815
1782661070430524200,2.279524169921875,0.07262026518583298,-0.026834923774003983,-0.03597554937005043
1782661070440595000,2.289594970703125,0.06869130581617355,-0.0229128859937191,-0.04266700893640518
1782661070450664700,2.299664794921875,0.06469949334859848,-0.022810088470578194,-0.051407501101493835
1782661070460735700,2.30973583984375,0.06558792293071747,-0.031585946679115295,-0.05970267578959465
1782661070470805800,2.3198056640625,0.07030491530895233,-0.0331614725291729,-0.057634998112916946
1782661070480876800,2.329876708984375,0.06891266256570816,-0.03346646949648857,-0.04922346770763397
1782661070490946800,2.33994677734375,0.06726043671369553,-0.023906253278255463,-0.04118897765874863
1782661070501016800,2.350016845703125,0.06357206404209137,0.002572838217020035,-0.02660992555320263
1782661070511087900,2.360087890625,0.057779423892498016,0.021608315408229828,-0.007723852060735226
1782661070521158000,2.370157958984375,0.04962535947561264,0.03191959857940674,0.008197360672056675
1782661070531228700,2.380228759765625,0.04145371541380882,0.03734472393989563,0.021880948916077614
1782661070541299000,2.390298828125,0.037210822105407715,0.03255368769168854,0.02805759385228157
1782661070551370000,2.400369873046875,0.03314204514026642,0.03521684929728508,0.03577197343111038
1782661070561439700,2.410439697265625,0.029486054554581642,0.041289184242486954,0.0424024797976017
1782661070571509800,2.420509765625,0.023960795253515244,0.0498560406267643,0.044961247593164444
1782661070581580800,2.430580810546875,0.022331953048706055,0.051303304731845856,0.04341119900345802
1782661070591651000,2.440651123046875,0.02225552126765251,0.051239389926195145,0.0372137576341629
1782661070601721900,2.450721923828125,0.019083641469478607,0.05052131041884422,0.03274111449718475
1782661070611792000,2.4607919921875,0.016832472756505013,0.040720611810684204,0.023500744253396988
1782661070621863000,2.47086279296875,0.00927111878991127,0.0437299981713295,0.013351750560104847
1782661070631933000,2.480932861328125,0.0051727802492678165,0.04477955028414726,0.0035270829685032368
1782661070642003000,2.4910029296875,-0.0026149414479732513,0.041514910757541656,-0.006458051968365908
1782661070652074000,2.501073974609375,-0.006775864399969578,0.04081183671951294,-0.013087192550301552
1782661070662144000,2.51114404296875,-0.011010237038135529,0.04167703539133072,-0.013052632100880146
1782661070672215000,2.521215087890625,-0.01781408116221428,0.040683407336473465,-0.011156993918120861
1782661070682284800,2.531284912109375,-0.021470867097377777,0.03832065314054489,-0.01660129427909851
1782661070692355800,2.54135595703125,-0.022683139890432358,0.03699599578976631,-0.02213720791041851
1782661070702425900,2.55142578125,-0.02435171604156494,0.03181803226470947,-0.0171503908932209
1782661070712495900,2.561495849609375,-0.028867637738585472,0.03134212642908096,-0.010540693067014217
1782661070722567000,2.57156689453125,-0.027932284399867058,0.03309974819421768,-0.0016697647515684366
1782661070732637000,2.581636962890625,-0.030567482113838196,0.0282669086009264,0.003985458053648472
1782661070742708000,2.5917080078125,-0.03142730891704559,0.0304485484957695,0.009649157524108887
1782661070752777700,2.60177783203125,-0.032043032348155975,0.029801134020090103,0.00852983072400093
1782661070762848000,2.611847900390625,-0.027318956330418587,0.01837768964469433,0.0018619665643200278
1782661070772919000,2.6219189453125,-0.022732194513082504,0.007896553725004196,0.0027003297582268715
1782661070782988800,2.63198876953125,-0.024513104930520058,0.012587029486894608,0.01080210693180561
1782661070793059800,2.642059814453125,-0.025333093479275703,0.019474230706691742,0.015560642816126347
1782661070803129900,2.6521298828125,-0.026968857273459435,0.028040720149874687,0.026993200182914734
1782661070813201000,2.662200927734375,-0.027680452913045883,0.027546171098947525,0.0328524187207222
1782661070823271000,2.67227099609375,-0.028406217694282532,0.02555041015148163,0.03074774518609047
1782661070833341000,2.6823408203125,-0.025677543133497238,0.023666489869356155,0.030246805399656296
1782661070843412000,2.692411865234375,-0.023636125028133392,0.021471016108989716,0.0236823707818985
1782661070853481700,2.702481689453125,-0.020950859412550926,0.017854709178209305,0.021539591252803802
1782661070863552800,2.712552734375,-0.020214546471834183,0.018836036324501038,0.022190188989043236
1782661070873622800,2.722622802734375,-0.023220457136631012,0.01499842293560505,0.011641141027212143
1782661070883693800,2.73269384765625,-0.020117130130529404,0.01106015034019947,0.0011437817011028528
1782661070893763800,2.742763916015625,-0.014970570802688599,0.014231976121664047,-0.0073679471388459206
1782661070903833900,2.752833740234375,-0.00959657784551382,0.0073290616273880005,-0.014480185694992542
1782661070913905000,2.76290478515625,-0.0013194739585742354,-0.005727617535740137,-0.009853209368884563
1782661070923974700,2.772974609375,0.008387003093957901,-0.017479093745350838,0.002834866289049387
1782661070934045700,2.783045654296875,0.016058770939707756,-0.01947193779051304,0.029944781213998795
1782661070944116000,2.793115966796875,0.020020490512251854,-0.02139180898666382,0.05391669273376465
1782661070954186000,2.80318603515625,0.022151552140712738,-0.02646246924996376,0.0796433612704277
1782661070964256800,2.8132568359375,0.028001558035612106,-0.025607988238334656,0.09571461379528046
1782661070974326800,2.823326904296875,0.027560537680983543,-0.03626728802919388,0.10740908980369568
1782661070984397800,2.833397705078125,0.026971232146024704,-0.05204812437295914,0.11749712377786636
1782661070994468000,2.843468017578125,0.025913160294294357,-0.06170741096138954,0.12857267260551453
1782661071004539000,2.853538818359375,0.02686784788966179,-0.08372993767261505,0.14206449687480927
1782661071014609000,2.86360888671875,0.031124111264944077,-0.0915260761976242,0.14792051911354065
1782661071024679000,2.873678955078125,0.03242677077651024,-0.1000245064496994,0.15919843316078186
1782661071034750000,2.88375,0.027890343219041824,-0.107292540371418,0.16635674238204956
1782661071044819700,2.89381982421875,0.021781211718916893,-0.11640415340662003,0.1733069121837616
1782661071054890800,2.903890869140625,0.013030863367021084,-0.11461477726697922,0.18337473273277283
1782661071064961000,2.9139609375,0.009327790699899197,-0.1128641813993454,0.1930120438337326
1782661071075031800,2.92403173828125,-0.0012726563727483153,-0.10576312243938446,0.19329886138439178
1782661071085101800,2.934101806640625,-0.012772930786013603,-0.09422967582941055,0.18628787994384766
1782661071095171800,2.944171875,-0.025107894092798233,-0.08941308408975601,0.1780262142419815
1782661071105243000,2.954242919921875,-0.03620182350277901,-0.08878570050001144,0.1605534553527832
1782661071115313000,2.96431298828125,-0.04354921728372574,-0.0785977765917778,0.14822861552238464
1782661071125384000,2.974384033203125,-0.050681110471487045,-0.06577029824256897,0.13554862141609192
1782661071135454000,2.984453857421875,-0.057488419115543365,-0.0569099597632885,0.1212245523929596
1782661071145523700,2.994523681640625,-0.06767532229423523,-0.051604244858026505,0.11253639310598373
1782661071155594800,3.0045947265625,-0.07695937156677246,-0.051908109337091446,0.10654667764902115
1782661071165665000,3.0146650390625,-0.09115828573703766,-0.06223936751484871,0.10805345326662064
1782661071175736000,3.024736083984375,-0.11215385049581528,-0.080277219414711,0.09976968914270401
1782661071185805800,3.034805908203125,-0.13302087783813477,-0.09503089636564255,0.09418870508670807
1782661071195876900,3.044876953125,-0.15792116522789001,-0.08256091177463531,0.09448777139186859
1782661071205947000,3.05494677734375,-0.18654967844486237,-0.055595751851797104,0.09637346863746643
1782661071216017000,3.065016845703125,-0.2121429145336151,-0.037432197481393814,0.09270922839641571
1782661071226088000,3.075087890625,-0.23249070346355438,-0.030529307201504707,0.07436452805995941
1782661071236158000,3.085157958984375,-0.24679213762283325,-0.01947532407939434,0.050554268062114716
1782661071246229000,3.09522900390625,-0.2583497166633606,-0.0036202468909323215,0.02045518346130848
1782661071256298800,3.105298828125,-0.2649948298931122,0.023277146741747856,-0.01302847359329462
1782661071266368800,3.11536865234375,-0.26999878883361816,0.04582758992910385,-0.05067160353064537
1782661071276439800,3.125439697265625,-0.2695673406124115,0.07663051038980484,-0.08353793621063232
1782661071286509800,3.135509765625,-0.26898202300071716,0.10714853554964066,-0.11744257807731628
1782661071296580900,3.145580810546875,-0.26831889152526855,0.14024284482002258,-0.15387170016765594
1782661071306651000,3.15565087890625,-0.26422926783561707,0.16782525181770325,-0.18972235918045044
1782661071316722000,3.165721923828125,-0.25115129351615906,0.19198943674564362,-0.2223021388053894
1782661071326791700,3.175791748046875,-0.2368745654821396,0.19725283980369568,-0.25593098998069763
1782661071336862000,3.185862060546875,-0.223597913980484,0.18892008066177368,-0.2861328423023224
1782661071346933000,3.19593310546875,-0.20192959904670715,0.18604162335395813,-0.30286905169487
1782661071357003000,3.2060029296875,-0.1804456114768982,0.18262770771980286,-0.30714529752731323
1782661071367073800,3.21607373046875,-0.155736044049263,0.18100781738758087,-0.29276198148727417
1782661071377143800,3.226143798828125,-0.13568882644176483,0.18278281390666962,-0.27442076802253723
1782661071387213800,3.2362138671875,-0.11446190625429153,0.17373494803905487,-0.2574463486671448
1782661071397284900,3.246284912109375,-0.0896790623664856,0.15205149352550507,-0.23361213505268097
1782661071407355000,3.25635498046875,-0.07393194735050201,0.14330320060253143,-0.20711161196231842
1782661071417426000,3.266426025390625,-0.05818813666701317,0.14957627654075623,-0.17665357887744904
1782661071427496000,3.276495849609375,-0.051969975233078,0.15272638201713562,-0.15014252066612244
1782661071437566700,3.286566650390625,-0.050903379917144775,0.14957159757614136,-0.134184330701828
1782661071447636700,3.29663671875,-0.042907509952783585,0.14427810907363892,-0.12905336916446686
1782661071457706800,3.306706787109375,-0.03701845929026604,0.13259081542491913,-0.13538981974124908
1782661071467777800,3.31677783203125,-0.03364609554409981,0.10929811000823975,-0.1429094523191452
1782661071477847800,3.326847900390625,-0.025798559188842773,0.0824103057384491,-0.15280336141586304
1782661071487918800,3.3369189453125,-0.023486722260713577,0.06412398815155029,-0.15443558990955353
1782661071497988600,3.346988525390625,-0.02134074829518795,0.06183420494198799,-0.14298611879348755
1782661071508059000,3.357058837890625,-0.024216320365667343,0.060755811631679535,-0.12997666001319885
1782661071518130000,3.3671298828125,-0.02655670791864395,0.05855231359601021,-0.11557935178279877
1782661071528199700,3.37719970703125,-0.03135114535689354,0.05286778137087822,-0.1086900383234024
1782661071538270700,3.387270751953125,-0.02844909578561783,0.04497630521655083,-0.10368702560663223
1782661071548340700,3.3973408203125,-0.029942279681563377,0.02984565868973732,-0.10445521771907806
1782661071558411800,3.407411865234375,-0.023250022903084755,0.007594948168843985,-0.11215228587388992
1782661071568481800,3.417481689453125,-0.014541909098625183,0.00019564596004784107,-0.09953424334526062
1782661071578551800,3.4275517578125,-0.008686150424182415,0.004455105867236853,-0.0893617644906044
1782661071588622800,3.437622802734375,-0.009071620181202888,-0.00049231993034482,-0.07646571099758148
1782661071598692600,3.447692626953125,-0.005201514810323715,-0.004023671615868807,-0.06365590542554855
1782661071608763600,3.457763671875,-0.0005289409309625626,0.006821122486144304,-0.05159727856516838
1782661071618833700,3.467833740234375,0.003619465045630932,0.008323677815496922,-0.04267995059490204
1782661071628903700,3.477903564453125,0.006687957793474197,-0.001428122166544199,-0.036110274493694305
1782661071638974700,3.487974609375,0.008415549993515015,0.0001042606309056282,-0.03408121317625046
1782661071649044700,3.498044677734375,0.006577171850949526,0.012869426980614662,-0.027423763647675514
1782661071659115800,3.50811572265625,0.004808033816516399,0.027890987694263458,-0.02163059078156948
1782661071669185500,3.518185546875,0.005182684399187565,0.01883402094244957,-0.021384837105870247
1782661071679256600,3.528256591796875,0.005767514929175377,0.007257259450852871,-0.033645231276750565
1782661071689326800,3.538326904296875,0.006188664119690657,0.0010593795450404286,-0.0354590080678463
1782661071699396900,3.54839697265625,0.004203277640044689,-0.0039462982676923275,-0.03948783874511719
1782661071709467600,3.558467529296875,0.00021556974388659,0.0005078065441921353,-0.03231598436832428
1782661071719537700,3.56853759765625,-0.007017309777438641,0.007591282483190298,-0.020244942978024483
1782661071729608700,3.578608642578125,-0.01297698263078928,0.012137943878769875,-0.008737056516110897
1782661071739679000,3.588678955078125,-0.010805973783135414,0.015190725214779377,0.005322037264704704
1782661071749748700,3.598748779296875,-0.009584808722138405,0.0027834633365273476,0.00762368505820632
1782661071759819800,3.60881982421875,-0.004944250453263521,-0.00782017782330513,0.005950953811407089
1782661071769889800,3.618889892578125,0.0031823874451220036,-0.02301068976521492,0.006874386686831713
1782661071779960600,3.628960693359375,0.007865555584430695,-0.0334918275475502,0.008751383051276207
1782661071790030600,3.639030517578125,0.01457394752651453,-0.029139019548892975,0.024306833744049072
1782661071800100900,3.649100830078125,0.020358599722385406,-0.0194682814180851,0.03724846616387367
1782661071810172000,3.659171875,0.023251432925462723,-0.01507414598017931,0.04520750418305397
1782661071820241700,3.66924169921875,0.03033437579870224,-0.01961696520447731,0.04197043180465698
1782661071830312700,3.679312744140625,0.0411669984459877,-0.03234405070543289,0.03623945266008377
1782661071840382700,3.6893828125,0.0480712428689003,-0.028250237926840782,0.03924136608839035
1782661071850453800,3.699453857421875,0.058955900371074677,-0.02238931506872177,0.04551509767770767
1782661071860523800,3.709523681640625,0.06162838265299797,-0.02033095806837082,0.04043591767549515
1782661071870593800,3.71959375,0.06925338506698608,-0.023885024711489677,0.033416278660297394
1782661071880664800,3.729664794921875,0.07093783468008041,-0.02787736989557743,0.022716229781508446
1782661071890734600,3.739734619140625,0.07288071513175964,-0.0263713039457798,0.014399237930774689
1782661071900805600,3.7498056640625,0.07584827393293381,-0.024299098178744316,0.004622241947799921
1782661071910876000,3.7598759765625,0.07687162607908249,-0.030603382736444473,-0.0061260717920959
1782661071920945700,3.769945556640625,0.08157503604888916,-0.04152180999517441,-0.01276240311563015
1782661071931016700,3.7800166015625,0.08281995356082916,-0.0441223569214344,-0.018762197345495224
1782661071941086700,3.790086669921875,0.08414913713932037,-0.04423607140779495,-0.01130001898854971
1782661071951157800,3.80015771484375,0.08676814287900925,-0.04330216348171234,-0.005192919634282589
1782661071961227800,3.810227783203125,0.0895191878080368,-0.04542550444602966,0.0028490275144577026
1782661071971298800,3.820298828125,0.0852028951048851,-0.043483711779117584,0.0157390758395195
1782661071981368800,3.830368896484375,0.08650118112564087,-0.036865491420030594,0.025405552238225937
1782661071991438600,3.8404384765625,0.08435078710317612,-0.031957630068063736,0.029358133673667908
1782661072001509600,3.850509521484375,0.08207538723945618,-0.036893267184495926,0.02924574725329876
1782661072011579600,3.86057958984375,0.08169423788785934,-0.033135123550891876,0.03092900849878788
1782661072021650700,3.870650634765625,0.08245430141687393,-0.03074653446674347,0.02797769196331501
1782661072031720700,3.880720703125,0.08275140076875687,-0.03253130614757538,0.02451353520154953
1782661072041790700,3.890790771484375,0.08727291971445084,-0.039794545620679855,0.0219891257584095
1782661072051861800,3.90086181640625,0.08812012523412704,-0.03913254663348198,0.015149001032114029
1782661072061931800,3.910931884765625,0.09061896800994873,-0.037954896688461304,0.013416081666946411
1782661072072002600,3.92100244140625,0.0856110006570816,-0.03595254197716713,0.006089110858738422
1782661072082072800,3.93107275390625,0.07091914117336273,-0.025947846472263336,0.005780982784926891
1782661072092142800,3.941142822265625,0.060392409563064575,-0.01811712048947811,0.012927290052175522
1782661072102214000,3.9512138671875,0.0587761364877224,-0.006733437534421682,0.02283904328942299
1782661072112283600,3.96128369140625,0.05485154315829277,-0.000002643326297402382,0.02275027707219124
1782661072122354700,3.971354736328125,0.054390016943216324,0.0010980410734191537,0.010741018690168858
1782661072132424700,3.9814248046875,0.053892746567726135,-0.007517313584685326,-0.002135652583092451
1782661072142494700,3.99149462890625,0.05589624494314194,-0.014921699650585651,-0.020603341981768608
1782661072152565800,4.001565673828125,0.04861995950341225,-0.01953633315861225,-0.03364076465368271
1782661072162635800,4.0116357421875,0.044517092406749725,-0.02367488667368889,-0.033245284110307693
1782661072172706800,4.021706787109375,0.03850005567073822,-0.031420283019542694,-0.02185080759227276
1782661072182776600,4.031776611328125,0.034501586109399796,-0.024034805595874786,-0.0013561854138970375
1782661072192847600,4.04184765625,0.026386773213744164,-0.011657576076686382,0.01970507577061653
1782661072202918000,4.05191796875,0.029217978939414024,-0.0020313141867518425,0.03761003911495209
1782661072212987600,4.061987548828125,0.02689453214406967,-0.002892188262194395,0.04859250411391258
1782661072223058700,4.07205859375,0.02591368928551674,-0.009395893663167953,0.051793359220027924
1782661072233128700,4.082128662109375,0.01853811740875244,-0.015443775802850723,0.051968492567539215
1782661072243199700,4.09219970703125,0.017551414668560028,-0.019651571288704872,0.05128832161426544
1782661072253269800,4.102269775390625,0.007951145991683006,-0.020616309717297554,0.04882874712347984
1782661072263339800,4.11233984375,0.00136967608705163,-0.020740944892168045,0.042767394334077835
1782661072273410800,4.122410888671875,0.0009363826247863472,-0.018702197819948196,0.044233545660972595
1782661072283480600,4.13248046875,0.0004295830731280148,-0.015344217419624329,0.03932507336139679
1782661072293551600,4.142551513671875,0.005304818041622639,-0.011503253132104874,0.03887676075100899
1782661072303622000,4.152621826171875,0.0050198594108223915,-0.009983387775719166,0.032419927418231964
1782661072313692000,4.16269189453125,0.00506438547745347,-0.015148431062698364,0.02558881789445877
1782661072323762700,4.1727626953125,0.005680907052010298,-0.014186231419444084,0.01919776387512684
1782661072333832700,4.182832763671875,0.007494461722671986,-0.011929229833185673,0.012756621465086937
1782661072343903700,4.19290380859375,0.004459523595869541,-0.005777327343821526,0.010536609217524529
1782661072353973500,4.202973388671875,0.004647173453122377,-0.0024135871790349483,-0.0008671472314745188
1782661072364044500,4.21304443359375,0.0022849496454000473,-0.011039831675589085,-0.014294005930423737
1782661072374114800,4.22311474609375,0.0018470732029527426,-0.018073445186018944,-0.024555370211601257
1782661072384184800,4.233184814453125,0.0037893166299909353,-0.01931607536971569,-0.02547602541744709
1782661072394255600,4.243255615234375,-0.0004409623797982931,-0.01207068469375372,-0.02295481413602829
1782661072404325600,4.25332568359375,-0.0027358082588762045,-0.014371124096214771,-0.015094228088855743
1782661072414396700,4.263396728515625,-0.004706172272562981,-0.0126976752653718,-0.0014413471799343824
1782661072424467000,4.273467041015625,-0.008300640620291233,-0.007091987878084183,0.011151942424476147
1782661072434536700,4.28353662109375,-0.008013605140149593,-0.004030621610581875,0.01526765339076519
1782661072444607700,4.293607666015625,-0.008669542148709297,-0.014795651659369469,0.01803307980298996
1782661072454677500,4.303677490234375,-0.009344753809273243,-0.01853558048605919,0.019842104986310005
1782661072464748500,4.31374853515625,-0.008683224208652973,-0.01805274933576584,0.022916192188858986
1782661072474818800,4.32381884765625,-0.00470936531201005,-0.025159627199172974,0.028662536293268204
1782661072484888600,4.333888671875,-0.0012584414798766375,-0.025359364226460457,0.03521231189370155
1782661072494959600,4.343959716796875,-0.00017687270883470774,-0.016330638900399208,0.03704968839883804
1782661072505029600,4.354029541015625,-0.0026224534958601,-0.012634171172976494,0.0364275760948658
1782661072515100700,4.3641005859375,0.000011886470019817352,-0.015116848051548004,0.03248337283730507
1782661072525170700,4.374170654296875,-0.00018758431542664766,-0.016026316210627556,0.025160478428006172
1782661072535240700,4.38424072265625,0.0040818373672664165,-0.016987532377243042,0.01832352951169014
1782661072545311700,4.394311767578125,0.006170021835714579,-0.025837482884526253,0.003816758980974555
1782661072555381500,4.404381591796875,0.01526945736259222,-0.029270503669977188,-0.005011558532714844
1782661072565452500,4.41445263671875,0.018394943326711655,-0.02205786108970642,-0.006397733930498362
1782661072575522600,4.4245224609375,0.01509357150644064,-0.016287103295326233,-0.008943230845034122
1782661072585592600,4.434592529296875,0.01579158566892147,-0.01868421398103237,-0.00919782929122448
1782661072595663600,4.44466357421875,0.02162237837910652,-0.015593993477523327,-0.011572419665753841
1782661072605733600,4.454733642578125,0.022723594680428505,-0.0030726101249456406,-0.001685966970399022
1782661072615804700,4.4648046875,0.023343194276094437,0.0004479966592043638,0.00296222697943449
1782661072625874400,4.47487451171875,0.021416395902633667,0.0035138276871293783,0.004125761799514294
1782661072635945500,4.484945556640625,0.02133224532008171,-0.00941360741853714,0.003514119889587164
1782661072646015700,4.495015625,0.022926148027181625,-0.012117248959839344,0.00420041661709547
1782661072656085800,4.505085693359375,0.020925957709550858,-0.003123568370938301,0.005576124880462885
1782661072666156500,4.515156494140625,0.01630483940243721,-0.010628622025251389,0.00419181352481246
1782661072676226600,4.5252265625,0.012479208409786224,-0.0276653952896595,-0.0010527495760470629
1782661072686297600,4.535297607421875,0.00929699745029211,-0.019981643185019493,0.0034900708124041557
1782661072696367600,4.54536767578125,0.0034438990987837315,-0.005953752435743809,0.006339610554277897
1782661072706437600,4.555437744140625,-0.002436094218865037,-0.004376628436148167,0.004700168501585722
1782661072716508700,4.5655087890625,-0.007180831860750914,-0.005725680384784937,0.003265361301600933
1782661072726578700,4.57557861328125,-0.008194430731236935,-0.0036782422102987766,-0.002001039683818817
1782661072736649500,4.5856494140625,-0.01441989466547966,0.00197456032037735,-0.005567568354308605
1782661072746719500,4.595719482421875,-0.00969651248306036,0.0023101186379790306,-0.01471392810344696
1782661072756789800,4.605789794921875,-0.006905197631567717,0.006109097972512245,-0.025746891275048256
1782661072766860800,4.61586083984375,-0.004261743277311325,0.009171467274427414,-0.04335970804095268
1782661072776930600,4.6259306640625,-0.0019950144924223423,0.004615873098373413,-0.05958341434597969
1782661072787001600,4.636001708984375,0.001657244749367237,-0.0000851387158036232,-0.07592777162790298
1782661072797071600,4.646071533203125,0.004342821426689625,-0.008720633573830128,-0.08869967609643936
1782661072807141600,4.6561416015625,0.01156504824757576,-0.01593513786792755,-0.09231651574373245
1782661072817212700,4.666212646484375,0.019512077793478966,-0.02029251679778099,-0.08013114333152771
1782661072827282700,4.67628271484375,0.02718491107225418,-0.022349011152982712,-0.06867022812366486
1782661072837353700,4.686353759765625,0.03726056218147278,-0.024639859795570374,-0.05173118785023689
1782661072847423500,4.696423583984375,0.04262017458677292,-0.02835097350180149,-0.031033633276820183
1782661072857494500,4.70649462890625,0.04997481033205986,-0.030715923756361008,-0.0059840017929673195
1782661072867564800,4.716564697265625,0.05316447839140892,-0.030316714197397232,0.013766533695161343
1782661072877634600,4.726634521484375,0.057392772287130356,-0.02988620661199093,0.03510444983839989
1782661072887705600,4.73670556640625,0.06323281675577164,-0.029935741797089577,0.04497305676341057
1782661072897775600,4.746775634765625,0.06600145250558853,-0.031707994639873505,0.05193811282515526
1782661072907846700,4.7568466796875,0.07204123586416245,-0.03492829203605652,0.05585242807865143
1782661072917916400,4.76691650390625,0.07934793084859848,-0.0392996184527874,0.053972482681274414
1782661072927986700,4.776986572265625,0.08472991734743118,-0.03899575397372246,0.05081050843000412
1782661072938057700,4.7870576171875,0.09343573451042175,-0.045500993728637695,0.04675404354929924
1782661072948127500,4.79712744140625,0.09842969477176666,-0.05612727254629135,0.04745525121688843
1782661072958198500,4.807198486328125,0.10184822976589203,-0.05978471785783768,0.05445604771375656
1782661072968268500,4.8172685546875,0.10281708836555481,-0.05324692279100418,0.06729301810264587
1782661072978338800,4.8273388671875,0.09737125039100647,-0.03964724391698837,0.08086153864860535
1782661072988409600,4.83740966796875,0.0925823524594307,-0.030442826449871063,0.09781575202941895
1782661072998479600,4.847479736328125,0.08140943199396133,-0.022244984284043312,0.10311341285705566
1782661073008550700,4.857550537109375,0.07110779732465744,-0.016131430864334106,0.10050191730260849
1782661073018620700,4.86762060546875,0.05956543609499931,-0.016394613310694695,0.0911853238940239
1782661073028690700,4.877690673828125,0.04846271872520447,-0.009183838032186031,0.08157850056886673
1782661073038761700,4.88776171875,0.039782457053661346,-0.01362533401697874,0.05684557184576988
1782661073048831700,4.897831787109375,0.02782752923667431,-0.027259651571512222,0.03246380016207695
1782661073058902500,4.907902587890625,0.021199187263846397,-0.034673359245061874,0.016175642609596252
1782661073068972500,4.91797265625,0.015117592178285122,-0.04013097658753395,0.0032747576478868723
1782661073079042600,4.92804248046875,0.004895532503724098,-0.02651839330792427,-0.000049294030759483576
1782661073089113600,4.938113525390625,-0.002778898924589157,-0.01779893785715103,-0.004256289452314377
1782661073099183600,4.94818359375,-0.010919165797531605,-0.011074887588620186,-0.007086060009896755
1782661073109254700,4.958254638671875,-0.014083534479141235,-0.005817807279527187,-0.008977437391877174
1782661073119324700,4.96832470703125,-0.018147634342312813,0.0005380950169637799,-0.019533148035407066
1782661073129394400,4.97839453125,-0.02451258897781372,0.004105665720999241,-0.028016913682222366
1782661073139465500,4.988465576171875,-0.02613646909594536,0.005458016414195299,-0.03343004733324051
1782661073149535700,4.99853564453125,-0.027989497408270836,0.010425876826047897,-0.03740934282541275
1782661073159606800,5.008606689453125,-0.031119083985686302,0.01131146028637886,-0.043129999190568924
1782661073169676500,5.018676513671875,-0.028930766507983208,0.00968613289296627,-0.04888375848531723
1782661073179746600,5.02874658203125,-0.024212336167693138,0.015268302522599697,-0.04716290533542633
1782661073189817600,5.038817626953125,-0.02098032273352146,0.019189806655049324,-0.0393902026116848
1782661073199887600,5.0488876953125,-0.013624944724142551,0.018274931237101555,-0.03674470633268356
1782661073209958700,5.058958740234375,-0.006614706479012966,0.018554562702775,-0.030797334387898445
1782661073220028700,5.069028564453125,-0.0037668792065232992,0.025781501084566116,-0.022755732759833336
1782661073230098700,5.0790986328125,-0.00256073335185647,0.02918262407183647,-0.012110546231269836
1782661073240169500,5.08916943359375,-0.0008130554342642426,0.023821638897061348,-0.011577152647078037
1782661073250239500,5.099239501953125,0.005882664583623409,0.012595083564519882,-0.007986946031451225
1782661073260310500,5.109310546875,0.010091731324791908,0.003868949366733432,-0.0043581463396549225
1782661073270380800,5.119380859375,0.014483550563454628,-0.0039146714843809605,-0.006395997013896704
1782661073280450600,5.129450439453125,0.014848342165350914,-0.002334366552531719,-0.002924593398347497
1782661073290521600,5.139521484375,0.010531357489526272,0.003783713560551405,-0.0005509179900400341
1782661073300591600,5.149591552734375,0.003693381790071726,0.01099462527781725,0.003894048510119319
1782661073310662400,5.159662353515625,0.0025988223496824503,0.015992047265172005,-0.0015901990700513124
1782661073320732700,5.169732666015625,0.004260746296495199,0.010914957150816917,-0.006444381084293127
1782661073330802700,5.179802734375,0.007889037020504475,0.005376913584768772,-0.013710816390812397
1782661073340873700,5.189873779296875,0.00897027738392353,0.0056666238233447075,-0.016969768330454826
1782661073350943500,5.199943603515625,0.013107231818139553,0.004584581591188908,-0.020828954875469208
1782661073361014500,5.2100146484375,0.012805008329451084,-0.005755015183240175,-0.027811381965875626
1782661073371084800,5.220084716796875,0.012740826234221458,-0.009885577484965324,-0.03024710714817047
1782661073381155800,5.23015576171875,0.011201628483831882,-0.005313014145940542,-0.025816485285758972
1782661073391225600,5.2402255859375,0.005386881530284882,0.0016056118765845895,-0.026358971372246742
1782661073401295600,5.250295654296875,0.00729445181787014,0.0016698549734428525,-0.02504517324268818
1782661073411366700,5.26036669921875,0.00897277519106865,-0.008700228296220303,-0.023135419934988022
1782661073421436700,5.270436767578125,0.012742645107209682,-0.020313844084739685,-0.019324269145727158
1782661073431507700,5.2805078125,0.014783957973122597,-0.022651566192507744,-0.011761956848204136
1782661073441577700,5.29057763671875,0.018338268622756004,-0.02172986790537834,0.0014198721619322896
1782661073451647500,5.3006474609375,0.022425156086683273,-0.018786542117595673,0.016749825328588486
1782661073461718500,5.310718505859375,0.021877337247133255,-0.01579243130981922,0.02740318328142166
1782661073471788300,5.320788330078125,0.017416270449757576,-0.00877344235777855,0.040548503398895264
1782661073481859300,5.330859375,0.011533082462847233,0.006435338407754898,0.04870283603668213
1782661073491929600,5.3409296875,0.004731428809463978,0.01319552306085825,0.041396211832761765
1782661073501999400,5.350999267578125,0.002248297678306699,0.01208125613629818,0.02601645700633526
1782661073512070400,5.3610703125,-0.004564282018691301,-0.00038905651308596134,0.00311853620223701
1782661073522140400,5.371140380859375,-0.014941820874810219,-0.012385532259941101,-0.01882830820977688
1782661073532210700,5.381210693359375,-0.023457922041416168,-0.006487879436463118,-0.023958275094628334
1782661073542281500,5.391281494140625,-0.02678341045975685,0.004713109694421291,-0.02110576257109642
1782661073552351500,5.4013515625,-0.033201903104782104,0.010191159322857857,-0.020886940881609917
1782661073562422500,5.411422607421875,-0.03878655284643173,0.00912456214427948,-0.01771857775747776
1782661073572492500,5.421492431640625,-0.04758035019040108,0.013004697859287262,-0.014820863492786884
1782661073582563300,5.431563232421875,-0.057494763284921646,0.02238062210381031,-0.013556128367781639
1782661073592633600,5.441633544921875,-0.06394953280687332,0.028002802282571793,-0.020268918946385384
1782661073602703600,5.45170361328125,-0.06611654907464981,0.025440044701099396,-0.027357453480362892
1782661073612774700,5.461774658203125,-0.07531184703111649,0.018310779705643654,-0.041802678257226944
1782661073622844400,5.471844482421875,-0.07900404930114746,0.013977283611893654,-0.04802888259291649
1782661073632915500,5.48191552734375,-0.08200103044509888,0.01763993501663208,-0.04673459753394127
1782661073642985500,5.4919853515625,-0.08211101591587067,0.021768633276224136,-0.04194596782326698
1782661073653055500,5.502055419921875,-0.07847877591848373,0.030719881877303123,-0.04678269475698471
1782661073663126500,5.51212646484375,-0.06899446249008179,0.029956353828310966,-0.05519695207476616
1782661073673196500,5.522196533203125,-0.06444291770458221,0.023555966094136238,-0.059082530438899994
1782661073683267600,5.532267578125,-0.056307755410671234,0.018968671560287476,-0.05466674268245697
1782661073693337300,5.54233740234375,-0.0511518158018589,0.017918027937412262,-0.04858143627643585
1782661073703407600,5.55240771484375,-0.0488164909183979,0.011090483516454697,-0.038073133677244186
1782661073713478700,5.562478759765625,-0.04778707027435303,0.0035563164856284857,-0.02131873555481434
1782661073723548400,5.57254833984375,-0.04467596858739853,0.009974534623324871,-0.010304700583219528
1782661073733618400,5.582618408203125,-0.04261692240834236,0.005498608574271202,-0.009040197357535362
1782661073743689500,5.592689453125,-0.037165433168411255,-0.006523433607071638,-0.007291565649211407
1782661073753759500,5.602759521484375,-0.0325193926692009,0.0033463279251009226,0.006438173819333315
1782661073763830500,5.61283056640625,-0.028432505205273628,0.018060293048620224,0.025507738813757896
1782661073773900500,5.622900634765625,-0.021641220897436142,0.027792148292064667,0.030342327430844307
1782661073783970600,5.632970458984375,-0.016431812196969986,0.028178837150335312,0.029441114515066147
1782661073794041300,5.643041259765625,-0.01560686994343996,0.02371949702501297,0.01683010533452034
1782661073804111400,5.653111328125,-0.014353586360812187,0.02497384510934353,0.006203560158610344
1782661073814182400,5.663182373046875,-0.014060385525226593,0.023972390219569206,0.0015234515303745866
1782661073824252700,5.673252685546875,-0.021953728049993515,0.021674880757927895,-0.005227661691606045
1782661073834322400,5.683322509765625,-0.01799982786178589,0.03091304562985897,-0.0023397807963192463
1782661073844393500,5.6933935546875,-0.025073183700442314,0.043629106134176254,-0.009737775661051273
1782661073854464500,5.703464599609375,-0.04043696075677872,0.1323070377111435,0.04510629549622536
1782661073864534300,5.7135341796875,-0.06808967888355255,0.1182330921292305,0.022869763895869255
1782661073874605300,5.723605224609375,-0.06921380013227463,0.05089613422751427,0.011004315689206123
1782661073884675600,5.733675537109375,-0.06901007890701294,-0.004857977852225304,-0.004982950631529093
1782661073894746600,5.74374658203125,-0.07074245810508728,0.0006821961142122746,-0.014178846031427383
1782661073904816400,5.75381640625,-0.07848000526428223,-0.006865431554615498,-0.04616229981184006
1782661073914886400,5.763886474609375,-0.09137316793203354,-0.005429455544799566,-0.10327405482530594
1782661073924957400,5.77395751953125,-0.0942637100815773,0.011732958257198334,-0.1732233762741089
1782661073935027700,5.78402783203125,-0.09205088764429092,0.021472672000527382,-0.2516830265522003
1782661073945098500,5.794098388671875,-0.07563064247369766,-0.0059451749548316,-0.3493995666503906
1782661073955168500,5.80416845703125,-0.04010993242263794,-0.00825892947614193,-0.4423033893108368
1782661073965238500,5.814238525390625,-0.010889188386499882,0.0520087406039238,-0.4548816680908203
1782661073975309600,5.8243095703125,0.0023115684743970633,0.03643430769443512,-0.4761752486228943
1782661073985379600,5.834379638671875,0.02854173257946968,-0.09595080465078354,-0.5287656784057617
