time,seconds_elapsed,z,y,x
1782661049760692500,0.0786923828125,0.12448666989803314,0.08339164406061172,0.47346019744873047
1782661049770763500,0.088763427734375,0.1416841447353363,0.08383224904537201,0.45150741934776306
1782661049780834600,0.09883447265625,0.15269072353839874,0.05910905823111534,0.4096792936325073
1782661049790904600,0.108904541015625,0.15427204966545105,0.018044402822852135,0.34012269973754883
1782661049800975600,0.1189755859375,0.15615729987621307,-0.0521240308880806,0.26650944352149963
1782661049811045400,0.12904541015625,0.15764997899532318,-0.10255040228366852,0.1873893439769745
1782661049821116400,0.139116455078125,0.1572510302066803,-0.12667278945446014,0.11149165034294128
1782661049831186400,0.1491865234375,0.1539759784936905,-0.14490388333797455,0.03966955095529556
1782661049841257500,0.159257568359375,0.14257551729679108,-0.18225312232971191,-0.028113489970564842
1782661049851327500,0.169327392578125,0.1159939244389534,-0.22015488147735596,-0.07166890054941177
1782661049861398500,0.1793984375,0.08519899100065231,-0.23255616426467896,-0.09831809252500534
1782661049871468500,0.189468505859375,0.05549510195851326,-0.2014644593000412,-0.10634028166532516
1782661049881539600,0.19953955078125,0.030560189858078957,-0.13580210506916046,-0.07776003330945969
1782661049891609300,0.209609375,0.007936777547001839,-0.05974654108285904,-0.03832538053393364
1782661049901680400,0.219680419921875,-0.007813955657184124,-0.008557925000786781,0.003334182547405362
1782661049911751400,0.22975146484375,-0.02117503620684147,0.0037400200963020325,0.029110651463270187
1782661049921821700,0.23982177734375,-0.028322961181402206,-0.0053315055556595325,0.0412440150976181
1782661049931892500,0.249892578125,-0.03478622063994408,-0.017838314175605774,0.05075528100132942
1782661049941962500,0.25996240234375,-0.047723326832056046,-0.007606715429574251,0.05405041202902794
1782661049952033500,0.270033447265625,-0.06107698380947113,0.028081797063350677,0.0605468675494194
1782661049962103300,0.280103271484375,-0.07428839057683945,0.047011010348796844,0.059106096625328064
1782661049972174300,0.29017431640625,-0.07324009388685226,0.04042183607816696,0.05588442087173462
1782661049982244600,0.30024462890625,-0.0666263997554779,0.005365048535168171,0.04278353229165077
1782661049992315600,0.310315673828125,-0.05903831124305725,-0.05199429392814636,0.027944717556238174
1782661050002385400,0.320385498046875,-0.04839099198579788,-0.0749930888414383,0.019036177545785904
1782661050012456400,0.33045654296875,-0.04219796881079674,-0.08383412659168243,0.018081383779644966
1782661050022527500,0.340527587890625,-0.032313380390405655,-0.06401035189628601,0.02351236902177334
1782661050032597500,0.350597412109375,-0.021959301084280014,-0.02719198912382126,0.04655590280890465
1782661050042668500,0.36066845703125,-0.017208488658070564,-0.0017135278321802616,0.0650225281715393
1782661050052738300,0.37073828125,-0.0037092261482030153,-0.009953686967492104,0.07515750080347061
1782661050062809300,0.380809326171875,0.01799793355166912,-0.02925042249262333,0.07456468045711517
1782661050072879600,0.390879638671875,0.040895234793424606,-0.04575173929333687,0.06629396975040436
1782661050082950700,0.40095068359375,0.060451358556747437,-0.0418025366961956,0.06096898019313812
1782661050093020400,0.4110205078125,0.08295456320047379,-0.02250303514301777,0.05934552103281021
1782661050103091500,0.421091552734375,0.10762050002813339,0.005211949348449707,0.06204569712281227
1782661050113161500,0.431161376953125,0.13092492520809174,0.02401011437177658,0.0542280413210392
1782661050123232300,0.441232177734375,0.15752431750297546,0.029952693730592728,0.028325870633125305
1782661050133302500,0.451302490234375,0.18185018002986908,0.02607048489153385,-0.004133481532335281
1782661050143373600,0.46137353515625,0.19824673235416412,0.0309416726231575,-0.0405396930873394
1782661050153444600,0.471444580078125,0.21279945969581604,0.05414756014943123,-0.06411521881818771
1782661050163514400,0.481514404296875,0.22017773985862732,0.0899854525923729,-0.07902812212705612
1782661050173585400,0.49158544921875,0.2204219549894333,0.12424621731042862,-0.09309361129999161
1782661050183655400,0.501655517578125,0.21874496340751648,0.15096625685691833,-0.1130654513835907
1782661050193726500,0.5117265625,0.2155531644821167,0.16566728055477142,-0.13772185146808624
1782661050203796500,0.52179638671875,0.21212247014045715,0.17233584821224213,-0.1676805466413498
1782661050213867500,0.531867431640625,0.20612271130084991,0.17378808557987213,-0.2003762274980545
1782661050223937500,0.5419375,0.19694305956363678,0.1743534654378891,-0.23188115656375885
1782661050234008600,0.552008544921875,0.1780284196138382,0.16607049107551575,-0.25679871439933777
1782661050244078300,0.562078369140625,0.15604588389396667,0.1553025245666504,-0.27755671739578247
1782661050254149400,0.5721494140625,0.136088564991951,0.1512887179851532,-0.28423652052879333
1782661050264219600,0.5822197265625,0.11785044521093369,0.15441392362117767,-0.286462664604187
1782661050274290700,0.592290771484375,0.09881502389907837,0.155632883310318,-0.2805670201778412
1782661050284361500,0.602361572265625,0.0809478759765625,0.11125475913286209,-0.28069007396698
1782661050294431500,0.612431396484375,0.06886499375104904,0.05499698594212532,-0.27437135577201843
1782661050304502500,0.62250244140625,0.05935404449701309,0.019739927724003792,-0.24572932720184326
1782661050314572500,0.632572509765625,0.04562220722436905,0.03360440209507942,-0.1929105967283249
1782661050324643300,0.642643310546875,0.028336426243185997,0.07238002866506577,-0.1402071714401245
1782661050334713300,0.65271337890625,0.008700687438249588,0.10071913152933121,-0.09082677960395813
1782661050344784400,0.662784423828125,-0.008547275327146053,0.10342543572187424,-0.07253298908472061
1782661050354854700,0.672854736328125,-0.021048640832304955,0.09186096489429474,-0.07014583796262741
1782661050364925400,0.682925537109375,-0.03142058849334717,0.06405702978372574,-0.08032550662755966
1782661050374995500,0.692995361328125,-0.03135951980948448,0.04552917182445526,-0.08869720995426178
1782661050385066500,0.70306640625,-0.027597803622484207,0.052763648331165314,-0.09151403605937958
1782661050395137500,0.713137451171875,-0.028783535584807396,0.06155555322766304,-0.09159088879823685
1782661050405207300,0.723207275390625,-0.026255130767822266,0.048700738698244095,-0.10031779855489731
1782661050415278300,0.7332783203125,-0.02715817466378212,0.024769917130470276,-0.11070419102907181
1782661050425349000,0.74334912109375,-0.02608358860015869,0.017887242138385773,-0.11561212688684464
1782661050435420000,0.753419921875,-0.02865576185286045,0.01957276649773121,-0.11695025861263275
1782661050445490000,0.763489990234375,-0.022731294855475426,0.01796315237879753,-0.11150462180376053
1782661050455561000,0.77356103515625,-0.013946927152574062,0.01293176505714655,-0.10635023564100266
1782661050465631000,0.783630859375,-0.0026452704332768917,-0.0020759464241564274,-0.09544405341148376
1782661050475701800,0.79370166015625,0.00439779506996274,-0.01874479465186596,-0.08889652043581009
1782661050485771800,0.803771728515625,0.016262976452708244,-0.02945949137210846,-0.07489921152591705
1782661050495842800,0.8138427734375,0.030084041878581047,-0.03955215588212013,-0.05556950718164444
1782661050505912800,0.823912841796875,0.034279052168130875,-0.052213091403245926,-0.04807111248373985
1782661050515984000,0.83398388671875,0.04110046103596687,-0.06207100674510002,-0.03294669836759567
1782661050526055000,0.844054931640625,0.04344377666711807,-0.0565931536257267,-0.010624350979924202
1782661050536125000,0.854125,0.03808870539069176,-0.054313261061906815,0.009159420616924763
1782661050546196000,0.864196044921875,0.042581457644701004,-0.06765490025281906,0.0355667918920517
1782661050556265700,0.874265625,0.05209355056285858,-0.07587951421737671,0.0623922273516655
1782661050566336800,0.884336669921875,0.06025853380560875,-0.09303559362888336,0.08144475519657135
1782661050576407000,0.894406982421875,0.06380441784858704,-0.10745111852884293,0.09931466728448868
1782661050586478000,0.90447802734375,0.06569340080022812,-0.1125049963593483,0.10990126430988312
1782661050596547800,0.9145478515625,0.06377169489860535,-0.10463448613882065,0.11546269059181213
1782661050606619000,0.924618896484375,0.05968427658081055,-0.09254852682352066,0.11327490955591202
1782661050616689000,0.93468896484375,0.052402812987565994,-0.09390950202941895,0.10342478007078171
1782661050626760000,0.944760009765625,0.051027026027441025,-0.10646790266036987,0.08939284831285477
1782661050636830000,0.954829833984375,0.046544622629880905,-0.11714831739664078,0.07856981456279755
1782661050646901000,0.96490087890625,0.046064719557762146,-0.11833555996417999,0.06829400360584259
1782661050656972000,0.974971923828125,0.04838297888636589,-0.11752046644687653,0.06151119992136955
1782661050667041800,0.985041748046875,0.05526245757937431,-0.10669232159852982,0.06296342611312866
1782661050677112800,0.99511279296875,0.06024184077978134,-0.09948591887950897,0.06945183873176575
1782661050687182800,1.005182861328125,0.055861473083496094,-0.09563259780406952,0.08066774159669876
1782661050697254000,1.01525390625,0.05099238082766533,-0.09578287601470947,0.09430504590272903
1782661050707324000,1.025323974609375,0.043074268847703934,-0.0872008353471756,0.09946438670158386
1782661050717395000,1.03539501953125,0.04097697138786316,-0.07067351788282394,0.09615184366703033
1782661050727465000,1.04546484375,0.03876441717147827,-0.05231981351971626,0.09679152816534042
1782661050737536000,1.055535888671875,0.04282221570611,-0.03886916860938072,0.0941726341843605
1782661050747605800,1.065605712890625,0.044955674558877945,-0.03837301954627037,0.08271730691194534
1782661050757676800,1.0756767578125,0.04789602756500244,-0.056767433881759644,0.0714753121137619
1782661050767746800,1.085746826171875,0.04778390750288963,-0.07514910399913788,0.05949082225561142
1782661050777817900,1.09581787109375,0.04800669848918915,-0.08352484554052353,0.06037509813904762
1782661050787889000,1.105888916015625,0.04313258081674576,-0.06854163855314255,0.0684972032904625
1782661050797959000,1.115958984375,0.034521643072366714,-0.043155789375305176,0.07687801122665405
1782661050808030000,1.126030029296875,0.02396034449338913,-0.025976799428462982,0.0817638486623764
1782661050818100000,1.136099853515625,0.017545543611049652,-0.027841316536068916,0.08132186532020569
1782661050828170800,1.146170654296875,0.01202401053160429,-0.039314210414886475,0.07471403479576111
1782661050838240800,1.15624072265625,0.010109198279678822,-0.04779105260968208,0.07404930889606476
1782661050848311800,1.166311767578125,0.007509154267609119,-0.04406129568815231,0.07579421252012253
1782661050858382000,1.176382080078125,0.00409566517919302,-0.04133804515004158,0.0771528035402298
1782661050868452900,1.186452880859375,-0.009130924940109253,-0.03677019104361534,0.06640587747097015
1782661050878523000,1.19652294921875,-0.018821073696017265,-0.04545900598168373,0.05584036558866501
1782661050888594000,1.206593994140625,-0.025569789111614227,-0.040241606533527374,0.04522207751870155
1782661050898664000,1.216663818359375,-0.03286619856953621,-0.044139258563518524,0.039417777210474014
1782661050908734700,1.226734619140625,-0.03689689189195633,-0.04629428684711456,0.03957490250468254
1782661050918805000,1.236804931640625,-0.04185491055250168,-0.03876442462205887,0.047308776527643204
1782661050928876000,1.2468759765625,-0.0489671491086483,-0.026149295270442963,0.05033678933978081
1782661050938947000,1.256947021484375,-0.05076807364821434,-0.015101687982678413,0.05127113312482834
1782661050949016800,1.267016845703125,-0.05183812975883484,-0.005889547057449818,0.051778730005025864
1782661050959087900,1.277087890625,-0.054763149470090866,-0.0016430001705884933,0.04721231013536453
1782661050969158000,1.287157958984375,-0.056021228432655334,-0.009257776662707329,0.04672442004084587
1782661050979229000,1.29722900390625,-0.05432765185832977,-0.018462596461176872,0.04075830429792404
1782661050989299000,1.307298828125,-0.04787854105234146,-0.025104520842432976,0.03721550107002258
1782661050999370000,1.317369873046875,-0.038627076894044876,-0.018629826605319977,0.03661160171031952
1782661051009440000,1.32743994140625,-0.027602925896644592,-0.01286967471241951,0.03350502625107765
1782661051019511000,1.337510986328125,-0.017948858439922333,-0.01480479072779417,0.02720675803720951
1782661051029580800,1.347580810546875,-0.005501510575413704,-0.024025186896324158,0.022610673680901527
1782661051039651800,1.35765185546875,0.009304391220211983,-0.022847356274724007,0.016648070886731148
1782661051049721900,1.367721923828125,0.023223137483000755,-0.026935573667287827,0.020606325939297676
1782661051059793000,1.37779296875,0.033547304570674896,-0.034831780940294266,0.017092972993850708
1782661051069863000,1.38786279296875,0.04069150239229202,-0.03089483082294464,0.020391564816236496
1782661051079934000,1.397933837890625,0.05020363628864288,-0.026774492114782333,0.022195380181074142
1782661051090005000,1.4080048828125,0.060318052768707275,-0.020636437460780144,0.032807014882564545
1782661051100075000,1.418074951171875,0.06661856919527054,-0.013243082910776138,0.041119854897260666
1782661051110145800,1.428145751953125,0.07579502463340759,-0.014811418950557709,0.04615988954901695
1782661051120215800,1.4382158203125,0.07772258669137955,-0.011544054374098778,0.06066404655575752
1782661051130286800,1.448286865234375,0.07716119289398193,-0.01372571662068367,0.06835499405860901
1782661051140356900,1.45835693359375,0.07106098532676697,-0.014747770503163338,0.07179415225982666
1782661051150428000,1.468427978515625,0.06435994058847427,-0.005553472321480513,0.07272785156965256
1782661051160498000,1.478497802734375,0.060592103749513626,-0.0008556563407182693,0.06974484771490097
1782661051170569000,1.48856884765625,0.056906286627054214,-0.0002034483477473259,0.06477086246013641
1782661051180638700,1.498638671875,0.05480887368321419,-0.014930477365851402,0.06189320608973503
1782661051190709800,1.508709716796875,0.055748969316482544,-0.03778359293937683,0.05656714737415314
1782661051200780000,1.518780029296875,0.048471640795469284,-0.05340585112571716,0.04747990891337395
1782661051210851000,1.52885107421875,0.04532511532306671,-0.06812088191509247,0.03781316801905632
1782661051220920800,1.5389208984375,0.04019411653280258,-0.07670334726572037,0.034077975898981094
1782661051230992000,1.548991943359375,0.03518311306834221,-0.08634425699710846,0.03489130362868309
1782661051241063000,1.55906298828125,0.030641335994005203,-0.08866079151630402,0.03779734671115875
1782661051251133000,1.5691328125,0.029793119058012962,-0.0791730135679245,0.04531705006957054
1782661051261204000,1.579203857421875,0.03023259900510311,-0.06595396250486374,0.05823332816362381
1782661051271273700,1.589273681640625,0.026208030059933662,-0.05604514107108116,0.06457564979791641
1782661051281344800,1.5993447265625,0.016279561445116997,-0.046451810747385025,0.07654228806495667
1782661051291415000,1.6094150390625,0.006455160211771727,-0.037369366735219955,0.08434081822633743
1782661051301485800,1.61948583984375,-0.0022015224676579237,-0.02089189551770687,0.07988861203193665
1782661051311555800,1.629555908203125,-0.006977102719247341,-0.014065150171518326,0.06330537050962448
1782661051321627000,1.639626953125,-0.013231104239821434,-0.018403856083750725,0.0397188737988472
1782661051331697000,1.64969677734375,-0.013416726142168045,-0.02608121745288372,0.013956518843770027
1782661051341767700,1.659767578125,-0.013256512582302094,-0.02591630071401596,-0.0045533617958426476
1782661051351838000,1.669837890625,-0.016100237146019936,-0.01339225098490715,-0.014130355790257454
1782661051361909000,1.679908935546875,-0.01994214951992035,0.0019658696837723255,-0.019534392282366753
1782661051371979000,1.68997900390625,-0.021552562713623047,0.007427214179188013,-0.025735296308994293
1782661051382049800,1.7000498046875,-0.01937023736536503,0.008592657744884491,-0.03857508301734924
1782661051392119800,1.710119873046875,-0.016646090894937515,0.018236763775348663,-0.06219359487295151
1782661051402190800,1.72019091796875,-0.00797953736037016,0.031012993305921555,-0.07747597992420197
1782661051412262000,1.730261962890625,-0.004727019462734461,0.03857610747218132,-0.0808962732553482
1782661051422332000,1.740331787109375,-0.0016619658563286066,0.027201330289244652,-0.07221890240907669
1782661051432403700,1.75040380859375,0.002246222924441099,0.002049637958407402,-0.052750665694475174
1782661051442474000,1.760473876953125,0.0004972100141458213,-0.013084941543638706,-0.029387976974248886
1782661051452545000,1.770544921875,-0.007048856467008591,-0.015502558089792728,-0.007764706388115883
1782661051462614800,1.78061474609375,-0.012578222900629044,-0.015143219381570816,0.011887707747519016
1782661051472685800,1.790685791015625,-0.02831484191119671,-0.01960747502744198,0.028334591537714005
1782661051482755800,1.800755859375,-0.03576722368597984,-0.01961742714047432,0.04889979958534241
1782661051492827000,1.810826904296875,-0.038791775703430176,-0.012067364528775215,0.08018501847982407
1782661051502897000,1.82089697265625,-0.04106440022587776,-0.0026573357172310352,0.11038120836019516
1782661051512968000,1.830968017578125,-0.04554996266961098,0.006078897975385189,0.1359744369983673
1782661051523038000,1.841037841796875,-0.04838813468813896,0.011446519754827023,0.14527848362922668
1782661051533109000,1.85110888671875,-0.05432458966970444,0.013732310384511948,0.14269627630710602
1782661051543178800,1.8611787109375,-0.055184993892908096,0.010417923331260681,0.1246064305305481
1782661051553249800,1.871249755859375,-0.05768463760614395,0.0028518831823021173,0.09863795340061188
1782661051563320800,1.88132080078125,-0.050073232501745224,-0.008058574050664902,0.07252289354801178
1782661051573390800,1.891390869140625,-0.042509324848651886,-0.02092617005109787,0.05651303008198738
1782661051583462000,1.9014619140625,-0.03603816032409668,-0.036053724586963654,0.052919454872608185
1782661051593532000,1.911531982421875,-0.031209582462906837,-0.03525690734386444,0.056602608412504196
1782661051603603000,1.92160302734375,-0.02963685430586338,-0.03248371556401253,0.07048764079809189
1782661051613672700,1.931672607421875,-0.03214315325021744,-0.02293921262025833,0.08574195951223373
1782661051623743700,1.94174365234375,-0.03545854613184929,-0.007970239967107773,0.10580302774906158
1782661051633813800,1.951813720703125,-0.03668093681335449,0.0030858737882226706,0.12636981904506683
1782661051643884800,1.961884765625,-0.03412175178527832,0.0027533273678272963,0.13802902400493622
1782661051653954800,1.971954833984375,-0.03575906157493591,0.014016901142895222,0.15652894973754883
1782661051664025900,1.98202587890625,-0.042677272111177444,0.023548869416117668,0.16461730003356934
1782661051674095900,1.992095947265625,-0.052619386464357376,0.03065631352365017,0.168270081281662
1782661051684167000,2.0021669921875,-0.06404995173215866,0.03766261413693428,0.16839610040187836
1782661051694236700,2.012236572265625,-0.07604243606328964,0.035280950367450714,0.16658514738082886
1782661051704307700,2.0223076171875,-0.08782083541154861,0.02553238719701767,0.1684134602546692
1782661051714378000,2.0323779296875,-0.08753693848848343,0.014099170453846455,0.17694516479969025
1782661051724449000,2.042448974609375,-0.0971931517124176,-0.0023904265835881233,0.18451184034347534
1782661051734518800,2.052518798828125,-0.1133902296423912,-0.005362248048186302,0.18401968479156494
1782661051744589800,2.06258984375,-0.13614681363105774,-0.0003024053294211626,0.17022041976451874
1782661051754660900,2.072660888671875,-0.16403278708457947,0.005187168717384338,0.14565755426883698
1782661051764731000,2.08273095703125,-0.18966351449489594,0.02473495528101921,0.11925890296697617
1782661051774801700,2.0928017578125,-0.21569138765335083,0.04909409210085869,0.09694214910268784
1782661051784872000,2.102871826171875,-0.23314066231250763,0.06979283690452576,0.06399431079626083
1782661051794943000,2.11294287109375,-0.24336934089660645,0.08212247490882874,0.027558807283639908
1782661051805013000,2.123012939453125,-0.25370776653289795,0.09403359889984131,-0.013879973441362381
1782661051815083800,2.133083740234375,-0.25474053621292114,0.09785391390323639,-0.05468812212347984
1782661051825153800,2.14315380859375,-0.2538992464542389,0.101416677236557,-0.09458786994218826
1782661051835224800,2.153224853515625,-0.2538808584213257,0.10521382093429565,-0.1294156163930893
1782661051845294800,2.163294921875,-0.250848650932312,0.10679049044847488,-0.16097880899906158
1782661051855365600,2.17336572265625,-0.24589115381240845,0.10629008710384369,-0.1820252388715744
1782661051865436000,2.183435791015625,-0.24268598854541779,0.10757391154766083,-0.19662661850452423
1782661051875507000,2.1935068359375,-0.23361952602863312,0.10597868263721466,-0.195429265499115
1782661051885577000,2.203576904296875,-0.2260018140077591,0.11512237787246704,-0.1831531524658203
1782661051895647700,2.213647705078125,-0.21131688356399536,0.13645055890083313,-0.15274065732955933
1782661051905717800,2.2237177734375,-0.18904656171798706,0.1527153104543686,-0.12334217876195908
1782661051915788800,2.233788818359375,-0.16304638981819153,0.16421324014663696,-0.0941411554813385
1782661051925858800,2.24385888671875,-0.13844400644302368,0.16740289330482483,-0.07442720234394073
1782661051935929900,2.253929931640625,-0.1196516826748848,0.15535688400268555,-0.06964123994112015
1782661051946000000,2.263999755859375,-0.10080977529287338,0.131828173995018,-0.07801719754934311
1782661051956071000,2.27407080078125,-0.08007200807332993,0.1071673035621643,-0.08027981966733932
1782661051966140700,2.284140625,-0.05824662372469902,0.0792156308889389,-0.08643940091133118
1782661051976211700,2.294211669921875,-0.037758659571409225,0.051494259387254715,-0.09089140594005585
1782661051986282800,2.30428271484375,-0.016733495518565178,0.030137628316879272,-0.08584503084421158
1782661051996353000,2.31435302734375,0.00025081384228542447,0.013432418927550316,-0.07692290842533112
1782661052006424000,2.324424072265625,0.015172677114605904,-0.0007033518049865961,-0.06507493555545807
1782661052016493800,2.334493896484375,0.027220817282795906,-0.012775460258126259,-0.053981006145477295
1782661052026564900,2.34456494140625,0.03296995535492897,-0.004200324881821871,-0.032726481556892395
1782661052036635000,2.354634765625,0.03278539702296257,0.0068762945011258125,-0.009748193435370922
1782661052046706000,2.364705810546875,0.028110578656196594,0.013760542497038841,0.004650083836168051
1782661052056776000,2.37477587890625,0.020222563296556473,0.017349418252706528,0.002439926378428936
1782661052066846700,2.3848466796875,0.011912815272808075,0.00224034464918077,-0.007774470839649439
1782661052076917000,2.3949169921875,0.0090813422575593,0.0037775211967527866,-0.012304508127272129
1782661052086987800,2.40498779296875,0.001049134531058371,0.007916235364973545,-0.022031327709555626
1782661052097057800,2.415057861328125,-0.009084992110729218,0.0008300964254885912,-0.031006446108222008
1782661052107128800,2.42512890625,-0.010412577539682388,0.0024618152529001236,-0.038391128182411194
1782661052117198800,2.43519873046875,-0.010989950969815254,-0.0002985512837767601,-0.04913724958896637
1782661052127269600,2.44526953125,-0.00999784842133522,0.011507628485560417,-0.05411719158291817
1782661052137340000,2.45533984375,-0.01048307679593563,0.027067679911851883,-0.05688501521945
1782661052147411000,2.465410888671875,-0.0111492108553648,0.031617116183042526,-0.05972335487604141
1782661052157481000,2.47548095703125,-0.01484967302531004,0.04572521150112152,-0.053658004850149155
1782661052167551700,2.4855517578125,-0.015540380030870438,0.06099367141723633,-0.0455775111913681
1782661052177621800,2.495621826171875,-0.02254263125360012,0.07394169270992279,-0.0409390814602375
1782661052187692800,2.50569287109375,-0.02646384947001934,0.07328861951828003,-0.05353161692619324
1782661052197763000,2.51576318359375,-0.024792449548840523,0.05871500447392464,-0.07183472067117691
1782661052207833900,2.525833740234375,-0.025869756937026978,0.04191187396645546,-0.08792868256568909
1782661052217903900,2.53590380859375,-0.02631050907075405,0.03623853996396065,-0.08938863128423691
1782661052227975000,2.545974853515625,-0.030707769095897675,0.04473011940717697,-0.08239235728979111
1782661052238046000,2.5560458984375,-0.04091193526983261,0.05201945826411247,-0.0742952823638916
1782661052248115700,2.56611572265625,-0.03953072801232338,0.06494796276092529,-0.06036089360713959
1782661052258186800,2.576186767578125,-0.03994857892394066,0.07462375611066818,-0.04583148658275604
1782661052268257000,2.586257080078125,-0.03661724552512169,0.07899626344442368,-0.03237372636795044
1782661052278328000,2.596328125,-0.03597968444228172,0.08737163990736008,-0.015605401247739792
1782661052288397800,2.606397705078125,-0.04059794917702675,0.09917578101158142,-0.004369728267192841
1782661052298468900,2.61646875,-0.04324912652373314,0.11303380876779556,-0.0009941714815795422
1782661052308539000,2.626538818359375,-0.047324009239673615,0.11829827725887299,-0.00487577123567462
1782661052318610000,2.63660986328125,-0.051670823246240616,0.11149124056100845,-0.021711742505431175
1782661052328679700,2.6466796875,-0.04841428995132446,0.09829161316156387,-0.036565493792295456
1782661052338750700,2.656750732421875,-0.0464632585644722,0.07302381098270416,-0.0589861162006855
1782661052348821000,2.666821044921875,-0.04580840840935707,0.04482634365558624,-0.07116791605949402
1782661052358892000,2.67689208984375,-0.044028084725141525,0.028426596894860268,-0.08086688071489334
1782661052368961800,2.6869619140625,-0.04419165849685669,0.03309817612171173,-0.07045388966798782
1782661052379032800,2.69703271484375,-0.045781563967466354,0.04029669985175133,-0.0502876378595829
1782661052389102800,2.707102783203125,-0.04918588325381279,0.043526314198970795,-0.027938922867178917
1782661052399173600,2.717173583984375,-0.047364816069602966,0.04018750786781311,-0.01435653492808342
1782661052409244000,2.727243896484375,-0.04500722885131836,0.02944820746779442,-0.0005713709397241473
1782661052419315000,2.73731494140625,-0.03713785484433174,0.023108553141355515,0.008340098895132542
1782661052429383200,2.747383056640625,-0.031548872590065,0.02176344022154808,0.019423579797148705
1782661052439454200,2.7574541015625,-0.021337779238820076,0.02645460143685341,0.030506057664752007
1782661052449524200,2.767524169921875,-0.013808907009661198,0.03555798530578613,0.03589162603020668
1782661052459595300,2.77759521484375,-0.010130016133189201,0.036401405930519104,0.03613929823040962
1782661052469665300,2.787665283203125,-0.002964762970805168,0.031382542103528976,0.029271267354488373
1782661052479736300,2.797736328125,0.004903546534478664,0.022244703024625778,0.017246829345822334
1782661052489806000,2.80780615234375,0.01118843350559473,0.022523723542690277,0.0151164960116148
1782661052499877000,2.817877197265625,0.009544197469949722,0.025478500872850418,0.014524208381772041
1782661052509947400,2.827947509765625,0.005815850105136633,0.024389903992414474,0.018032297492027283
1782661052520018400,2.838018310546875,0.0039921170100569725,0.0254351943731308,0.01898517645895481
1782661052530089200,2.848089111328125,-0.00016914750449359417,0.027985388413071632,0.021570101380348206
1782661052540159200,2.8581591796875,-0.006708006840199232,0.02923467755317688,0.017358578741550446
1782661052550230300,2.868230224609375,-0.006438039243221283,0.028145067393779755,0.009079438634216785
1782661052560300000,2.878300048828125,-0.0044555822387337685,0.020793411880731583,-0.011926510371267796
1782661052570371000,2.88837109375,0.003010131884366274,0.001869576284661889,-0.03794752061367035
1782661052580441300,2.89844140625,0.016557898372411728,-0.015413274057209492,-0.06601350754499435
1782661052590512400,2.908512451171875,0.025880616158246994,-0.02669396996498108,-0.07941112667322159
1782661052600582100,2.91858203125,0.03306209668517113,-0.01929810643196106,-0.07996693253517151
1782661052610653200,2.928653076171875,0.04102806746959686,-0.009986151941120625,-0.06963779777288437
1782661052620723200,2.93872314453125,0.04404143616557121,-0.00547422468662262,-0.062265634536743164
1782661052630794200,2.948794189453125,0.048078425228595734,0.0005996733671054244,-0.05487765744328499
1782661052640864300,2.9588642578125,0.049239832907915115,0.00478696171194315,-0.05388003587722778
1782661052650935300,2.968935302734375,0.05183662474155426,0.00046579644549638033,-0.05481022596359253
1782661052661005300,2.97900537109375,0.05305182561278343,-0.002921478357166052,-0.055367361754179
1782661052671076400,2.989076416015625,0.0534592866897583,-0.01105344109237194,-0.05601690709590912
1782661052681146000,2.99914599609375,0.054571956396102905,-0.0161677747964859,-0.056773509830236435
1782661052691217200,3.009217041015625,0.05259793996810913,-0.0259145125746727,-0.057260509580373764
1782661052701287200,3.019287109375,0.04866471886634827,-0.040159497410058975,-0.05572785809636116
1782661052711358200,3.029358154296875,0.04725456237792969,-0.04717700555920601,-0.048469968140125275
1782661052721428200,3.03942822265625,0.04057535529136658,-0.06043075770139694,-0.03092506341636181
1782661052731499300,3.049499267578125,0.03844112902879715,-0.06648439913988113,-0.011857644654810429
1782661052741569300,3.0595693359375,0.03762407228350639,-0.06426997482776642,0.00808650255203247
1782661052751640300,3.069640380859375,0.03136157616972923,-0.06274589896202087,0.02900463156402111
1782661052761710000,3.0797099609375,0.022842656821012497,-0.06911937892436981,0.041591793298721313
1782661052771781000,3.089781005859375,0.01610131934285164,-0.050207849591970444,0.059593793004751205
1782661052781851400,3.099851318359375,0.012013633735477924,-0.03967051953077316,0.07755068689584732
1782661052791922400,3.10992236328125,0.006234058178961277,-0.034886810928583145,0.08683019876480103
1782661052801992200,3.1199921875,0.0036673033609986305,-0.03798007220029831,0.08445492386817932
1782661052812063200,3.130063232421875,0.0044835275039076805,-0.04418310895562172,0.07100757956504822
1782661052822133200,3.14013330078125,0.008901179768145084,-0.06206011027097702,0.056114912033081055
1782661052832204300,3.150204345703125,0.009380639530718327,-0.07360738515853882,0.04087809845805168
1782661052842274300,3.1602744140625,0.006975006312131882,-0.07367876172065735,0.027941260486841202
1782661052852345300,3.170345458984375,0.00426386808976531,-0.06870722770690918,0.019288694486021996
1782661052862415400,3.180415283203125,0.0015013711526989937,-0.06339608132839203,0.013970362022519112
1782661052872486100,3.190486083984375,-0.0036541856825351715,-0.05353367328643799,0.009611777029931545
1782661052882556200,3.20055615234375,-0.008075831457972527,-0.04707896709442139,0.007368862628936768
1782661052892627200,3.210627197265625,-0.015465588308870792,-0.040557291358709335,-0.0003244666731916368
1782661052902697200,3.220697265625,-0.025158429518342018,-0.03824593499302864,-0.01244424656033516
1782661052912768000,3.23076806640625,-0.034584056586027145,-0.04227719455957413,-0.027600131928920746
1782661052922839000,3.240839111328125,-0.04014100879430771,-0.04345537722110748,-0.03417094796895981
1782661052932909300,3.250909423828125,-0.03810329735279083,-0.046875160187482834,-0.036363385617733
1782661052942980400,3.26098046875,-0.03814297541975975,-0.04444848746061325,-0.03243229165673256
1782661052953050000,3.271050048828125,-0.034078098833560944,-0.0461241789162159,-0.032597240060567856
1782661052963121200,3.28112109375,-0.033486612141132355,-0.04110971465706825,-0.03261082246899605
1782661052973191200,3.291191162109375,-0.03133641555905342,-0.03856430947780609,-0.03106188401579857
1782661052983262200,3.30126220703125,-0.028882311657071114,-0.04518146812915802,-0.033499207347631454
1782661052993332200,3.311332275390625,-0.025779783725738525,-0.04407244920730591,-0.03317504748702049
1782661053003403300,3.3214033203125,-0.02948370948433876,-0.038515761494636536,-0.028314776718616486
1782661053013473300,3.331473388671875,-0.03169936314225197,-0.03465713933110237,-0.028218470513820648
1782661053023544300,3.34154443359375,-0.034148141741752625,-0.022654537111520767,-0.021825019270181656
1782661053033614000,3.351614013671875,-0.039897382259368896,-0.011177459731698036,-0.02046709693968296
1782661053043685000,3.36168505859375,-0.04672865942120552,0.0006749385502189398,-0.021159252151846886
1782661053053755400,3.37175537109375,-0.06007886305451393,0.006104218307882547,-0.03214151784777641
1782661053063826400,3.381826416015625,-0.06549093872308731,0.0026506311260163784,-0.03851019963622093
1782661053073896200,3.391896240234375,-0.06925811618566513,0.0013528954004868865,-0.035414159297943115
1782661053083967200,3.40196728515625,-0.06883333623409271,0.005484523251652718,-0.029618851840496063
1782661053094037200,3.412037353515625,-0.06536002457141876,0.009844785556197166,-0.030074527487158775
1782661053104108300,3.4221083984375,-0.06567215174436569,0.005505165085196495,-0.03454171493649483
1782661053114178300,3.43217822265625,-0.06548365950584412,0.001681709080003202,-0.036385610699653625
1782661053124249300,3.442249267578125,-0.05935732275247574,-0.004447289742529392,-0.044560182839632034
1782661053134319400,3.4523193359375,-0.0536748543381691,-0.0065806545317173,-0.04360499605536461
1782661053144390100,3.46239013671875,-0.04336069896817207,-0.011841196566820145,-0.04223000630736351
1782661053154460200,3.472460205078125,-0.03290566802024841,-0.013695581816136837,-0.03287003934383392
1782661053164531200,3.48253125,-0.027506645768880844,-0.012640437111258507,-0.027141844853758812
1782661053174601200,3.492601318359375,-0.020038440823554993,-0.012284405529499054,-0.020329684019088745
1782661053184672000,3.502672119140625,-0.015123844146728516,-0.004334870260208845,-0.011627006344497204
1782661053194742300,3.5127421875,-0.0005491904448717833,0.005040299147367477,0.0035456172190606594
1782661053204813300,3.522813232421875,0.001795989228412509,0.014605041593313217,0.023764602839946747
1782661053214883300,3.53288330078125,0.017232591286301613,0.01275642029941082,0.035874124616384506
1782661053224954000,3.5429541015625,0.02648787386715412,0.015361791476607323,0.039725590497255325
1782661053235024100,3.553024169921875,0.037186793982982635,0.0213017500936985,0.04418220371007919
1782661053245095200,3.56309521484375,0.04189392924308777,0.020968586206436157,0.044913772493600845
1782661053255165400,3.57316552734375,0.045139845460653305,0.02941073104739189,0.04313312843441963
1782661053265236200,3.583236328125,0.04806932434439659,0.03278548642992973,0.02850891277194023
1782661053275306200,3.59330615234375,0.04739273712038994,0.030198369175195694,0.009568377397954464
1782661053285377300,3.603377197265625,0.054169680923223495,0.018954502418637276,-0.008898514322936535
1782661053295447000,3.613447021484375,0.06244055554270744,0.008814254775643349,-0.027710428461432457
1782661053305518000,3.62351806640625,0.0665346309542656,0.00014699692837893963,-0.03406500071287155
1782661053315588400,3.63358837890625,0.06409849971532822,-0.004604480229318142,-0.03901967406272888
1782661053325659400,3.643659423828125,0.06163240969181061,0.0025756685063242912,-0.03479243814945221
1782661053335729200,3.653729248046875,0.056133318692445755,0.004002121277153492,-0.02437182329595089
1782661053345800200,3.66380029296875,0.05244963616132736,0.009475450031459332,-0.011057882569730282
1782661053355870200,3.6738701171875,0.04659435525536537,0.016281768679618835,0.005215952172875404
1782661053365941200,3.683941162109375,0.045043326914310455,0.019697537645697594,0.01467177178710699
1782661053376011000,3.694010986328125,0.036350786685943604,0.021882805973291397,0.026325220242142677
1782661053386082000,3.70408203125,0.029917387291789055,0.022816777229309082,0.03170240670442581
1782661053396152300,3.71415234375,0.01931222900748253,0.021734558045864105,0.03234121575951576
1782661053406223400,3.724223388671875,0.010606089606881142,0.01930202730000019,0.028140077367424965
1782661053416293000,3.734293212890625,0.0013333417009562254,0.01957031711935997,0.022516967728734016
1782661053426364700,3.74436474609375,-0.006958410143852234,0.02377438358962536,0.013398037292063236
1782661053436434700,3.7544345703125,-0.015724390745162964,0.025840027257800102,0.0019231860060244799
1782661053446505700,3.764505615234375,-0.02580818347632885,0.024420563131570816,-0.010318299755454063
1782661053456575700,3.77457568359375,-0.02753574401140213,0.01779117062687874,-0.03139511123299599
1782661053466646800,3.784646728515625,-0.03584533929824829,0.02081412449479103,-0.04431277513504028
1782661053476716800,3.794716796875,-0.038569219410419464,0.0172678604722023,-0.04934561625123024
1782661053486787800,3.804787841796875,-0.04472671449184418,0.015193789266049862,-0.051665496081113815
1782661053496857600,3.814857666015625,-0.04977095127105713,0.022169329226017,-0.04790490120649338
1782661053506928600,3.8249287109375,-0.05279763415455818,0.030414476990699768,-0.04080065339803696
1782661053516998700,3.83499853515625,-0.05586433783173561,0.031916700303554535,-0.03668999671936035
1782661053527069700,3.845069580078125,-0.05840472877025604,0.030961424112319946,-0.029377223923802376
1782661053537139700,3.8551396484375,-0.053590863943099976,0.026959814131259918,-0.015216588042676449
1782661053547210800,3.865210693359375,-0.04843232035636902,0.02503221668303013,-0.003662463743239641
1782661053557280800,3.87528076171875,-0.037233419716358185,0.008808016777038574,0.004925655201077461
1782661053567351800,3.885351806640625,-0.026264924556016922,0.002693932270631194,0.013450966216623783
1782661053577421600,3.895421630859375,-0.018047796562314034,-0.003956702537834644,0.020181627944111824
1782661053587492600,3.90549267578125,-0.011789634823799133,-0.0113341910764575,0.023192331194877625
1782661053597563000,3.91556298828125,-0.00589036988094449,-0.016890376806259155,0.029047193005681038
1782661053607634000,3.925634033203125,0.0005699262255802751,-0.017482131719589233,0.036258768290281296
1782661053617703700,3.93570361328125,0.002365470165386796,-0.010416453704237938,0.04319759085774422
1782661053627774700,3.945774658203125,0.0024259239435195923,-0.004562292713671923,0.04549190402030945
1782661053637844700,3.9558447265625,0.010386870242655277,-0.001724473899230361,0.04512310028076172
1782661053647915800,3.965915771484375,0.012601022608578205,-0.002631546463817358,0.03815120831131935
1782661053657985800,3.97598583984375,0.018536031246185303,-0.006233582738786936,0.02795461006462574
1782661053668056800,3.986056884765625,0.02129266783595085,-0.014474201947450638,0.015839623287320137
1782661053678126800,3.996126953125,0.029653187841176987,-0.017546236515045166,0.014118100516498089
1782661053688197600,4.00619775390625,0.028963161632418633,-0.016949955374002457,0.01644650287926197
1782661053698267600,4.016267578125,0.028627507388591766,-0.021907128393650055,0.01009735930711031
1782661053708338700,4.026338623046875,0.030177731066942215,-0.019015202298760414,0.004984356462955475
1782661053718408700,4.03640869140625,0.024850724264979362,-0.013724722899496555,0.0028467916417866945
1782661053728479700,4.046479736328125,0.02362620271742344,-0.00951426476240158,0.0075267646461725235
1782661053738549800,4.0565498046875,0.01956978626549244,0.0025739355478435755,0.017548928037285805
1782661053748620800,4.066620849609375,0.01944781467318535,0.007410768419504166,0.029993614181876183
1782661053758690800,4.07669091796875,0.017580615356564522,0.01027827151119709,0.03957651928067207
1782661053768761600,4.08676171875,0.01979982852935791,0.004365520551800728,0.04345754534006119
1782661053778831600,4.09683154296875,0.025995377451181412,-0.004287781659513712,0.04804646596312523
1782661053788902700,4.106902587890625,0.03193742409348488,-0.014717785641551018,0.04650023579597473
1782661053798972700,4.11697265625,0.0327143520116806,-0.031280964612960815,0.04093627259135246
1782661053809043700,4.127043701171875,0.031518857926130295,-0.03772954270243645,0.04577923193573952
1782661053819113700,4.13711376953125,0.02788807451725006,-0.026094159111380577,0.0550716333091259
1782661053829184800,4.147184814453125,0.026178324595093727,-0.021703671663999557,0.06330373138189316
1782661053839254500,4.157254638671875,0.02337820641696453,-0.015960635617375374,0.07141339033842087
1782661053849325600,4.16732568359375,0.023832540959119797,-0.0037276707589626312,0.08003591001033783
1782661053859395800,4.177395751953125,0.02357167750597,-0.0024480298161506653,0.0789841040968895
1782661053869467000,4.187466796875,0.0219359640032053,-0.0023774560540914536,0.07480959594249725
1782661053879536600,4.19753662109375,0.022392205893993378,-0.00041120173409581184,0.06592471897602081
1782661053889607700,4.207607666015625,0.020078983157873154,0.0012356970692053437,0.05313408374786377
1782661053899677700,4.217677734375,0.022948862984776497,0.0033760019578039646,0.04019426181912422
1782661053909748700,4.227748779296875,0.024608278647065163,-0.006072893273085356,0.02063414454460144
1782661053919818800,4.23781884765625,0.02478710189461708,-0.009956853464245796,0.0040505132637917995
1782661053929889800,4.247889892578125,0.024089086800813675,-0.0097374077886343,-0.004320601001381874
1782661053939959800,4.257959716796875,0.02182946354150772,-0.009941202588379383,-0.0077684009447693825
1782661053950030800,4.26803076171875,0.020044347271323204,-0.005933677777647972,-0.005163030698895454
1782661053960100600,4.2781005859375,0.018981633707880974,0.0012913673417642713,0.003991164267063141
1782661053970171600,4.288171630859375,0.01546519622206688,0.006458166055381298,0.009934807196259499
1782661053980241700,4.29824169921875,0.014920328743755817,0.005882002413272858,0.007082283031195402
1782661053990312700,4.308312744140625,0.010189223103225231,0.00020973559003323317,0.0008763189543969929
1782661054000382700,4.3183828125,0.010993624106049538,0.002067017136141658,0.0008674053242430091
1782661054010453800,4.328453857421875,0.006975180935114622,0.007699070032685995,0.004205411300063133
1782661054020523800,4.338523681640625,0.00782189704477787,0.002713596448302269,-0.007477175444364548
1782661054030594800,4.3485947265625,0.002522739814594388,-0.0053698960691690445,-0.014930831268429756
1782661054040664600,4.35866455078125,0.000404041085857898,-0.0032405867241322994,-0.0218514334410429
1782661054050735600,4.368735595703125,-0.001289463136345148,0.00707649951800704,-0.02023356407880783
1782661054060806000,4.378805908203125,-0.005546343978494406,0.012770258821547031,-0.013175570406019688
1782661054070877000,4.388876953125,-0.009312853217124939,0.010607772506773472,-0.019505638629198074
1782661054080946700,4.39894677734375,-0.007484284229576588,0.013092540204524994,-0.015584972687065601
1782661054091017700,4.409017822265625,-0.006725016515702009,0.018458010628819466,-0.0062905410304665565
1782661054101087700,4.419087646484375,-0.005459875334054232,0.024785686284303665,-0.0021484005264937878
1782661054111158500,4.429158447265625,-0.002418012823909521,0.026062672957777977,-0.007640637923032045
1782661054121228800,4.439228759765625,-0.00011485489085316658,0.022137893363833427,-0.019802549853920937
1782661054131299800,4.4492998046875,0.00014879804803058505,0.014836039394140244,-0.030072765424847603
1782661054141369900,4.459369873046875,0.006849171128123999,0.0031399645376950502,-0.033405303955078125
1782661054151440600,4.469440673828125,0.0076752835884690285,-0.006698817480355501,-0.03411423787474632
1782661054161510700,4.4795107421875,0.010760737583041191,-0.013921796344220638,-0.026764895766973495
1782661054171581700,4.489581787109375,0.00840863399207592,-0.0034113647416234016,-0.0044081914238631725
1782661054181651700,4.499651611328125,0.004840376321226358,0.0006010658107697964,0.016101766377687454
1782661054191722800,4.50972265625,-0.0017743830103427172,-0.0009853793308138847,0.029179485514760017
1782661054201792800,4.519792724609375,-0.004119240213185549,-0.0022493931464850903,0.03952793776988983
1782661054211863800,4.52986376953125,-0.007226084358990192,-0.0020776190795004368,0.04554508626461029
1782661054221933800,4.539933837890625,-0.012572870589792728,-0.0012915350962430239,0.037393372505903244
1782661054232004600,4.550004638671875,-0.014698872342705727,0.0004839944886043668,0.02955382503569126
1782661054242074600,4.56007470703125,-0.01628847047686577,0.00046725396532565355,0.021901722997426987
1782661054252145700,4.570145751953125,-0.017575308680534363,-0.005013797897845507,0.006269766949117184
1782661054262215700,4.580215576171875,-0.018624287098646164,-0.006389548536390066,-0.004002353176474571
1782661054272286700,4.59028662109375,-0.016760341823101044,-0.0004714720416814089,-0.01070126798003912
1782661054282356700,4.600356689453125,-0.014574795961380005,0.0011225830530747771,-0.016991809010505676
1782661054292427800,4.610427734375,-0.013450942002236843,0.0017148699844256043,-0.02139907516539097
1782661054302497500,4.62049755859375,-0.01665552519261837,0.010994122363626957,-0.027919292449951172
1782661054312568600,4.630568603515625,-0.01756153255701065,0.01179386954754591,-0.03325706720352173
1782661054322638800,4.640638916015625,-0.02027638629078865,0.01204538531601429,-0.035696759819984436
1782661054332710000,4.6507099609375,-0.025420282036066055,0.011482657864689827,-0.04132002592086792
1782661054342779600,4.660779541015625,-0.025632493197917938,0.005175798665732145,-0.04316936433315277
1782661054352850700,4.6708505859375,-0.018737036734819412,0.0027153040282428265,-0.04466446116566658
1782661054362920700,4.680920654296875,-0.022179270163178444,0.00148549466393888,-0.042228907346725464
1782661054372991700,4.69099169921875,-0.02294865809381008,0.0018777783261612058,-0.0312444306910038
1782661054383061800,4.701061767578125,-0.023760711774230003,0.0007577281212434173,-0.025610724464058876
1782661054393132800,4.7111328125,-0.02759379893541336,-0.002429809421300888,-0.02383546158671379
1782661054403202800,4.721202880859375,-0.030638648197054863,-0.0028774100355803967,-0.015669353306293488
1782661054413273900,4.73127392578125,-0.031495653092861176,-0.006787995807826519,-0.008064164780080318
1782661054423343600,4.741343505859375,-0.03305419161915779,-0.008602598682045937,0.004310269374400377
1782661054433414700,4.75141455078125,-0.0369085855782032,-0.002732724417001009,0.013537057675421238
1782661054443484700,4.761484619140625,-0.03851664438843727,-0.0042291926220059395,0.012673967517912388
1782661054453555500,4.771555419921875,-0.03634963184595108,-0.0037386384792625904,0.011741595342755318
1782661054463625700,4.781625732421875,-0.03341831639409065,-0.0038784900680184364,0.006646198220551014
1782661054473696800,4.79169677734375,-0.03209312632679939,-0.0054617393761873245,-0.007256833836436272
1782661054483766500,4.8017666015625,-0.02330053225159645,-0.007746695075184107,-0.01620309241116047
1782661054493837600,4.811837646484375,-0.018156636506319046,-0.007659343536943197,-0.01898236759006977
1782661054503907600,4.821907470703125,-0.015369792468845844,-0.0020791087299585342,-0.025076856836676598
1782661054513978400,4.831978271484375,-0.009892201982438564,-0.0024090739898383617,-0.0241980142891407
1782661054524048600,4.842048583984375,-0.006591690704226494,0.00021273165475577116,-0.023931756615638733
1782661054534119700,4.85211962890625,-0.006444950122386217,0.0007253901567310095,-0.018331926316022873
1782661054544189700,4.862189697265625,0.000166372861713171,-0.0023635681718587875,-0.007288894150406122
1782661054554260500,4.872260498046875,-0.0011708004167303443,-0.00524963578209281,-0.0006198062910698354
1782661054564330500,4.88233056640625,0.001448770985007286,-0.005560621619224548,0.004859566688537598
1782661054574401500,4.892401611328125,-0.0003786901943385601,-0.0038647204637527466,0.011946504935622215
1782661054584471800,4.902471923828125,0.001420695916749537,-0.0047484710812568665,0.01821063831448555
1782661054594542600,4.91254248046875,-0.0002467092126607895,0.000446823425590992,0.013592184521257877
1782661054604612600,4.922612548828125,-0.0012628779513761401,-0.0032684272155165672,0.011364344507455826
1782661054614683600,4.93268359375,-0.0023526432923972607,-0.00307295098900795,0.007337911054491997
1782661054624753700,4.942753662109375,-0.0006431849906221032,-0.008012630045413971,0.0008299784967675805
1782661054634824400,4.952824462890625,-0.0015566491056233644,-0.011241180822253227,-0.0065445806831121445
1782661054644894700,4.962894775390625,0.003050687722861767,-0.012575875967741013,-0.004377639852464199
1782661054654965800,4.9729658203125,-0.002070304471999407,-0.00786740705370903,-0.005312143359333277
1782661054665035500,4.983035400390625,-0.007442725356668234,0.0059287878684699535,-0.00503940274938941
1782661054675106600,4.9931064453125,-0.01113572996109724,0.008982900530099869,-0.007160077802836895
1782661054685176600,5.003176513671875,-0.009241815656423569,0.004103459417819977,-0.0059532723389565945
1782661054695247600,5.01324755859375,-0.007270011585205793,0.005804154090583324,-0.008638272061944008
1782661054705317400,5.0233173828125,-0.0030555627308785915,0.009065620601177216,-0.009333896450698376
1782661054715388400,5.033388427734375,-0.004741343669593334,0.013735473155975342,-0.01320746447890997
1782661054725458700,5.043458740234375,-0.001540769007988274,0.018247775733470917,-0.026896094903349876
1782661054735528700,5.05352880859375,0.00047284705215133727,0.01405809074640274,-0.03614738583564758
1782661054745599500,5.063599609375,0.0043333652429282665,0.006565819960087538,-0.04162630811333656
1782661054755669500,5.07366943359375,0.009190438315272331,0.0027087638154625893,-0.03786192834377289
1782661054765740500,5.083740478515625,0.00961950421333313,0.005124665796756744,-0.02590782195329666
1782661054775810800,5.093810791015625,0.01064082607626915,0.003993088845163584,-0.007951989769935608
1782661054785881600,5.103881591796875,0.011456367559731007,0.004368029069155455,0.002716012531891465
1782661054795951600,5.11395166015625,0.015018344856798649,0.004832218401134014,0.015499718487262726
1782661054806022700,5.124022705078125,0.014872649684548378,0.0034410059452056885,0.02562692202627659
1782661054816092400,5.134092529296875,0.01398262195289135,0.0017885146662592888,0.02390199340879917
1782661054826163500,5.14416357421875,0.013816683553159237,-0.002207881771028042,0.02663496695458889
1782661054836233700,5.154233642578125,0.011983895674347878,-0.0011301005724817514,0.020952846854925156
1782661054846304800,5.1643046875,0.008207985199987888,0.003171731950715184,0.02077876403927803
1782661054856374500,5.17437451171875,0.007958181202411652,0.007116406224668026,0.022148162126541138
1782661054866445600,5.184445556640625,0.007141879294067621,0.007573634851723909,0.017049048095941544
1782661054876515600,5.194515625,0.007989296689629555,0.007730495184659958,0.016092974692583084
1782661054886586600,5.204586669921875,0.002364812418818474,0.012383153662085533,0.007559560239315033
1782661054896656600,5.21465673828125,-0.00381292263045907,0.014550966210663319,-0.0021585808135569096
1782661054906727700,5.224727783203125,-0.011988882906734943,0.013593635521829128,-0.004390519578009844
1782661054916797700,5.234797607421875,-0.01431755069643259,0.020178303122520447,-0.004657900892198086
1782661054926868700,5.24486865234375,-0.014425619505345821,0.02149888686835766,-0.004505890887230635
1782661054936938500,5.2549384765625,-0.014820299111306667,0.012646273709833622,-0.012678333558142185
1782661054947009500,5.265009521484375,-0.014662526547908783,0.014145327731966972,-0.0053859069012105465
1782661054957079600,5.27507958984375,-0.017974698916077614,0.010921038687229156,0.0030259531922638416
1782661054967150600,5.285150634765625,-0.022481383755803108,0.011890084482729435,0.011131366714835167
1782661054977220600,5.295220703125,-0.021495481953024864,0.02103271707892418,0.02536116912961006
1782661054987291600,5.305291748046875,-0.016963357105851173,0.022254804149270058,0.032586898654699326
1782661054997360600,5.315360595703125,-0.012709757313132286,0.013706589117646217,0.024209659546613693
1782661055007431400,5.325431396484375,-0.013364181853830814,0.00613408675417304,0.01783120259642601
1782661055017501700,5.335501708984375,-0.017478765919804573,0.003026710357517004,0.00672741886228323
1782661055027572700,5.34557275390625,-0.02213478274643421,-0.0027967141941189766,-0.0006199593772180378
1782661055037642800,5.355642822265625,-0.02764752507209778,0.0026409279089421034,0.0012019091518595815
1782661055047713500,5.365713623046875,-0.023800157010555267,-0.0020307479426264763,-0.0008342473884113133
1782661055057783600,5.375783447265625,-0.017225876450538635,0.0012854201486334205,-0.0031642469111829996
1782661055067854600,5.3858544921875,-0.01260933093726635,-0.005142951849848032,-0.005882496014237404
1782661055077924600,5.395924560546875,-0.012453270144760609,-0.005109928548336029,0.0018119087908416986
1782661055087995600,5.40599560546875,-0.012087209150195122,0.001979132415726781,0.008419607765972614
1782661055098065700,5.416065673828125,-0.011154304258525372,0.006989337503910065,0.013276148587465286
1782661055108136700,5.42613671875,-0.007581271696835756,0.01210517156869173,0.020407412201166153
1782661055118206500,5.43620654296875,-0.005347678437829018,0.012010362930595875,0.016806552186608315
1782661055128277500,5.446277587890625,-0.00009677920024842024,0.008146191015839577,0.010735667310655117
1782661055138347500,5.456347412109375,0.001980752684175968,0.000016092555597424507,-0.007583152037113905
1782661055148418600,5.46641845703125,0.001925902790389955,-0.010909363627433777,-0.012772340327501297
1782661055158488600,5.476488525390625,-0.00016734178643673658,-0.011324018239974976,-0.006589812226593494
1782661055168559600,5.4865595703125,-0.006445910781621933,-0.009552528150379658,-0.004323823377490044
1782661055178629600,5.496629638671875,-0.008073634468019009,-0.006230500526726246,0.003946356941014528
1782661055188700700,5.50670068359375,-0.004109078552573919,-0.0034343143925070763,0.007939876057207584
1782661055198770400,5.5167705078125,-0.0037804446183145046,0.003119991160929203,0.0110451215878129
1782661055208841500,5.526841552734375,-0.004204784985631704,0.006251641549170017,0.015261001884937286
1782661055218911700,5.536911865234375,-0.011514896526932716,0.001836120616644621,0.020139381289482117
1782661055228982800,5.546982666015625,-0.013546131551265717,0.004843328148126602,0.03440917283296585
1782661055239052500,5.557052490234375,-0.01814594492316246,0.015192639082670212,0.043494813144207
1782661055249123600,5.56712353515625,-0.018759803846478462,0.017984163016080856,0.04217761382460594
1782661055259193600,5.577193603515625,-0.018403206020593643,0.01728162169456482,0.036774858832359314
1782661055269264600,5.5872646484375,-0.020768724381923676,0.012781720608472824,0.02831542119383812
1782661055279334700,5.597334716796875,-0.020086422562599182,0.0064926655031740665,0.020398642867803574
1782661055289405700,5.60740576171875,-0.022469740360975266,0.011775385588407516,0.019509203732013702
1782661055299475700,5.617475830078125,-0.025785643607378006,0.016870014369487762,0.017482271417975426
1782661055309545500,5.62754541015625,-0.02743721194565296,0.022919129580259323,0.010731292888522148
1782661055319616500,5.637616455078125,-0.025944510474801064,0.022946827113628387,-0.002286504954099655
1782661055329686500,5.6476865234375,-0.024168025702238083,0.01958659663796425,-0.02152986079454422
1782661055339757600,5.657757568359375,-0.019671011716127396,0.018588177859783173,-0.03357294201850891
1782661055349827600,5.66782763671875,-0.014671050943434238,0.02052881382405758,-0.03968103602528572
1782661055359898600,5.677898681640625,-0.01007683202624321,0.020154906436800957,-0.039215248078107834
1782661055369968600,5.68796875,-0.007754265330731869,0.020343245938420296,-0.03927174583077431
1782661055380039700,5.698039794921875,-0.004606675822287798,0.02176164649426937,-0.029698213562369347
1782661055390109400,5.708109375,-0.007237834855914116,0.022165942937135696,-0.023887498304247856
1782661055400180500,5.718180419921875,-0.006856204010546207,0.02644990384578705,-0.021721282973885536
1782661055410250800,5.728250732421875,-0.006413753144443035,0.0279710590839386,-0.013231756165623665
1782661055420321800,5.73832177734375,-0.004201198928058147,0.0223722942173481,-0.020645730197429657
1782661055430391000,5.74839111328125,-0.005100182723253965,0.016484271734952927,-0.03372860327363014
1782661055440462000,5.758462158203125,-0.0026804348453879356,0.010403741151094437,-0.0477735809981823
1782661055450531800,5.76853173828125,-0.0022751677315682173,0.001223290804773569,-0.055860765278339386
1782661055460603000,5.778602783203125,-0.006401736289262772,-0.007884187623858452,-0.06052316352725029
1782661055470673200,5.788673095703125,-0.006053105462342501,-0.009860550053417683,-0.057287152856588364
1782661055480744200,5.798744140625,-0.007875240407884121,0.004539161920547485,-0.04037714749574661
1782661055490814000,5.80881396484375,-0.016337800770998,0.001266979263164103,-0.02797284536063671
1782661055500885000,5.818885009765625,-0.02638910338282585,-0.009832010604441166,-0.023794611915946007
1782661055510955000,5.828955078125,-0.032425303012132645,-0.008618660271167755,-0.007975036278367043
1782661055521026000,5.839026123046875,-0.04255276918411255,-0.0014006947167217731,-0.0028220859821885824
1782661055531096000,5.849095947265625,-0.04843556135892868,0.005973157472908497,-0.0066480981186032295
1782661055541167000,5.8591669921875,-0.05363059043884277,0.016042036935687065,-0.014347030781209469
1782661055551237000,5.869237060546875,-0.053263284265995026,-0.034322675317525864,-0.05578773841261864
1782661055561308000,5.879307861328125,-0.043871380388736725,-0.05326680466532707,-0.09161151200532913
1782661055571378000,5.8893779296875,-0.041480883955955505,-0.05834675207734108,-0.11875395476818085
1782661055581449000,5.899448974609375,-0.03993305563926697,-0.05244731903076172,-0.14485400915145874
1782661055591519200,5.909519287109375,-0.03720340132713318,-0.033856119960546494,-0.16103342175483704
1782661055601590000,5.919590087890625,-0.03616556525230408,-0.015565530396997929,-0.16855205595493317
1782661055611660000,5.929659912109375,-0.03318606689572334,-0.0038955886848270893,-0.16108426451683044
1782661055621731000,5.93973095703125,-0.03724818676710129,0.0038371654227375984,-0.1459609717130661
1782661055631801000,5.949801025390625,-0.03583154082298279,0.03339837118983269,-0.1050911396741867
1782661055641872000,5.959871826171875,-0.04771802946925163,0.1009819433093071,-0.04103706032037735
1782661055651942000,5.96994189453125,-0.06777143478393555,0.13637766242027283,0.019305188208818436
1782661055662013000,5.980012939453125,-0.06883057206869125,0.12945130467414856,0.053953979164361954
