time,seconds_elapsed,z,y,x
1782811292343575600,0.079575439453125,-0.8341033842325211,-0.8549537184290588,0.06837941648215055
1782811292353647400,0.0896474609375,-0.2684633051484823,-0.8426541357610374,0.10557459014952182
1782811292363719400,0.099719482421875,0.2930821980983019,-0.8492629594415426,0.12270900909546761
1782811292373790500,0.10979052734375,0.6239391233175993,-0.8712365985795855,0.11531641462612896
1782811292383862500,0.119862548828125,0.7027554704010486,-0.7627089307781308,0.14515114252809433
1782811292393933600,0.12993359375,0.5760229414105416,-0.5978159998172894,0.26617391556967046
1782811292404005600,0.140005615234375,0.23253391363322734,-0.461482991049625,0.31442510158475484
1782811292414077400,0.150077392578125,-0.14303425997197627,-0.4050661073008552,0.2395086480166763
1782811292424148500,0.1601484375,-0.390800814050436,-0.42819092576801776,0.1502423647198826
1782811292434220500,0.170220458984375,-0.5191600674599409,-0.45364389492180196,0.0724889706928283
1782811292444292600,0.180292724609375,-0.661112961935997,-0.3455449373938143,0.014155585798248648
1782811292454363400,0.19036328125,-0.7433575299024582,-0.1746279969030991,0.044418256788700816
1782811292464435500,0.200435546875,-0.723974784040451,-0.015768528287066146,0.07636413162574171
1782811292474506500,0.210506591796875,-0.479593780747056,0.04584136666068807,0.13782711978293954
1782811292484578300,0.220578369140625,-0.11564122613370417,0.015841885784221812,0.16233911829218267
1782811292494650400,0.230650390625,0.235654676002264,-0.0757242171538528,0.13235285309031605
1782811292504721400,0.240721435546875,0.5050689982652664,-0.15981252242401242,0.08814801985658705
1782811292514793500,0.25079345703125,0.5753378817558288,-0.13511776035954243,0.008967442570626736
1782811292524865300,0.260865234375,0.5057967280179262,-0.06797485426925122,-0.0253333978947252
1782811292534936300,0.270936279296875,0.41599078488647934,-0.015664547322783617,-0.002801248091086745
1782811292545008400,0.28100830078125,0.39470600479543205,-0.009664941581804304,0.03937463659830391
1782811292555080400,0.29108056640625,0.41632162427604197,-0.026014895619172602,0.002895940637215972
1782811292565151500,0.3011513671875,0.4834808513134718,-0.08647794948620721,-0.07173625262938439
1782811292575223600,0.3112236328125,0.5830722754001617,-0.1297933778658509,-0.151029569574818
1782811292585294600,0.321294677734375,0.6549059239894152,-0.20577822785042224,-0.1582638316772878
1782811292595366400,0.331366455078125,0.6733855835318565,-0.2060722058283165,-0.08243263788446784
1782811292605438500,0.3414384765625,0.5840840827912092,-0.12009320057388394,0.006442673333361745
1782811292615509500,0.351509521484375,0.41207682631313797,-0.1173662963606417,0.039940892178937794
1782811292625581600,0.36158154296875,0.26918928133547304,-0.17349833528604358,-0.002064969705790281
1782811292635653400,0.3716533203125,0.2335112342327833,-0.24870025473199783,-0.04804484978802502
1782811292645724400,0.381724365234375,0.2588052499651909,-0.3204327079690993,-0.10253412647508084
1782811292655796500,0.39179638671875,0.2819640072345733,-0.38108730235286054,-0.09871391059979796
1782811292665867500,0.401867431640625,0.39659868667423726,-0.43185606067944315,-0.05363112548775971
1782811292675939600,0.411939697265625,0.5662690246373414,-0.4385890221962705,0.05313114007636904
1782811292686011600,0.42201171875,0.5810328785270452,-0.43386118995677675,0.11646474441103637
1782811292696082400,0.43208251953125,0.415823611626029,-0.4088088009605184,0.12657609631977976
1782811292706154200,0.442154296875,0.23585750509798525,-0.43004550412613896,0.08867730442769825
1782811292716226600,0.4522265625,0.08725567412674426,-0.40574422575812785,0.07721219982244074
1782811292726297300,0.46229736328125,-0.04081716355681419,-0.3599501140389591,0.04098864766620099
1782811292736369400,0.472369384765625,-0.12176993814706802,-0.2941320359447971,0.05729753904081881
1782811292746441500,0.48244140625,-0.14164660500586032,-0.28373331846203653,0.06539630901813506
1782811292756512500,0.492512451171875,-0.14690788653492926,-0.3334205286296084,0.023214506044611335
1782811292766584300,0.502584228515625,-0.04147416616082191,-0.4378589908886701,-0.07069879934042692
1782811292776655400,0.5126552734375,0.07992460058629512,-0.5620294508388266,-0.18036533497869967
1782811292786727400,0.5227275390625,0.1927256348580122,-0.6256237884689122,-0.2252637034345418
1782811292796799500,0.532799560546875,0.2653630010455847,-0.6444799531735479,-0.20541312086507676
1782811292806870500,0.54287060546875,0.17591595435440538,-0.6167717159062623,-0.22987528888322412
1782811292816942300,0.5529423828125,0.010031564670801163,-0.5510291507337242,-0.3141480016764253
1782811292827014400,0.563014404296875,-0.05564999102950096,-0.541793303017877,-0.3634110681477934
1782811292837085400,0.57308544921875,-0.07009937214255332,-0.5296329826900735,-0.3274121185276657
1782811292847157500,0.583157470703125,-0.06681728173196315,-0.4983452795008197,-0.24919855964295565
1782811292857228500,0.593228515625,-0.09094283820688724,-0.42979697272516787,-0.19888138100877403
1782811292867300600,0.603300537109375,-0.15799626678228376,-0.34494850587062537,-0.13572978217750786
1782811292877372400,0.613372314453125,-0.2481634444415569,-0.24560378655400125,-0.11117599035315215
1782811292887443500,0.623443359375,-0.3369698551416397,-0.16282975135333835,-0.12505129790529607
1782811292897515500,0.633515625,-0.3539186518549919,-0.10306319185048342,-0.12156922794319688
1782811292907587600,0.643587646484375,-0.31924013718366623,-0.004344933869130909,-0.09364654420763253
1782811292917658600,0.65365869140625,-0.30885961294472214,0.06070522859245538,-0.05245229096673429
1782811292927730700,0.663730712890625,-0.31461598451435563,0.10536752327010035,0.0060647799316793675
1782811292937802500,0.673802490234375,-0.3270692233741283,0.10484956381060183,0.028110169131681323
1782811292947873300,0.683873291015625,-0.31430794147849084,0.0448083520848304,0.025182737377658485
1782811292957945300,0.6939453125,-0.19258359603881836,0.028994221957214177,0.031235169284418222
1782811292968016400,0.704016357421875,0.013802315381169319,-0.013167305413261055,0.022338673058152198
1782811292978088400,0.71408837890625,0.13849427845478057,-0.03622852059230208,-0.019274097855761646
1782811292988160300,0.72416015625,0.2285755313962698,-0.055221755680069325,-0.03436455335132777
1782811292998231300,0.734231201171875,0.2879658779978752,-0.021505473637022078,-0.015534326805546879
1782811293008303400,0.744303466796875,0.43181086983084677,0.012928893547505139,0.022994360487908122
1782811293018375400,0.75437548828125,0.5992027414679527,0.02688972395863384,0.11316833321414888
1782811293028446500,0.764446533203125,0.6731108582437038,-0.06376695425063371,0.1534071854263544
1782811293038518500,0.7745185546875,0.6451964308798313,-0.21415782406311482,0.07318981243856251
1782811293048589600,0.784589599609375,0.5729986251533031,-0.35581637523509557,-0.10910400638468563
1782811293058661400,0.794661376953125,0.4500549670517444,-0.4302537765819579,-0.1824003479376435
1782811293068733400,0.8047333984375,0.21721827107965944,-0.41876591215562076,-0.13310272160954773
1782811293078805000,0.814804931640625,-0.05936988833546638,-0.3505430379420519,-0.05357464606016874
1782811293088877000,0.824876953125,-0.20155133087038993,-0.2699509864229709,0.029745588313788172
1782811293098948900,0.834948974609375,-0.2167407166957855,-0.266666923251003,0.08725888899713755
1782811293109020000,0.84502001953125,-0.1651139898329973,-0.32069201649241147,0.14808562507741152
1782811293119092000,0.855092041015625,-0.049835751792788506,-0.40083329203668977,0.17298530772998927
1782811293129163000,0.8651630859375,0.02055705033838749,-0.4667592509521171,0.22871961604207752
1782811293139235000,0.875235107421875,0.10973989313542842,-0.48082704886905847,0.3609223931372165
1782811293149307100,0.88530712890625,0.18412205716371535,-0.5082097074437886,0.4916531249184161
1782811293159378200,0.895378173828125,0.19663608630001544,-0.5291163384048267,0.5640297212779521
1782811293169450000,0.905449951171875,0.19413199452459812,-0.5167215882666408,0.556053993158415
1782811293179522000,0.91552197265625,0.10349135413467883,-0.5168069284625351,0.5523085960850119
1782811293189593000,0.925593017578125,-0.04474164352416992,-0.5828306486640125,0.532187014554441
1782811293199665200,0.9356650390625,-0.2542161686092615,-0.6403963371217251,0.45146804872006174
1782811293209736000,0.94573583984375,-0.4324100047677755,-0.6398669794853776,0.3631510289721191
1782811293219807700,0.955807861328125,-0.591033463537693,-0.6423788161758333,0.3196121853664517
1782811293229879800,0.9658798828125,-0.6112532447457313,-0.6111345137368888,0.2900979946557432
1782811293239950800,0.975950927734375,-0.42159693433046336,-0.5787050931666046,0.3316283479832113
1782811293250023000,0.98602294921875,-0.10221358928382396,-0.5790830961661413,0.4310509913742542
1782811293260095000,0.996094970703125,0.17708616717755793,-0.6383014837343245,0.5132881066866218
1782811293270166000,1.006166015625,0.3218120334982872,-0.7324694214675576,0.5234755925714969
1782811293280237800,1.01623779296875,0.4039589863091707,-0.8343728488236665,0.48033824243880807
1782811293290308900,1.026308837890625,0.4423497995018959,-0.9021439241491258,0.42335802571885284
1782811293300381000,1.036380859375,0.45924657376706596,-0.9576573562521487,0.40456294355168937
1782811293310453000,1.046452880859375,0.43608664745390413,-0.9572617079980671,0.4371767077129334
1782811293320524000,1.05652392578125,0.3532166410654783,-0.8641927444826811,0.5154910235583782
1782811293330596000,1.06659619140625,0.31704233487844463,-0.8256761860184371,0.5379104337025433
1782811293340668000,1.07666796875,0.27749884451925755,-0.8724849181402474,0.49702115475758907
1782811293350739000,1.086739013671875,0.14500292969644069,-0.9013188715018331,0.47843240881748494
1782811293360811000,1.09681103515625,0.01020809028148651,-0.9364140772152691,0.4436524065330624
1782811293370882000,1.106882080078125,-0.016371289086341858,-1.003549777246639,0.37263942667692895
1782811293380954000,1.1169541015625,0.01855798547565937,-1.1295840948399156,0.26130481169596315
1782811293391026000,1.12702587890625,0.0807756644576788,-1.2479660710491238,0.17733948435150085
1782811293401097000,1.137096923828125,0.19862112263739107,-1.331584703847766,0.1560244552526623
1782811293411169000,1.1471689453125,0.2872895861715078,-1.3976649034768343,0.15568842823132872
1782811293421241000,1.157240966796875,0.3307294994473457,-1.3847088296614587,0.1862732438482344
1782811293431312000,1.167311767578125,0.32279403027296066,-1.3503500484637916,0.2157096931476146
1782811293441384200,1.17738427734375,0.2368494387447834,-1.2977194052554666,0.27227643369585275
1782811293451455000,1.187455078125,0.1473848563969135,-1.2271315189436078,0.31724538316987455
1782811293461526800,1.19752685546875,0.05097147782444954,-1.177983603284508,0.32398229020945724
1782811293471598800,1.207598876953125,-0.14017828601896762,-1.2003086862087249,0.3413957087598741
1782811293481670000,1.217669921875,-0.2500578798860311,-1.1970621785681694,0.3047697863478213
1782811293491742000,1.227741943359375,-0.25794366469979285,-1.2218489754308015,0.2668557238213718
1782811293501814000,1.23781396484375,-0.10355565154254436,-1.2723001557081937,0.2543056004583835
1782811293511884800,1.247884765625,0.1099503210157156,-1.2528374764777719,0.32764395452216266
1782811293521956900,1.257956787109375,0.22707506370544434,-1.2471528549700974,0.3993548535145819
1782811293532028000,1.26802783203125,0.25091186636686325,-1.2679242787115275,0.3926842897094786
1782811293542100000,1.278099853515625,0.23014497267007827,-1.3129459082208572,0.32460151808634397
1782811293552172000,1.288172119140625,0.2698006912320852,-1.4251733803883193,0.26283596678599713
1782811293562243000,1.2982431640625,0.2897568530678749,-1.5483809501230716,0.24423954899609088
1782811293572315000,1.30831494140625,0.26084113970696926,-1.6395035288110373,0.24695859869644043
1782811293582386000,1.318385986328125,0.08787117567658424,-1.6302441175565123,0.27067951989322897
1782811293592458000,1.3284580078125,-0.108808165243268,-1.5812098914049564,0.27382424765974284
1782811293602530000,1.338530029296875,-0.24016601594686507,-1.5641003511719405,0.26753610730096694
1782811293612601000,1.34860107421875,-0.29076982950270175,-1.5324549205861986,0.24566198301464318
1782811293622673200,1.358673095703125,-0.2838397379785776,-1.504707958743721,0.24315701445639132
1782811293632745000,1.368744873046875,-0.2843009257495403,-1.5005416328445076,0.2791866514757275
1782811293642816000,1.37881591796875,-0.2973457007616758,-1.486947553386539,0.3126693804912269
1782811293652888000,1.38888818359375,-0.25568507211804387,-1.526986133786291,0.2608570679284632
1782811293662958800,1.398958740234375,-0.1293786595851183,-1.5627129884667694,0.19884806326106189
1782811293673031000,1.409031005859375,-0.09033084378838539,-1.617930725558847,0.14609218623787165
1782811293683102700,1.419102783203125,-0.22792671209871768,-1.6397256471291184,0.09557356674745679
1782811293693173800,1.429173828125,-0.4770253915637731,-1.6027753881335258,0.019238515085726975
1782811293703245800,1.439245849609375,-0.7567313907384872,-1.4716932856313882,-0.07062763380035758
1782811293713318000,1.44931787109375,-0.9375029684305191,-1.33676181422472,-0.10935776195004582
1782811293723389000,1.459388916015625,-1.0421814865231513,-1.2766862618379293,-0.12571473025009036
1782811293733461000,1.4694609375,-1.1112848333656786,-1.1584392371200025,-0.17072218510359524
1782811293743532000,1.479531982421875,-1.1697907983481883,-0.9862840235386043,-0.214225811265409
1782811293753603800,1.489603759765625,-1.2555138560801744,-0.87834562686719,-0.2620294727087021
1782811293763676000,1.499676025390625,-1.3662538661688566,-0.9182596310392022,-0.381703315359354
1782811293773747000,1.509746826171875,-1.4173995315164327,-1.0471263225141911,-0.6075267715685069
1782811293783819000,1.519819091796875,-1.358996442386508,-1.2196309340551494,-0.7391440038606524
1782811293793890000,1.52989013671875,-1.2166694539010523,-1.3552075714975595,-0.7150391979128122
1782811293803962000,1.539962158203125,-1.2131348500341177,-1.3740322450853883,-0.5353050004445016
1782811293814034000,1.550033935546875,-1.2736410489231347,-1.221994740577042,-0.2558206811964512
1782811293824105000,1.56010498046875,-1.3763345306783914,-0.9043509326741099,-0.024601503423601387
1782811293834177000,1.570177001953125,-1.5179489869803189,-0.49175245710704474,0.1245167526371777
1782811293844249000,1.5802490234375,-1.6829536712199449,-0.14986110118418,0.19679697595015166
1782811293854320000,1.590320068359375,-1.7246908722311258,0.03989571959665045,0.13010755838155746
1782811293864392000,1.600391845703125,-1.5443015718549489,0.038058094656618774,-0.005245061046630144
1782811293874462700,1.610462646484375,-1.2583745062083005,-0.1766190428561531,-0.1990581988804042
1782811293884535000,1.62053515625,-0.9286486308455467,-0.41192799242697653,-0.3022879794694483
1782811293894607000,1.630607177734375,-0.5873077210128307,-0.5845129391951486,-0.3940311742737889
1782811293904678000,1.640677978515625,-0.3025958763748407,-0.6939437298487872,-0.43230844408944247
1782811293914750000,1.65075,-0.24201368964016437,-0.6816892284315079,-0.39751901638954873
1782811293924821000,1.660821044921875,-0.2848930464237928,-0.44386988520864396,-0.2708022694900632
1782811293934892800,1.670892822265625,-0.23444705377817152,-0.20137369101485236,-0.1629226172685623
1782811293944964900,1.68096484375,-0.12049568042755127,-0.06544511659592389,-0.15982070573046803
1782811293955036000,1.691035888671875,0.045911271825432774,-0.005509356272313744,-0.22029826304689049
1782811293965108000,1.70110791015625,0.2536766549050808,0.017895338582154363,-0.2168466612882912
1782811293975179000,1.711178955078125,0.5755547393769025,-0.013892934540379792,-0.1172777412943542
1782811293985251000,1.7212509765625,0.9452911380887031,-0.09086131566958501,-0.015107991152256726
1782811293995323000,1.731322998046875,1.2442208931714296,-0.14578805219214408,0.006053747081011533
1782811294005394000,1.741393798828125,1.402482532891631,-0.1813491583842784,0.0004319616764783859
1782811294015466000,1.751466064453125,1.4776421110332012,-0.2022686853595078,0.0112651981189847
1782811294025538000,1.7615380859375,1.4526970548689364,-0.23876045999787746,0.00790975021123886
1782811294035609000,1.771609130859375,1.3199176469296217,-0.2871828013287857,0.04753112811222672
1782811294045681000,1.781680908203125,1.0986948163837194,-0.23914427168369293,0.1455403975740075
1782811294055752000,1.791751953125,1.0140127921372653,-0.0902181406615302,0.2602675776027143
1782811294065824000,1.801823974609375,0.9247732507169246,0.08844492044392972,0.4015865580894053
1782811294075895300,1.811895263671875,0.7834943099796772,0.2903187612669542,0.5718861338667571
1782811294085966300,1.82196630859375,0.6155050569713115,0.400765085638687,0.6679968762308359
1782811294096038400,1.832038330078125,0.34959202082753177,0.45350624001678075,0.693074472733587
1782811294106110200,1.842110107421875,0.12011223406791686,0.4112485587954521,0.6319369902037084
1782811294116181200,1.85218115234375,0.019087562307715415,0.2835712597681209,0.5197951504930853
1782811294126253300,1.86225341796875,0.09326105202138424,0.1535576998129487,0.4431992559380829
1782811294136324000,1.872323974609375,0.3641916240662336,-0.016640497949160636,0.36321707994565366
1782811294146396200,1.882396240234375,0.6964549089521169,-0.27180238644331695,0.2934168368801474
1782811294156468200,1.89246826171875,0.921840704396367,-0.47704833404794333,0.13109057806953786
1782811294166539300,1.902539306640625,1.0156436082094906,-0.6342053735271096,-0.0274504631139338
1782811294176611000,1.912611083984375,1.1830103454053402,-0.7191423954479396,-0.05044043968766927
1782811294186682000,1.92268212890625,1.28896195217371,-0.7947673991441726,0.0037520460098981853
1782811294196754200,1.932754150390625,1.258698331335187,-0.8787923477213829,0.02593070620074868
1782811294206826200,1.942826171875,1.1290303334146738,-0.9483316748283803,-0.03725158002972603
1782811294216897300,1.952897216796875,1.0411948135733604,-0.990470515443012,-0.08064195507541298
1782811294226969300,1.96296923828125,1.0330477474749087,-1.026819959001243,-0.06663856416419148
1782811294237040400,1.973040283203125,1.0197212329119443,-1.0540464771661906,-0.0334695772729814
1782811294247112200,1.9831123046875,1.0531243208199739,-1.0326407741092145,-0.0006904664821922779
1782811294257184300,1.993184326171875,1.0833119538128375,-1.0904101684454828,0.012591916678100824
1782811294267255300,2.00325537109375,1.0493535701096057,-1.1686145941756665,-0.0430693263977766
1782811294277327400,2.013327392578125,0.9205436503231524,-1.2356455186583102,-0.11549188079088926
1782811294287399200,2.023399169921875,0.7971066557466984,-1.2687962392404675,-0.128842068490386
1782811294297470200,2.03347021484375,0.6805804634720086,-1.3098545180767773,-0.08854147615358234
1782811294307542300,2.043542236328125,0.5548515585660934,-1.3280711427688598,-0.12207403566017747
1782811294317613300,2.05361328125,0.47966976859271526,-1.3262059334188698,-0.1911008101351559
1782811294327685400,2.063685302734375,0.5279910241693258,-1.3353028475880622,-0.23344328356310723
1782811294337757400,2.07375732421875,0.6378051515847444,-1.3532143518537283,-0.25645649488195776
1782811294347828200,2.083828125,0.7009048740983009,-1.4030742151744664,-0.2548806238673627
1782811294357900000,2.093900146484375,0.7249655486434697,-1.4808175261989236,-0.2863281937934458
1782811294367971000,2.10397119140625,0.5907271740674972,-1.5525237490162251,-0.3158452340483665
1782811294378043100,2.114043212890625,0.4101566719055176,-1.5459871868543327,-0.28802652214393015
1782811294388115200,2.124115234375,0.2584323249995708,-1.4913099863797425,-0.2357316867612302
1782811294398186200,2.134186279296875,0.12036533204615116,-1.4012559137061238,-0.14996478988751769
1782811294408258300,2.14425830078125,-0.09540274022519588,-1.2752025991514324,-0.03045096010416746
1782811294418329300,2.154329345703125,-0.35656945862472056,-1.1242867190841586,0.09312471229061484
1782811294428401200,2.164401123046875,-0.6686854430168867,-1.0309058400753885,0.16406857243329287
1782811294438473200,2.17447314453125,-1.0751029283940792,-0.9858275850079953,0.1307687987692654
1782811294448544300,2.184544189453125,-1.5227543414354323,-0.8742203636307269,-0.023953268647938966
1782811294458616300,2.1946162109375,-1.682386100465059,-0.8162238825403153,-0.13744652296751736
1782811294468687400,2.204687255859375,-1.4491770640492438,-0.9166177090510725,-0.07976604902371763
1782811294478759200,2.21475927734375,-1.1487117699623106,-1.0710353866942226,0.09508476031720638
1782811294488831200,2.224831298828125,-0.9498831420540809,-1.216350451079756,0.2377089781835675
1782811294498902300,2.23490234375,-0.9673112467169761,-1.2162353002674877,0.3229012900397181
1782811294508974300,2.244974365234375,-1.2462263877749442,-1.0540955039396882,0.3499643612712621
1782811294519046400,2.25504638671875,-1.6098025102913378,-0.817947637593001,0.37426074426844713
1782811294529117400,2.265117431640625,-1.9064304181724785,-0.5699586729355156,0.41538171307742594
1782811294539189200,2.275189208984375,-2.0258821425050497,-0.30472338992282744,0.4520679143093526
1782811294549260000,2.285260009765625,-2.008160023331642,-0.11590762198492884,0.5474582334443926
1782811294559332400,2.295332275390625,-1.8816373376995323,0.007136573881655931,0.7399263864099979
1782811294569404400,2.305404296875,-1.6743500935256481,0.07934124774038791,0.8317229188367724
1782811294579475200,2.31547509765625,-1.4461036479532718,0.14706380774900316,0.8580046304322778
1782811294589547300,2.32554736328125,-1.2656640786945819,0.20851342496797443,0.8029654647774994
1782811294599618300,2.335618408203125,-1.032381392520666,0.2593959093347192,0.730072370263189
1782811294609690000,2.345690185546875,-0.721960521608591,0.2850472140721977,0.6588511544838548
1782811294619762200,2.35576220703125,-0.4092880723774433,0.290406695278734,0.5507490916833281
1782811294629833200,2.365833251953125,-0.0975672247827053,0.28992051919698714,0.48465398674607274
1782811294639905300,2.3759052734375,0.2030547211706638,0.28964184838607904,0.403283279004693
1782811294649976300,2.385976318359375,0.5512023884087801,0.2902859915085137,0.3931237040400505
1782811294660048100,2.396048095703125,0.8602572316646575,0.26166414652764797,0.455583667345345
1782811294670120200,2.4061201171875,1.1329881311297416,0.22576573467254638,0.5379163519866764
1782811294680191200,2.416191162109375,1.3413263456612825,0.15266192001700402,0.5600950121775269
1782811294690263300,2.42626318359375,1.401580031093955,0.12109788410440087,0.5285995114564895
1782811294700334300,2.436334228515625,1.3546464304834605,0.09439619353115558,0.3862845056697726
1782811294710406400,2.446406494140625,1.216198329257965,0.0829677676744759,0.2787798242405057
1782811294720478200,2.456478271484375,0.9900777897983789,0.05263020481690764,0.23004691912308334
1782811294730549200,2.46654931640625,0.6752186441779137,0.06187354171946644,0.17263123359531163
1782811294740621300,2.476621337890625,0.33026246645748614,0.06591741028279066,0.12556830751672388
1782811294750692400,2.4866923828125,-0.005985504150390624,0.06776566849797963,0.06612959172874688
1782811294760764400,2.496764404296875,-0.2731459100067615,0.10558584219589828,0.006054039341956377
1782811294770836500,2.50683642578125,-0.39715222890377044,0.16538696155548094,-0.025497137089073658
1782811294780907300,2.5169072265625,-0.40864217568933964,0.24713833917751907,0.03165653650164604
1782811294790979000,2.52697900390625,-0.35145606113374234,0.3823743464887142,0.14059037395119667
1782811294801050000,2.537050048828125,-0.253545722001791,0.5274041641920805,0.2339377890817821
1782811294811122200,2.5471220703125,-0.09126198715865612,0.6521706538066268,0.28906945532560346
1782811294821194200,2.5571943359375,0.16145312923789024,0.7505281521841883,0.34900647602453827
1782811294831265300,2.567265380859375,0.5108943434178829,0.7728552809350192,0.4655442126065492
1782811294841337000,2.577337158203125,0.8965057721316814,0.7076489415310323,0.5730014016322791
1782811294851409200,2.5874091796875,1.1381798545539379,0.5629337427347898,0.6003663784198463
1782811294861480200,2.597480224609375,1.2441834837704897,0.43455797658190126,0.5725766003489494
1782811294871552300,2.60755224609375,1.3642010252922772,0.38943595543801784,0.5239755049176514
1782811294881623300,2.617623291015625,1.4085767581135034,0.32779841443151236,0.46316666982024907
1782811294891695400,2.6276953125,1.3839870912581682,0.25692060526236893,0.4151356293618679
1782811294901767200,2.63776708984375,1.3115771040856838,0.19337883806973694,0.38766689993888137
1782811294911838200,2.647838134765625,1.30190502037704,0.09310849180817604,0.37979528978094457
1782811294921910300,2.65791015625,1.4035861102193594,0.032723435080796476,0.4207729045964777
1782811294931981300,2.667981201171875,1.4935165565133095,0.003919657661765814,0.5394805325634777
1782811294942053400,2.678053466796875,1.426550221699476,0.045971769841015336,0.67035776014328
1782811294952125200,2.688125244140625,1.329652274480462,0.10627762385234236,0.7977583976536988
1782811294962196200,2.6981962890625,1.2300041517704725,0.1046644895672798,0.8781248967885971
1782811294972268300,2.708268310546875,1.1083382585197687,0.05042538824900984,0.9246749049089849
1782811294982339000,2.718339111328125,0.8733195423334836,-0.080879709354043,0.849930921830982
1782811294992411100,2.7284111328125,0.6845125422239303,-0.21819266906976698,0.7701829929858446
1782811295002483500,2.7384833984375,0.6179506965577602,-0.31318755914643404,0.7676290707193315
1782811295012554200,2.74855419921875,0.5727578021347522,-0.382703870704025,0.7824066608734428
1782811295022626000,2.7586259765625,0.4579910207480192,-0.4075418132320046,0.8046864433512091
1782811295032697000,2.768697021484375,0.2496943072706461,-0.3744936762414872,0.8079987827695906
1782811295042769200,2.77876904296875,0.034683775368332864,-0.38238267592564223,0.802640616737306
1782811295052841200,2.78884130859375,-0.1667360380768776,-0.39500162674114103,0.7883575321018695
1782811295062912300,2.798912353515625,-0.3225041074156761,-0.3853675369553268,0.7638517441377043
1782811295072985600,2.808985595703125,-0.4265922583997249,-0.3791042387768626,0.7607284975506365
1782811295083056600,2.819056640625,-0.5066261645793915,-0.37319399181976914,0.7525451910950243
1782811295093128700,2.829128662109375,-0.6570727466344833,-0.436978335596621,0.7477811915636062
1782811295103200800,2.83920068359375,-0.8907757040470838,-0.45981692100092764,0.6815496007651091
1782811295113271600,2.849271484375,-1.1803700600296259,-0.5096076646082103,0.5607844557464122
1782811295123343400,2.85934326171875,-1.448499603179097,-0.6430307772785425,0.3223988934755325
1782811295133414400,2.869414306640625,-1.5862112068235874,-0.7277545948401093,-0.10317337422668933
1782811295143486500,2.879486572265625,-1.717282641801238,-0.8963364069141447,-0.45117052707821126
1782811295153558500,2.88955859375,-1.8670622843801974,-1.1960932604707777,-0.5786164650350809
1782811295163629600,2.899629638671875,-2.077607653567195,-1.3625504816062748,-0.5301275978066027
1782811295173701600,2.90970166015625,-2.313456390836835,-1.2917382850192487,-0.4322907623022795
1782811295183772700,2.919772705078125,-2.5659938125789163,-0.9777144211791455,-0.3574170153647661
1782811295193844500,2.929844482421875,-2.751011941799521,-0.5300418192192912,-0.32951047904640435
1782811295203916500,2.93991650390625,-2.8014678713172674,-0.10118336945325136,-0.3662310209393501
1782811295213987600,2.949987548828125,-2.7454467088878154,0.19320399295948446,-0.517335043989867
1782811295224059600,2.9600595703125,-2.5466069750636815,0.3760733466483652,-0.7048914595164358
1782811295234130700,2.970130615234375,-2.114633023625612,0.3632677141543478,-0.8658717105455697
1782811295244202500,2.980202392578125,-1.6101637448191641,0.21128690826930105,-0.9713387486673891
1782811295254274600,2.990274658203125,-1.273334759452939,0.02091412014774978,-1.0658876485422253
1782811295264345600,3.000345703125,-1.0539882441729307,-0.12519574787728488,-1.1806634900182484
1782811295274417700,3.010417724609375,-0.8330974220603704,-0.1938361533831805,-1.3212255146577954
1782811295284488700,3.02048876953125,-0.5957078850895166,-0.11905417638234793,-1.4313577681116758
1782811295294560800,3.030560791015625,-0.3933855698466301,0.04138071572370827,-1.4653526844330131
1782811295304632600,3.040632568359375,-0.1630669941753149,0.22906484928317367,-1.4701019247867166
1782811295314703600,3.05070361328125,0.12147533911466597,0.4759574700713157,-1.459665432576835
1782811295324775700,3.060775634765625,0.5063824189513921,0.6622353170294314,-1.388675102943927
1782811295334846500,3.070846435546875,0.8449053487539291,0.7372343708470463,-1.31180799023211
1782811295344918500,3.08091845703125,1.0800076515704393,0.721104489301145,-1.2368811979331076
1782811295354990600,3.090990478515625,1.1946265489190817,0.6381469507597386,-1.2009864393398164
1782811295365061600,3.1010615234375,1.3097978194534778,0.55487669300735,-1.1653630450338124
1782811295375133400,3.111133544921875,1.4281950662970542,0.4756172783315181,-1.0329001556977628
1782811295385204500,3.12120458984375,1.407779470255971,0.3978792280040681,-0.8864962731622159
1782811295395276500,3.131276611328125,1.1109978331178425,0.39178091112896796,-0.7805614713981747
1782811295405348600,3.1413486328125,0.7190519406855106,0.4434735428348183,-0.6930170434579253
1782811295415419600,3.151419677734375,0.47318625179231166,0.5149040174506604,-0.6534593784429132
1782811295425491500,3.161491455078125,0.4189560644328594,0.5828302833378315,-0.5885824171237647
1782811295435562500,3.1715625,0.5535661949306726,0.6362269424825906,-0.444096204777807
1782811295445634600,3.181634521484375,0.7645838578045367,0.6553339401431382,-0.28623379350826145
1782811295455706600,3.19170654296875,1.0246271251320838,0.614934417476505,-0.11556100050434469
1782811295465777700,3.201777587890625,1.3306412855178118,0.47446898507922886,-0.010027034626156091
1782811295475849700,3.211849609375,1.5762614752173423,0.3339016997426748,0.025548575015366077
1782811295485920800,3.221920654296875,1.7588158446729183,0.16109657088518142,0.02208878995031118
1782811295495992600,3.23199267578125,1.9287305127859113,-0.05913008823022246,0.056755760314315555
1782811295506063600,3.242063720703125,1.9894325265079735,-0.2930322214767337,0.04255640843957662
1782811295516135700,3.2521357421875,1.9200211366295814,-0.5412869974635541,0.03666384326964617
1782811295526207700,3.262207763671875,1.7213064904898403,-0.6802775350026786,0.010964023215323686
1782811295536278500,3.272278564453125,1.41593121252954,-0.748009155100584,0.0037594986639916893
1782811295546350600,3.2823505859375,1.188818154901266,-0.7688369852043688,0.0456508673235774
1782811295556421600,3.292421630859375,0.9971119262188672,-0.803942346985638,0.07805822219252585
1782811295566493400,3.302493408203125,0.8776064258724451,-0.8140477075450122,0.11406827772855758
1782811295576565500,3.3125654296875,0.7994897514909506,-0.8727356049656867,0.10494286811724304
1782811295586636500,3.322636474609375,0.7741951512366533,-1.0026543627768754,0.06559621550440788
1782811295596708600,3.33270849609375,0.8073170841157435,-1.1121405734121799,0.029235885225981473
1782811295606779600,3.342779541015625,0.8043044582962989,-1.2281816125184297,0.02110153247863054
1782811295616851500,3.3528515625,0.7701666263729333,-1.3132891687005757,-0.0025393092192709443
1782811295626923500,3.362923583984375,0.6418582263678312,-1.3835693042375146,-0.0073322425842285155
1782811295636994600,3.37299462890625,0.4178086479634046,-1.4569761934928596,-0.0695341394752264
1782811295647066600,3.383066650390625,0.18630349285602568,-1.523496245843917,-0.10534574982970953
1782811295657137700,3.3931376953125,-0.28263620740771295,-1.5786463245272635,-0.18530293751135468
1782811295667209700,3.403209716796875,-0.9340823463320732,-1.5718749306961892,-0.32088089012801646
1782811295677281500,3.413281494140625,-1.3336486506402492,-1.4525310506522655,-0.3417405766747892
1782811295687352600,3.4233525390625,-1.3342840259343385,-1.330950497597456,-0.2774344009809196
1782811295697424600,3.433424560546875,-1.136549623003602,-1.2628206719622015,-0.09729878310486674
1782811295707495700,3.44349560546875,-0.8262526707321405,-1.1657554053522645,0.08472966278046369
1782811295717567700,3.453567626953125,-0.6162403855085372,-1.060127477580309,0.28286870098933575
1782811295727639600,3.4636396484375,-0.5616197375267744,-0.9843610195867717,0.48332010779380796
1782811295737710600,3.473710693359375,-0.5576660314649343,-0.8923984829433261,0.6170724524185061
1782811295747782400,3.483782470703125,-0.36120647077560425,-0.800686998451501,0.6988860816217959
1782811295757853400,3.493853515625,-0.1767915681451559,-0.8553675599269568,0.7300184481188654
1782811295767925500,3.503925537109375,-0.2735650122016668,-0.9299455387882888,0.6728248809091747
1782811295777997600,3.51399755859375,-0.6824684691756964,-0.8547738318175077,0.5917424885898828
1782811295788068600,3.524068603515625,-1.1583955441087483,-0.7445227742895484,0.45879882999956606
1782811295798140400,3.534140380859375,-1.5763281107127665,-0.641044425766915,0.34869244163930413
1782811295808211500,3.54421142578125,-1.8191998784869907,-0.5296534044235944,0.2340039861857891
1782811295818283500,3.554283447265625,-1.920629623916745,-0.44390711194649335,0.058670946285873646
1782811295828355600,3.56435546875,-1.890528500163555,-0.4190649316348135,-0.07220511225014925
1782811295838426600,3.574426513671875,-1.7421008567154406,-0.2914825078167021,-0.11127324018254875
1782811295848498700,3.584498779296875,-1.3864368224978447,-0.15378756304606794,0.0389181980676949
1782811295858569700,3.59456982421875,-0.9583300678819417,-0.01945361914113164,0.284192350808531
1782811295868641500,3.6046416015625,-0.7108885079741477,0.18550620499849318,0.5001644212193787
1782811295878712600,3.614712646484375,-0.5317348868727684,0.4769271918863058,0.6318089799098671
1782811295888784600,3.62478466796875,-0.45669805832803245,0.7808573856048285,0.7140370351329446
1782811295898856700,3.634856689453125,-0.4542360521286726,1.0264413349471986,0.7812636283181608
1782811295908927700,3.644927734375,-0.4231137686342001,1.1706292949989436,0.7695902877897024
1782811295918999600,3.65499951171875,-0.2526718617767095,1.2540633650109172,0.674718293440342
1782811295929070600,3.665070556640625,0.12678630500435828,1.251237347804755,0.5494197427757084
1782811295939142700,3.675142578125,0.6185580148011446,1.1388897563889622,0.5202300347790122
1782811295949214700,3.685214599609375,1.0220224955916404,0.9544957504160702,0.5242544679895043
1782811295959285500,3.695285400390625,1.3091437394589185,0.8032321528896689,0.48068420633226633
1782811295969357600,3.705357666015625,1.4997598348170518,0.7198588731542229,0.4714423307344317
1782811295979428600,3.7154287109375,1.5739625506252048,0.6572704611636698,0.449340535172075
1782811295989500400,3.72550048828125,1.5267922186493872,0.6186433549970388,0.4375887225799262
1782811295999572500,3.735572509765625,1.4519377609342337,0.5449241849221289,0.4025286612451076
1782811296009643500,3.7456435546875,1.384597332111001,0.4720867661178112,0.3618712182946503
1782811296019715600,3.755715576171875,1.24118021030128,0.38547947289720175,0.33398616315573454
1782811296029786600,3.76578662109375,1.035445456266403,0.31246348265558477,0.2741083252981305
1782811296039858700,3.775858642578125,0.7570230671614409,0.3076848700769245,0.23331834200918672
1782811296049929700,3.7859296875,0.48225744699835776,0.32860242429077624,0.2303295354567468
1782811296060001500,3.79600146484375,0.25538112073540686,0.3795215874060988,0.2694333192244172
1782811296070073600,3.806073486328125,0.10327391199171543,0.37597631601467724,0.33059199067279693
1782811296080144000,3.816143798828125,0.016288286978006362,0.3653586220189929,0.36241760013103486
1782811296090216000,3.8262158203125,0.03345686392188072,0.36246713836118577,0.4094689819023013
1782811296100287000,3.836286865234375,0.1460141525655985,0.3790691674634814,0.4794185703106224
1782811296110359000,3.846359130859375,0.3420879288077354,0.3660406129337847,0.5815598250105977
1782811296120430800,3.856430908203125,0.5939636717706919,0.3336889337748289,0.6705683341540396
1782811296130502000,3.866501953125,0.8336012799292802,0.26545199450328943,0.7611106287360191
1782811296140574000,3.876573974609375,1.040315108129382,0.19163433248996734,0.8208778458259999
1782811296150645000,3.88664501953125,1.213455168029666,0.10423691180497408,0.8663333367079495
1782811296160717000,3.896717041015625,1.2787246357977389,0.0029451135411858557,0.8689426424235105
1782811296170789000,3.9067890625,1.2545979102790354,-0.10680325516164302,0.8202572297096252
1782811296180860200,3.916860107421875,1.1302829638242722,-0.2098075564317405,0.7584703433603048
1782811296190932000,3.926931884765625,1.012571361157298,-0.28279358992651105,0.7175923895269631
1782811296201003000,3.9370029296875,0.8853700456112623,-0.36397184383571146,0.682254534164071
1782811296211075000,3.947074951171875,0.7656535328626632,-0.35505715436562896,0.7032856317549944
1782811296221146000,3.95714599609375,0.6656400839716196,-0.346699952647835,0.7288520346879959
1782811296231218200,3.96721826171875,0.618422990244627,-0.3292116422303021,0.7701406151488422
1782811296241290000,3.9772900390625,0.6277186418563128,-0.303210793402791,0.8363777589052915
1782811296251360800,3.98736083984375,0.6166290925651788,-0.30353797953054307,0.8713973420992494
1782811296261432800,3.997432861328125,0.5589467189252376,-0.33381840537339447,0.8430150049626827
1782811296271504000,4.00750390625,0.49191141052842136,-0.4431849351517856,0.8063754193514585
1782811296281576000,4.017575927734375,0.4258171823740005,-0.5826981813907623,0.7490475582376122
1782811296291648000,4.02764794921875,0.3273702521473169,-0.7829147565260529,0.695402769550681
1782811296301719000,4.037718994140625,0.1234305648356676,-0.9699145610831678,0.6408715534180403
1782811296311790800,4.047790771484375,-0.1045475851893425,-1.026842463093996,0.6289440919980407
1782811296321862000,4.05786181640625,-0.3919716113954782,-0.9957035207256674,0.5641735136628151
1782811296331934000,4.067933837890625,-0.7725982374340296,-0.931516295236349,0.535739738599956
1782811296342006000,4.078006103515625,-1.234910043990612,-0.8597467979244887,0.49628801817744966
1782811296352077000,4.0880771484375,-1.631589394685626,-0.7789988982565701,0.3922019130200147
1782811296362149000,4.098149169921875,-1.8987538921952247,-0.71444649271667,0.3299687442079186
1782811296372220200,4.10822021484375,-2.1062135703265668,-0.7263193013399839,0.3352113210365176
1782811296382292000,4.1182919921875,-2.3262772939652203,-0.805394445490092,0.26819413281828164
1782811296392363000,4.128363037109375,-2.3738632210046053,-0.8892772821828723,0.05462123250365257
1782811296402435000,4.13843505859375,-2.202905765840411,-0.9458148697018622,-0.2604664611756801
1782811296412507100,4.148507080078125,-1.9815151775121687,-1.09218017379269,-0.455315079537034
1782811296422578200,4.158578125,-1.9306956753790376,-1.2703662650361656,-0.4819853520587086
1782811296432650000,4.16864990234375,-2.1260095731645823,-1.2252915901653467,-0.3432116721406579
1782811296442720800,4.178720703125,-2.4207553205609322,-0.8825148023106157,-0.13429858033061026
1782811296452793000,4.18879296875,-2.6647423561006782,-0.3834707634232938,0.07694616929739713
1782811296462865200,4.198865234375,-2.6895933042407036,0.13702566720694304,0.2729842897042632
1782811296472936000,4.20893603515625,-2.469848145031929,0.5631452665936202,0.3768085290551185
1782811296483008000,4.219008056640625,-2.086600522840023,0.8604356569714844,0.27990035270303487
1782811296493079000,4.2290791015625,-1.6718617838412522,0.9709454385008662,0.08025310188829898
1782811296503150800,4.23915087890625,-1.0409750333428383,0.8513056442502885,-0.13996025935411452
1782811296513222000,4.249221923828125,-0.4118395104259252,0.5947833175905048,-0.27551731531322
1782811296523294000,4.2592939453125,0.021417466560006142,0.22164543987214563,-0.37844694391191
1782811296533366000,4.269365966796875,0.30124387724399565,-0.11186389955207705,-0.5175989556230605
1782811296543437000,4.27943701171875,0.4509446093678474,-0.24849530674442646,-0.6737956256374716
1782811296553509000,4.289509033203125,0.5004349087238311,-0.22482465443015098,-0.7718817597277462
1782811296563580200,4.299580078125,0.4110919069290161,-0.0465844949118793,-0.7886763887926935
1782811296573652000,4.30965185546875,0.21514964811205864,0.29114129316359755,-0.8059243145830929
1782811296583724000,4.31972412109375,-0.04506313056349754,0.5972052840404212,-0.8573207398213446
1782811296593795000,4.329795166015625,-0.2689297536164522,0.8137567617744207,-0.8901867982432246
1782811296603867100,4.3398671875,-0.3864958103328943,0.9175308783732354,-0.8867290590047836
1782811296613938200,4.349938232421875,-0.4390098414242267,0.9101992203108966,-0.8283543191865086
1782811296624010000,4.360010009765625,-0.45304362747371196,0.8819171286784112,-0.7640247626170515
1782811296634080800,4.370080810546875,-0.40659401098787784,0.8805568001106381,-0.7330196757614612
1782811296644153000,4.380153076171875,-0.19657880315482615,0.8650571792922913,-0.6220438110902905
1782811296654225200,4.39022509765625,0.08346329610645771,0.8348885432608425,-0.5052709505781531
1782811296664296000,4.4002958984375,0.40996319516003127,0.792127698290348,-0.3533065113060176
1782811296674368000,4.410367919921875,0.7166314355403185,0.7487341083742678,-0.2274881745509803
1782811296684439000,4.42043896484375,0.9198018920451402,0.7009066276639699,-0.1626755106396973
1782811296694510800,4.4305107421875,1.0480547624707222,0.6444757153898477,-0.13526596405804156
1782811296704582000,4.440581787109375,1.0833026014626026,0.6087729722373187,-0.1258317807585001
1782811296714654000,4.450654052734375,1.095515601825714,0.5920692363262177,-0.10769479717388748
1782811296724726000,4.46072607421875,1.1724001040637493,0.537004351708293,-0.07456570390164852
1782811296734797000,4.470797119140625,1.3052584224581718,0.43773383013904094,-0.053534021788835526
1782811296744869000,4.480869140625,1.5077420657426117,0.28382877819314595,-0.03162862558141351
1782811296754940200,4.490940185546875,1.7586141846209764,0.0583472672894597,0.006675093849748372
1782811296765012000,4.501011962890625,1.922401309764385,-0.1731171174161136,0.0020566402688622473
1782811296775084000,4.511083984375,2.019046159005165,-0.3709472358062863,-0.012265315072238445
1782811296785155000,4.521155029296875,2.1134300775766373,-0.5124104470692574,-0.0008510638713836669
1782811296795227100,4.53122705078125,2.1420336562484503,-0.6553868393741548,0.03603898936957121
1782811296805298200,4.541298095703125,2.0629624576210976,-0.7097600884661078,0.025132687690854073
1782811296815370000,4.551369873046875,1.9262158996164798,-0.712866822309792,0.03153115655630827
1782811296825440800,4.561440673828125,1.7944500526338814,-0.6879099295772612,0.053110974071174856
1782811296835513000,4.57151318359375,1.6641250521093607,-0.6871249166794121,0.09642185413986444
1782811296845585200,4.581585205078125,1.5428917050570248,-0.7026787519030273,0.10521072527319192
1782811296855656000,4.591656005859375,1.4013795400857925,-0.7024358830578625,0.09317045112848281
1782811296865728000,4.60172802734375,1.225154373651743,-0.6656247402720153,0.0417002300016582
1782811296875799000,4.611799072265625,1.0175368746101856,-0.6982251334950328,-0.006756780783832073
1782811296885870800,4.621870849609375,0.7029325805336236,-0.8324844047285616,-0.09758052265569567
1782811296895943000,4.63194287109375,0.3583715396106243,-0.9624966860421001,-0.18469518087655304
1782811296906014000,4.642013916015625,0.10242343264222145,-1.1188795262783766,-0.2986692044503987
1782811296916086000,4.6520859375,0.02898351790010929,-1.1962360299423336,-0.4182200052432716
1782811296926157000,4.662156982421875,0.015964461851119993,-1.2322443319126963,-0.3988695542156696
1782811296936228900,4.672228759765625,-0.008771919998526573,-1.2116238609492778,-0.31574805728420613
1782811296946300000,4.6822998046875,-0.03350596376061439,-1.2086761170595883,-0.19777780368104575
1782811296956372000,4.6923720703125,-0.05821487308144569,-1.181155803579837,-0.14148220822438598
1782811296966444000,4.702444091796875,-0.3063707187384367,-1.1673404825866223,-0.07588511593714356
1782811296976515000,4.71251513671875,-0.7173276011109352,-1.1587287215858697,-0.0376719973988831
1782811296986587100,4.722587158203125,-1.155253738951683,-1.0948933782741426,-0.033238691126555205
1782811296996658200,4.732658203125,-1.5886954248547553,-1.082069990927726,-0.0022819734573364257
1782811297006730000,4.74272998046875,-1.7151999903082846,-1.0717616551421583,-0.07359218269437551
1782811297016801000,4.752801025390625,-1.2584943331956864,-1.0271490448251366,-0.1777981148391962
1782811297026873000,4.762873046875,-0.652917965042591,-1.1532780549645423,-0.14454218031689522
1782811297036945200,4.772945068359375,-0.4450397692382335,-1.285864716810733,0.03714724287241697
1782811297047016000,4.783015869140625,-0.6745505356580018,-1.2861061243511736,0.1230085400313139
1782811297057088000,4.793087890625,-1.1135159534186123,-1.1918528464220464,-0.018906945043802262
1782811297067159000,4.803158935546875,-1.542831499302387,-0.9754980603039264,-0.14167553883939982
1782811297077230800,4.81323095703125,-1.8118430859833954,-0.6986329836435615,-0.08903335132375359
1782811297087302000,4.823302001953125,-1.9859674807459116,-0.3567337092757225,0.06121288585364818
1782811297097374000,4.8333740234375,-2.069369986575842,-0.021353899804502724,0.17788243212178348
1782811297107446000,4.843446044921875,-2.0707786843299862,0.2319125668644905,0.2457937927007675
1782811297117517000,4.85351708984375,-1.9617144984990358,0.4724753270439803,0.3321837899088859
1782811297127588900,4.8635888671875,-1.9416098681032656,0.6033740358032286,0.3809425601199269
1782811297137660000,4.873659912109375,-1.9528139836847782,0.720218646377325,0.32229923249334097
1782811297147732000,4.88373193359375,-1.8740315388709305,0.8130169031925499,0.21307649509981275
1782811297157804000,4.893803955078125,-1.632051751500368,0.8444739715993403,0.06042962652146816
1782811297167875000,4.903875,-1.078338841575384,0.7685524691745639,-0.05312324903085828
1782811297177947100,4.913947021484375,-0.33612580553293225,0.6323439635694027,-0.07586699575856327
1782811297188018000,4.924017822265625,0.44924365066885946,0.5297960277646779,0.01354234927073121
1782811297198090000,4.934090087890625,1.1535726539969444,0.44785000435337424,0.15249460062608122
1782811297208160800,4.944160888671875,1.607379667058587,0.35171441980898377,0.26438889531642196
1782811297218232800,4.95423291015625,1.796387158176303,0.3297781900718808,0.28226299018114803
1782811297228305000,4.964304931640625,1.8385779481738804,0.38015228652507066,0.26587270413339137
1782811297238376000,4.9743759765625,1.7942343640565872,0.44647360143363474,0.21792919582799075
1782811297248448000,4.984447998046875,1.6256109047979115,0.4938207512810826,0.18822876183018086
1782811297258519000,4.99451904296875,1.2403279773861169,0.5078559986352921,0.0978068787574768
1782811297268590800,5.0045908203125,0.6689338648200035,0.5462982497543096,-0.0691911712564528
1782811297278662000,5.014661865234375,0.1895879213541746,0.7528802682682871,-0.0529020074956119
1782811297288734000,5.02473388671875,-0.146919576972723,0.913266206666082,0.0833687496908009
1782811297298806000,5.034805908203125,-0.34739363400042056,0.9404026353947817,0.14777327119261024
1782811297308877000,5.044876953125,-0.3883171805411577,0.8924788547031581,0.05208908367753028
1782811297318948900,5.054948974609375,-0.455589220303297,0.8109896351486444,-0.021522972761094567
1782811297329020000,5.06502001953125,-0.39765141059756276,0.7780854366734623,0.034938188520818945
1782811297339092000,5.075092041015625,-0.0037158056527376174,0.7591023576535284,0.22458032428026198
1782811297349163000,5.0851630859375,0.6103612643420696,0.7537574894942343,0.4473942234098911
1782811297359235000,5.095235107421875,1.1523767222106456,0.74475278365314,0.6220927647985518
1782811297369307100,5.10530712890625,1.5151193165123462,0.6861497880369425,0.7257122753575443
1782811297379378000,5.1153779296875,1.7554548438072204,0.5569955848574638,0.7685179823830723
1782811297389450000,5.125449951171875,1.905306967100501,0.3802051857560873,0.804921713411808
1782811297399520800,5.135520751953125,2.0126514895319936,0.22121903115361927,0.8066232566326856
1782811297409592800,5.1455927734375,2.0497212832540272,0.11043839679360389,0.7503859672345221
1782811297419664000,5.155663818359375,1.9163614450782536,0.005835428155213594,0.6842151667125522
1782811297429736000,5.16573583984375,1.693973662406206,-0.10420505536198615,0.654818537966907
1782811297439808000,5.17580810546875,1.43254858533144,-0.208995363266021,0.6412465242102742
1782811297449879000,5.185879150390625,1.181643733227253,-0.24807927328944204,0.6414936308391392
1782811297459950800,5.195950927734375,0.8985019143849611,-0.16965981656908988,0.6555223023220896
1782811297470022000,5.20602197265625,0.5430372021317482,-0.0595529898174107,0.718306967537105
1782811297480094000,5.216093994140625,0.21508067452907562,0.03292041895762086,0.774439042995125
1782811297490165000,5.2261650390625,0.01057633907198906,0.14129983739480376,0.8497960434049368
1782811297500237000,5.236237060546875,-0.10848024846315384,0.15606398354545234,0.919626827739179
1782811297510308900,5.246308837890625,-0.2600958742976188,0.08774915673211216,0.8950465132340788
1782811297520380000,5.2563798828125,-0.43438978040814397,0.008379121288657188,0.7757832972109318
1782811297530452000,5.266451904296875,-0.46795244279205794,-0.034775691435486075,0.6482726234547793
1782811297540523000,5.27652294921875,-0.33730653975009917,-0.16946034847423433,0.6012615736939013
1782811297550595000,5.286594970703125,-0.1298392628341913,-0.32723420467749237,0.5232473367735743
1782811297560665900,5.296665771484375,0.017439210578799248,-0.4318978174619376,0.45750601371005173
1782811297570738200,5.30673828125,0.0018295535147190092,-0.4577938907407224,0.3811294609941542
1782811297580808000,5.316807861328125,-0.12141922501325607,-0.4024466820500791,0.3627612990021705
1782811297590879000,5.32687890625,-0.3480670032173395,-0.31032720127925273,0.3003822919785976
1782811297600951000,5.336950927734375,-0.5975304243415593,-0.21219708191677927,0.20674276203364134
1782811297611022000,5.34702197265625,-0.8957160830587149,-0.09789923321604728,0.14135931249707936
1782811297621094000,5.357093994140625,-1.2332067472040653,-0.02815612716525793,0.052982233124971384
1782811297631165000,5.3671650390625,-1.5802695418149233,-0.03809650642126798,-0.06902180603891611
1782811297641237000,5.377237060546875,-1.7708815455198288,-0.10041618447303771,-0.42443683393150566
1782811297651309000,5.38730908203125,-1.6828455346703528,-0.10929141871556639,-0.9011474604576826
1782811297661380000,5.397380126953125,-1.4792600676238536,-0.29311390841081736,-1.0922250358477235
1782811297671452200,5.4074521484375,-1.4609417361229657,-0.6633974196113646,-0.9661059625804423
1782811297681523000,5.41752294921875,-1.6400047563314437,-0.8156862685322761,-0.7191735212385654
1782811297691595000,5.427594970703125,-1.9396791923016308,-0.5705860110536217,-0.5533455379173159
1782811297701665800,5.437665771484375,-2.312974744799733,-0.07485884162932634,-0.43399522813260555
1782811297711737900,5.44773779296875,-2.5843098059922456,0.5578108467631042,-0.17241203788667916
1782811297721810000,5.457809814453125,-2.643547007858753,1.2506268146909774,0.07069090829491614
1782811297731881000,5.467880859375,-2.5711054565042257,1.7334179301746189,0.18443916028887034
1782811297741953000,5.477953125,-2.2849726391524077,1.9717370030805468,-0.006053893211483955
1782811297752023800,5.48802392578125,-1.7172791346699,1.8767972041919827,-0.4313195791825652
1782811297762095900,5.498095947265625,-1.1518477299004792,1.3021046346023677,-0.9293737302497028
1782811297772167000,5.5081669921875,-0.6711632313072681,0.574643762011826,-1.1822998590484262
1782811297782239000,5.518239013671875,-0.1764998917222023,0.03229731862321496,-1.3846432170793412
1782811297792311000,5.52831103515625,0.34853228264153,-0.2529202835798263,-1.541070919370651
1782811297802382000,5.538382080078125,0.7989262723892927,-0.3282309606298804,-1.608079047499597
1782811297812454000,5.548453857421875,1.1673048267513513,-0.22205606649965046,-1.5617378598242997
1782811297822525000,5.55852490234375,1.3621750724226236,0.08305471530556678,-1.4008128461137412
1782811297832597000,5.568596923828125,1.4200731346398592,0.2907292052313685,-1.28543670065701
1782811297842668000,5.57866796875,1.4321470187932253,0.29039661227613683,-1.294027857261151
1782811297852740000,5.588739990234375,1.3648510136336087,0.27825287775695323,-1.4413086687617003
1782811297862812200,5.598812255859375,1.1774971349418162,0.3706020756304264,-1.4575802968658507
1782811297872883000,5.608883056640625,0.9277239172160625,0.40746904025673863,-1.3254181440420447
1782811297882955000,5.618955078125,0.504420763489604,0.43805444039553404,-1.0476748232424258
1782811297893025800,5.62902587890625,0.1770347292512655,0.6454521592065692,-0.721972650437802
1782811297903097900,5.639097900390625,0.17020049931704997,1.1132831675760448,-0.30478607989549633
1782811297913169000,5.6491689453125,0.45409518235325813,1.4686941038154064,0.05966536415070295
1782811297923241000,5.659240966796875,-0.041347324910759924,1.4347235912829637,0.10231354252696037
1782811297933315000,5.669315185546875,0.690430826357007,0.6147169753335416,-0.21934753819331526
1782811297943387100,5.67938720703125,0.9834113176465034,0.0834707487605512,-0.11590163063555955
1782811297953458200,5.689458251953125,0.3184744135081768,0.6841331875175237,0.007458353181928396
1782811297963530000,5.699530029296875,-0.6478595126092433,1.0457605140537023,0.026489362996816635
1782811297973602000,5.70960205078125,-0.8376917641133069,0.903835968889296,-0.017759820835292338
1782811297983672800,5.7196728515625,-0.24137714530229568,0.8872463608771562,0.07052870347052813
1782811297993745000,5.729744873046875,0.18679566028714178,1.0717694000571965,0.44445568573996425
1782811298003816000,5.73981591796875,0.026458383336663244,1.3490237682960926,0.763391725410521
1782811298013888000,5.749887939453125,0.15393559321463107,1.4997221331551671,0.9378693175248801
