time,seconds_elapsed,z,y,x
1782811292343575600,0.079575439453125,0.11115241050720215,0.14777764678001404,0.22087307274341583
1782811292353647400,0.0896474609375,0.1066744476556778,0.1681085079908371,0.17676880955696106
1782811292363719400,0.099719482421875,0.09015965461730957,0.13697855174541473,0.09514211863279343
1782811292373790500,0.10979052734375,0.06588337570428848,0.07448197901248932,-0.00030232235440053046
1782811292383862500,0.119862548828125,0.05831840634346008,-0.00053900305647403,-0.0805785208940506
1782811292393933600,0.12993359375,0.07494570314884186,-0.07329205423593521,-0.1342274397611618
1782811292404005600,0.140005615234375,0.10664637386798859,-0.12409237772226334,-0.14410829544067383
1782811292414077400,0.150077392578125,0.12787842750549316,-0.13588371872901917,-0.11659526079893112
1782811292424148500,0.1601484375,0.12481819093227386,-0.15518417954444885,-0.06475842744112015
1782811292434220500,0.170220458984375,0.11208271980285645,-0.16553638875484467,-0.004276569001376629
1782811292444292600,0.180292724609375,0.10884644836187363,-0.13465118408203125,0.06314028799533844
1782811292454363400,0.19036328125,0.12518468499183655,-0.06518681347370148,0.13110274076461792
1782811292464435500,0.200435546875,0.154926598072052,0.011899183504283428,0.18342000246047974
1782811292474506500,0.210506591796875,0.19295375049114227,0.06654539704322815,0.2180129438638687
1782811292484578300,0.220578369140625,0.22278915345668793,0.08291345089673996,0.2358713001012802
1782811292494650400,0.230650390625,0.23797975480556488,0.05783852934837341,0.23538142442703247
1782811292504721400,0.240721435546875,0.24295108020305634,-0.0004652587231248617,0.23723392188549042
1782811292514793500,0.25079345703125,0.24162191152572632,-0.05101263150572777,0.2414187788963318
1782811292524865300,0.260865234375,0.2407667636871338,-0.07871190458536148,0.2581346333026886
1782811292534936300,0.270936279296875,0.2548949718475342,-0.091474249958992,0.2795415222644806
1782811292545008400,0.28100830078125,0.27176129817962646,-0.0914153978228569,0.29283496737480164
1782811292555080400,0.29108056640625,0.2783629596233368,-0.07380861043930054,0.29900071024894714
1782811292565151500,0.3011513671875,0.27264729142189026,-0.05009875446557999,0.28924742341041565
1782811292575223600,0.3112236328125,0.2538665533065796,-0.0361938439309597,0.26536986231803894
1782811292585294600,0.321294677734375,0.22898437082767487,-0.0336177684366703,0.23278740048408508
1782811292595366400,0.331366455078125,0.2141910195350647,-0.03096136637032032,0.19882218539714813
1782811292605438500,0.3414384765625,0.2188427597284317,-0.021187830716371536,0.173819899559021
1782811292615509500,0.351509521484375,0.2288486361503601,0.009996634908020496,0.16382133960723877
1782811292625581600,0.36158154296875,0.23211021721363068,0.045522939413785934,0.1566944569349289
1782811292635653400,0.3716533203125,0.21477821469306946,0.07212969660758972,0.15171968936920166
1782811292645724400,0.381724365234375,0.18903157114982605,0.10755559802055359,0.1411687731742859
1782811292655796500,0.39179638671875,0.16555556654930115,0.1299494206905365,0.11234570294618607
1782811292665867500,0.401867431640625,0.1474069356918335,0.1253991425037384,0.07069919258356094
1782811292675939600,0.411939697265625,0.1413278728723526,0.07207874953746796,0.03204153850674629
1782811292686011600,0.42201171875,0.13923463225364685,0.02455117739737034,-0.0036469523329287767
1782811292696082400,0.43208251953125,0.13305175304412842,-0.002757750917226076,-0.02575007826089859
1782811292706154200,0.442154296875,0.12455201894044876,-0.016684485599398613,-0.028926430270075798
1782811292716226600,0.4522265625,0.12309927493333817,-0.019363485276699066,-0.02399202063679695
1782811292726297300,0.46229736328125,0.1311686486005783,-0.0004031093558296561,-0.0183812715113163
1782811292736369400,0.472369384765625,0.14910799264907837,0.028889497742056847,-0.011995329521596432
1782811292746441500,0.48244140625,0.17544052004814148,0.06655032187700272,0.006950664333999157
1782811292756512500,0.492512451171875,0.19337071478366852,0.09059872478246689,0.03276430815458298
1782811292766584300,0.502584228515625,0.18714557588100433,0.08718109130859375,0.057113055139780045
1782811292776655400,0.5126552734375,0.16371560096740723,0.06223775073885918,0.07242865115404129
1782811292786727400,0.5227275390625,0.13510897755622864,0.03152325004339218,0.07014951854944229
1782811292796799500,0.532799560546875,0.11247941106557846,-0.010638140141963959,0.0607304610311985
1782811292806870500,0.54287060546875,0.09172593057155609,-0.031368184834718704,0.05733253434300423
1782811292816942300,0.5529423828125,0.0664890930056572,-0.039236217737197876,0.06653565168380737
1782811292827014400,0.563014404296875,0.0386316291987896,-0.05074586719274521,0.061788301914930344
1782811292837085400,0.57308544921875,0.016386622563004494,-0.07401852309703827,0.050992392003536224
1782811292847157500,0.583157470703125,0.0005613202229142189,-0.09754488617181778,0.02490220218896866
1782811292857228500,0.593228515625,-0.00963880680501461,-0.11972665041685104,-0.003010490909218788
1782811292867300600,0.603300537109375,-0.014097204431891441,-0.13126319646835327,-0.031208306550979614
1782811292877372400,0.613372314453125,-0.014358215034008026,-0.12237722426652908,-0.05370912328362465
1782811292887443500,0.623443359375,-0.01130969449877739,-0.10259685665369034,-0.06110978126525879
1782811292897515500,0.633515625,-0.004058300983160734,-0.08001679927110672,-0.06863830983638763
1782811292907587600,0.643587646484375,0.00639034528285265,-0.06358296424150467,-0.07237418740987778
1782811292917658600,0.65365869140625,0.02190215326845646,-0.04704650491476059,-0.0641884058713913
1782811292927730700,0.663730712890625,0.03748537600040436,-0.04048500955104828,-0.04233024641871452
1782811292937802500,0.673802490234375,0.04709945246577263,-0.03386125713586807,0.002082339720800519
1782811292947873300,0.683873291015625,0.05360475555062294,-0.04125232622027397,0.06397340446710587
1782811292957945300,0.6939453125,0.05282098799943924,-0.07279959321022034,0.12441837042570114
1782811292968016400,0.704016357421875,0.045221392065286636,-0.12826871871948242,0.17653962969779968
1782811292978088400,0.71408837890625,0.031373247504234314,-0.1662224382162094,0.20498205721378326
1782811292988160300,0.72416015625,0.011338553391397,-0.17997100949287415,0.2081480175256729
1782811292998231300,0.734231201171875,0.004052450880408287,-0.16992594301700592,0.17942501604557037
1782811293008303400,0.744303466796875,0.01050955057144165,-0.17200399935245514,0.12424324452877045
1782811293018375400,0.75437548828125,0.02652035467326641,-0.19011135399341583,0.0592520609498024
1782811293028446500,0.764446533203125,0.0306120365858078,-0.20149795711040497,-0.0067237610928714275
1782811293038518500,0.7745185546875,0.01346268318593502,-0.2090192437171936,-0.06722595542669296
1782811293048589600,0.784589599609375,-0.033928800374269485,-0.23089870810508728,-0.11997225880622864
1782811293058661400,0.794661376953125,-0.09093352407217026,-0.246731236577034,-0.1569993793964386
1782811293068733400,0.8047333984375,-0.13612815737724304,-0.22240886092185974,-0.17540794610977173
1782811293078805000,0.814804931640625,-0.16197997331619263,-0.165524423122406,-0.17990410327911377
1782811293088877000,0.824876953125,-0.17712722718715668,-0.11293099820613861,-0.17606543004512787
1782811293098948900,0.834948974609375,-0.18413898348808289,-0.0733601450920105,-0.16996143758296967
1782811293109020000,0.84502001953125,-0.19909504055976868,-0.0531238429248333,-0.16250750422477722
1782811293119092000,0.855092041015625,-0.21566884219646454,-0.047162976115942,-0.15365488827228546
1782811293129163000,0.8651630859375,-0.22706158459186554,-0.04253493249416351,-0.15683282911777496
1782811293139235000,0.875235107421875,-0.22008565068244934,-0.06115558743476868,-0.15809467434883118
1782811293149307100,0.88530712890625,-0.20658129453659058,-0.09463205188512802,-0.16281352937221527
1782811293159378200,0.895378173828125,-0.19758391380310059,-0.1382662057876587,-0.17246222496032715
1782811293169450000,0.905449951171875,-0.18718720972537994,-0.18553145229816437,-0.17627854645252228
1782811293179522000,0.91552197265625,-0.17541445791721344,-0.21850554645061493,-0.1805100291967392
1782811293189593000,0.925593017578125,-0.17157284915447235,-0.22485053539276123,-0.18561236560344696
1782811293199665200,0.9356650390625,-0.17039164900779724,-0.18832862377166748,-0.19281452894210815
1782811293209736000,0.94573583984375,-0.17491742968559265,-0.10730274021625519,-0.1968737244606018
1782811293219807700,0.955807861328125,-0.16953681409358978,0.0014214355032891035,-0.19365687668323517
1782811293229879800,0.9658798828125,-0.14989200234413147,0.11177084594964981,-0.188083678483963
1782811293239950800,0.975950927734375,-0.12851108610630035,0.1839667409658432,-0.18247053027153015
1782811293250023000,0.98602294921875,-0.10139434784650803,0.20712414383888245,-0.18373295664787292
1782811293260095000,0.996094970703125,-0.07281918823719025,0.20218493044376373,-0.18676075339317322
1782811293270166000,1.006166015625,-0.052971985191106796,0.18464800715446472,-0.18317720293998718
1782811293280237800,1.01623779296875,-0.04566648229956627,0.1564490646123886,-0.18034568428993225
1782811293290308900,1.026308837890625,-0.04127306491136551,0.12212491035461426,-0.1786588430404663
1782811293300381000,1.036380859375,-0.04040396213531494,0.0861966535449028,-0.17994140088558197
1782811293310453000,1.046452880859375,-0.02614646404981613,0.05166024714708328,-0.1825137585401535
1782811293320524000,1.05652392578125,0.0033552602399140596,0.02801116555929184,-0.18590544164180756
1782811293330596000,1.06659619140625,0.03452356532216072,-0.0035691317170858383,-0.18134531378746033
1782811293340668000,1.07666796875,0.0613015852868557,-0.038049835711717606,-0.17493970692157745
1782811293350739000,1.086739013671875,0.08616459369659424,-0.061027057468891144,-0.1507968306541443
1782811293360811000,1.09681103515625,0.10703444480895996,-0.07108081132173538,-0.12680166959762573
1782811293370882000,1.106882080078125,0.11913398653268814,-0.08124503493309021,-0.10701438039541245
1782811293380954000,1.1169541015625,0.1233142763376236,-0.0909179151058197,-0.09362323582172394
1782811293391026000,1.12702587890625,0.11507339775562286,-0.09802402555942535,-0.09744194149971008
1782811293401097000,1.137096923828125,0.10023342072963715,-0.12206268310546875,-0.10848738253116608
1782811293411169000,1.1471689453125,0.08757248520851135,-0.15186478197574615,-0.12489937990903854
1782811293421241000,1.157240966796875,0.0809241384267807,-0.17992156744003296,-0.1395590603351593
1782811293431312000,1.167311767578125,0.07965034246444702,-0.20742163062095642,-0.1422286182641983
1782811293441384200,1.17738427734375,0.08641215413808823,-0.23211289942264557,-0.13222110271453857
1782811293451455000,1.187455078125,0.09429538249969482,-0.26525458693504333,-0.11257016658782959
1782811293461526800,1.19752685546875,0.1059916689991951,-0.2805027961730957,-0.08223799616098404
1782811293471598800,1.207598876953125,0.1200515627861023,-0.2590795159339905,-0.051265962421894073
1782811293481670000,1.217669921875,0.13005705177783966,-0.22377318143844604,-0.016931423917412758
1782811293491742000,1.227741943359375,0.13410478830337524,-0.19186531007289886,0.012363615445792675
1782811293501814000,1.23781396484375,0.13971005380153656,-0.18816259503364563,0.0367601215839386
1782811293511884800,1.247884765625,0.15400616824626923,-0.20901593565940857,0.041669126600027084
1782811293521956900,1.257956787109375,0.17421109974384308,-0.22474642097949982,0.03954508155584335
1782811293532028000,1.26802783203125,0.19404765963554382,-0.21323943138122559,0.016621654853224754
1782811293542100000,1.278099853515625,0.19906118512153625,-0.19352999329566956,-0.00742354616522789
1782811293552172000,1.288172119140625,0.1848614662885666,-0.19269776344299316,-0.028316844254732132
1782811293562243000,1.2982431640625,0.1565522849559784,-0.22162199020385742,-0.03865700960159302
1782811293572315000,1.30831494140625,0.1319606602191925,-0.26001518964767456,-0.0363943874835968
1782811293582386000,1.318385986328125,0.1080666333436966,-0.26997920870780945,-0.024590518325567245
1782811293592458000,1.3284580078125,0.09064663201570511,-0.26048851013183594,-0.012551698833703995
1782811293602530000,1.338530029296875,0.0743483304977417,-0.23197516798973083,-0.011793088167905807
1782811293612601000,1.34860107421875,0.06445229053497314,-0.20503437519073486,-0.009226866066455841
1782811293622673200,1.358673095703125,0.056811343878507614,-0.19266745448112488,-0.009464452043175697
1782811293632745000,1.368744873046875,0.05372633785009384,-0.18441271781921387,-0.005988760385662317
1782811293642816000,1.37881591796875,0.054872963577508926,-0.17095552384853363,-0.0018617906607687473
1782811293652888000,1.38888818359375,0.05545593053102493,-0.1741182953119278,-0.006767599377781153
1782811293662958800,1.398958740234375,0.042707569897174835,-0.21442152559757233,-0.017006153240799904
1782811293673031000,1.409031005859375,0.013421589508652687,-0.2773733139038086,-0.020495694130659103
1782811293683102700,1.419102783203125,-0.019681697711348534,-0.3422119617462158,-0.006927122827619314
1782811293693173800,1.429173828125,-0.053095847368240356,-0.3777289390563965,0.012432992458343506
1782811293703245800,1.439245849609375,-0.08223912119865417,-0.3939719498157501,0.038722071796655655
1782811293713318000,1.44931787109375,-0.10840228199958801,-0.3959541618824005,0.059773292392492294
1782811293723389000,1.459388916015625,-0.1331023871898651,-0.38663285970687866,0.07449981570243835
1782811293733461000,1.4694609375,-0.15587401390075684,-0.36601120233535767,0.07837843894958496
1782811293743532000,1.479531982421875,-0.16700239479541779,-0.3297279179096222,0.08641497790813446
1782811293753603800,1.489603759765625,-0.1801741123199463,-0.283493310213089,0.09101399034261703
1782811293763676000,1.499676025390625,-0.22433264553546906,-0.211769238114357,0.09390751272439957
1782811293773747000,1.509746826171875,-0.30618515610694885,-0.13441479206085205,0.07508482038974762
1782811293783819000,1.519819091796875,-0.41283929347991943,-0.07405874133110046,0.019168885424733162
1782811293793890000,1.52989013671875,-0.522854208946228,-0.051869817078113556,-0.0515284538269043
1782811293803962000,1.539962158203125,-0.611702561378479,-0.033818114548921585,-0.11277210712432861
1782811293814034000,1.550033935546875,-0.6667969822883606,-0.03968985006213188,-0.1591332107782364
1782811293824105000,1.56010498046875,-0.683061957359314,-0.0609857477247715,-0.1775897592306137
1782811293834177000,1.570177001953125,-0.6536121368408203,-0.07269033789634705,-0.16777467727661133
1782811293844249000,1.5802490234375,-0.5936548709869385,-0.0649787038564682,-0.12526366114616394
1782811293854320000,1.590320068359375,-0.5219618082046509,-0.04209734871983528,-0.062412261962890625
1782811293864392000,1.600391845703125,-0.4675929844379425,-0.03222361207008362,0.007141208741813898
1782811293874462700,1.610462646484375,-0.45468437671661377,-0.03567400202155113,0.07157745957374573
1782811293884535000,1.62053515625,-0.4728308916091919,-0.04996772110462189,0.1150122880935669
1782811293894607000,1.630607177734375,-0.5185669660568237,-0.08260182291269302,0.13302350044250488
1782811293904678000,1.640677978515625,-0.5770894289016724,-0.12408813089132309,0.12621021270751953
1782811293914750000,1.65075,-0.6158551573753357,-0.11592260748147964,0.11885057389736176
1782811293924821000,1.660821044921875,-0.613959550857544,-0.0702192485332489,0.11849550157785416
1782811293934892800,1.670892822265625,-0.5934441089630127,-0.002114232163876295,0.12018740922212601
1782811293944964900,1.68096484375,-0.5785291790962219,0.07217133790254593,0.13115772604942322
1782811293955036000,1.691035888671875,-0.5675473213195801,0.14642000198364258,0.14863258600234985
1782811293965108000,1.70110791015625,-0.5630239844322205,0.2060277760028839,0.1676023006439209
1782811293975179000,1.711178955078125,-0.5553897619247437,0.22536765038967133,0.18307393789291382
1782811293985251000,1.7212509765625,-0.5572049617767334,0.20383305847644806,0.19011026620864868
1782811293995323000,1.731322998046875,-0.5714028477668762,0.17319738864898682,0.17995163798332214
1782811294005394000,1.741393798828125,-0.5904773473739624,0.14415207505226135,0.1533549278974533
1782811294015466000,1.751466064453125,-0.6176239848136902,0.11562322080135345,0.1114458292722702
1782811294025538000,1.7615380859375,-0.6567175388336182,0.09894199669361115,0.052429940551519394
1782811294035609000,1.771609130859375,-0.6888589262962341,0.10241715610027313,-0.009733828715980053
1782811294045681000,1.781680908203125,-0.7039555311203003,0.11316612362861633,-0.0635903924703598
1782811294055752000,1.791751953125,-0.6980904936790466,0.10310523211956024,-0.11844698339700699
1782811294065824000,1.801823974609375,-0.6615737080574036,0.08922190219163895,-0.15090824663639069
1782811294075895300,1.811895263671875,-0.6004089117050171,0.06284888833761215,-0.1614953726530075
1782811294085966300,1.82196630859375,-0.5320190191268921,0.037623003125190735,-0.14893148839473724
1782811294096038400,1.832038330078125,-0.4533438980579376,0.03831622377038002,-0.107756607234478
1782811294106110200,1.842110107421875,-0.3859314024448395,0.06719779968261719,-0.04465281963348389
1782811294116181200,1.85218115234375,-0.3286137878894806,0.11259643733501434,0.025144636631011963
1782811294126253300,1.86225341796875,-0.2748529016971588,0.16122819483280182,0.08971314132213593
1782811294136324000,1.872323974609375,-0.22533486783504486,0.187310129404068,0.13178549706935883
1782811294146396200,1.882396240234375,-0.19182389974594116,0.20182204246520996,0.13816136121749878
1782811294156468200,1.89246826171875,-0.18406185507774353,0.22671088576316833,0.12432091683149338
1782811294166539300,1.902539306640625,-0.18889322876930237,0.25349000096321106,0.09445662051439285
1782811294176611000,1.912611083984375,-0.19724783301353455,0.24459612369537354,0.05747649818658829
1782811294186682000,1.92268212890625,-0.2004336416721344,0.22249078750610352,0.028674615547060966
1782811294196754200,1.932754150390625,-0.20648062229156494,0.2122405469417572,0.012291382998228073
1782811294206826200,1.942826171875,-0.21464522182941437,0.21715585887432098,0.00901570450514555
1782811294216897300,1.952897216796875,-0.21428169310092926,0.22590354084968567,0.011318805627524853
1782811294226969300,1.96296923828125,-0.2139962613582611,0.2210334688425064,0.01919199712574482
1782811294237040400,1.973040283203125,-0.2011861801147461,0.2092583030462265,0.03989700600504875
1782811294247112200,1.9831123046875,-0.1861867606639862,0.18502771854400635,0.05674697831273079
1782811294257184300,1.993184326171875,-0.16813771426677704,0.14306563138961792,0.08394557237625122
1782811294267255300,2.00325537109375,-0.1643943190574646,0.09546265006065369,0.11263172328472137
1782811294277327400,2.013327392578125,-0.16533175110816956,0.05291731283068657,0.1453057825565338
1782811294287399200,2.023399169921875,-0.1600397676229477,0.021354656666517258,0.18161943554878235
1782811294297470200,2.03347021484375,-0.1519528031349182,0.006969859357923269,0.21049076318740845
1782811294307542300,2.043542236328125,-0.14259403944015503,0.019606642425060272,0.2355862557888031
1782811294317613300,2.05361328125,-0.13964113593101501,0.04697887971997261,0.250013142824173
1782811294327685400,2.063685302734375,-0.13794344663619995,0.06492990255355835,0.25991180539131165
1782811294337757400,2.07375732421875,-0.13470131158828735,0.06111092492938042,0.259287565946579
1782811294347828200,2.083828125,-0.14462639391422272,0.03152178227901459,0.2723805904388428
1782811294357900000,2.093900146484375,-0.17136773467063904,-0.04155642166733742,0.30954232811927795
1782811294367971000,2.10397119140625,-0.20218631625175476,-0.11140564829111099,0.36030352115631104
1782811294378043100,2.114043212890625,-0.21687738597393036,-0.18249526619911194,0.41145059466362
1782811294388115200,2.124115234375,-0.22414463758468628,-0.26323920488357544,0.452208012342453
1782811294398186200,2.134186279296875,-0.22803205251693726,-0.34010496735572815,0.4808484613895416
1782811294408258300,2.14425830078125,-0.20753449201583862,-0.39849334955215454,0.4980981945991516
1782811294418329300,2.154329345703125,-0.17137515544891357,-0.4474518299102783,0.5093644261360168
1782811294428401200,2.164401123046875,-0.13168586790561676,-0.47385016083717346,0.5112690329551697
1782811294438473200,2.17447314453125,-0.09697208553552628,-0.40393179655075073,0.5103020071983337
1782811294448544300,2.184544189453125,-0.07406601309776306,-0.2480638027191162,0.5000461935997009
1782811294458616300,2.1946162109375,-0.05424916744232178,-0.09785380214452744,0.4560268223285675
1782811294468687400,2.204687255859375,-0.04151700437068939,-0.0031659482046961784,0.3644148111343384
1782811294478759200,2.21475927734375,-0.03772066533565521,0.03487997129559517,0.24992738664150238
1782811294488831200,2.224831298828125,-0.04675673320889473,0.022859692573547363,0.12758868932724
1782811294498902300,2.23490234375,-0.05920195206999779,0.0007748975185677409,0.025195995345711708
1782811294508974300,2.244974365234375,-0.06081099063158035,0.009797320701181889,-0.040334828197956085
1782811294519046400,2.25504638671875,-0.04826670140028,0.04801128804683685,-0.07617911696434021
1782811294529117400,2.265117431640625,-0.017057325690984726,0.12770076096057892,-0.08347101509571075
1782811294539189200,2.275189208984375,0.03507431969046593,0.21126675605773926,-0.07123352587223053
1782811294549260000,2.285260009765625,0.0953550636768341,0.27730846405029297,-0.03659176826477051
1782811294559332400,2.295332275390625,0.16139160096645355,0.31356552243232727,0.01592177338898182
1782811294569404400,2.305404296875,0.22585952281951904,0.31397318840026855,0.08370308578014374
1782811294579475200,2.31547509765625,0.28665363788604736,0.3012517988681793,0.16059574484825134
1782811294589547300,2.32554736328125,0.3416875898838043,0.28968629240989685,0.23479127883911133
1782811294599618300,2.335618408203125,0.39297714829444885,0.2846020460128784,0.3003729581832886
1782811294609690000,2.345690185546875,0.43405967950820923,0.2783883512020111,0.348095566034317
1782811294619762200,2.35576220703125,0.46947839856147766,0.28113141655921936,0.3769035041332245
1782811294629833200,2.365833251953125,0.49272748827934265,0.2927049398422241,0.39141032099723816
1782811294639905300,2.3759052734375,0.5073714256286621,0.29289665818214417,0.3848453760147095
1782811294649976300,2.385976318359375,0.528326153755188,0.2719821035861969,0.35914885997772217
1782811294660048100,2.396048095703125,0.5566504597663879,0.23270368576049805,0.318065345287323
1782811294670120200,2.4061201171875,0.5851470232009888,0.15574954450130463,0.2732389271259308
1782811294680191200,2.416191162109375,0.6121120452880859,0.05649112910032272,0.2323002815246582
1782811294690263300,2.42626318359375,0.624866247177124,-0.053981564939022064,0.20638908445835114
1782811294700334300,2.436334228515625,0.6221937537193298,-0.17154096066951752,0.18789076805114746
1782811294710406400,2.446406494140625,0.6090672612190247,-0.28528693318367004,0.18193663656711578
1782811294720478200,2.456478271484375,0.5874223709106445,-0.3768618702888489,0.19407853484153748
1782811294730549200,2.46654931640625,0.5700027942657471,-0.4423650801181793,0.2203807830810547
1782811294740621300,2.476621337890625,0.5374001264572144,-0.4692254662513733,0.26502281427383423
1782811294750692400,2.4866923828125,0.49753955006599426,-0.46013274788856506,0.32536789774894714
1782811294760764400,2.496764404296875,0.4398895800113678,-0.4267990291118622,0.4012647867202759
1782811294770836500,2.50683642578125,0.38247770071029663,-0.38686373829841614,0.48092636466026306
1782811294780907300,2.5169072265625,0.33376020193099976,-0.33728232979774475,0.551419198513031
1782811294790979000,2.52697900390625,0.29689517617225647,-0.28023383021354675,0.6275129318237305
1782811294801050000,2.537050048828125,0.27835211157798767,-0.2134486883878708,0.6836127042770386
1782811294811122200,2.5471220703125,0.27682697772979736,-0.13074533641338348,0.7174781560897827
1782811294821194200,2.5571943359375,0.2924421429634094,-0.05729695409536362,0.7182406187057495
1782811294831265300,2.567265380859375,0.32232025265693665,-0.015985937789082527,0.6860498785972595
1782811294841337000,2.577337158203125,0.34385988116264343,-0.00829792395234108,0.6290497183799744
1782811294851409200,2.5874091796875,0.35742810368537903,-0.007506905123591423,0.5642252564430237
1782811294861480200,2.597480224609375,0.35359928011894226,-0.01676139049232006,0.4962443709373474
1782811294871552300,2.60755224609375,0.34019917249679565,-0.031433798372745514,0.4232903718948364
1782811294881623300,2.617623291015625,0.32038581371307373,-0.04289684444665909,0.3483956456184387
1782811294891695400,2.6276953125,0.2941334843635559,-0.01696065440773964,0.25811463594436646
1782811294901767200,2.63776708984375,0.25844499468803406,0.03187985345721245,0.15916995704174042
1782811294911838200,2.647838134765625,0.21507249772548676,0.06816519796848297,0.05944915488362312
1782811294921910300,2.65791015625,0.17205525934696198,0.07521991431713104,-0.04956015199422836
1782811294931981300,2.667981201171875,0.1431330293416977,0.07704747468233109,-0.1573004424571991
1782811294942053400,2.678053466796875,0.1330183446407318,0.07833591103553772,-0.249098002910614
1782811294952125200,2.688125244140625,0.13307498395442963,0.07972446829080582,-0.32799312472343445
1782811294962196200,2.6981962890625,0.13751767575740814,0.059547025710344315,-0.3844151198863983
1782811294972268300,2.708268310546875,0.13882030546665192,0.03809874504804611,-0.4144398272037506
1782811294982339000,2.718339111328125,0.1284576803445816,0.023806357756257057,-0.41363343596458435
1782811294992411100,2.7284111328125,0.10561101138591766,0.00645771250128746,-0.3997524082660675
1782811295002483500,2.7384833984375,0.08160154521465302,-0.01947268843650818,-0.38250765204429626
1782811295012554200,2.74855419921875,0.058008626103401184,-0.06080034375190735,-0.3703776001930237
1782811295022626000,2.7586259765625,0.03711719065904617,-0.09085837751626968,-0.37046095728874207
1782811295032697000,2.768697021484375,0.02975236065685749,-0.10406121611595154,-0.3820198178291321
1782811295042769200,2.77876904296875,0.028075899928808212,-0.09242080897092819,-0.3990517854690552
1782811295052841200,2.78884130859375,0.0342596061527729,-0.07742490619421005,-0.4279361665248871
1782811295062912300,2.798912353515625,0.046372462064027786,-0.07684779912233353,-0.4499610662460327
1782811295072985600,2.808985595703125,0.06332378834486008,-0.10271704196929932,-0.4640156030654907
1782811295083056600,2.819056640625,0.0735521912574768,-0.16345734894275665,-0.4666516184806824
1782811295093128700,2.829128662109375,0.08590074628591537,-0.2283625453710556,-0.4602196514606476
1782811295103200800,2.83920068359375,0.09569505602121353,-0.2759473919868469,-0.4478521943092346
1782811295113271600,2.849271484375,0.10340283811092377,-0.2954723536968231,-0.42776650190353394
1782811295123343400,2.85934326171875,0.0939968153834343,-0.2941029667854309,-0.42363274097442627
1782811295133414400,2.869414306640625,0.039344605058431625,-0.2781240940093994,-0.4639066755771637
1782811295143486500,2.879486572265625,-0.053925421088933945,-0.25678709149360657,-0.5331038236618042
1782811295153558500,2.88955859375,-0.16234640777111053,-0.23174282908439636,-0.6177092790603638
1782811295163629600,2.899629638671875,-0.26297950744628906,-0.20444729924201965,-0.688827395439148
1782811295173701600,2.90970166015625,-0.3291340470314026,-0.16987866163253784,-0.7283468246459961
1782811295183772700,2.919772705078125,-0.35104864835739136,-0.1240275576710701,-0.7326627373695374
1782811295193844500,2.929844482421875,-0.3343670964241028,-0.07083222270011902,-0.6943438649177551
1782811295203916500,2.93991650390625,-0.28670182824134827,-0.017141297459602356,-0.6189982295036316
1782811295213987600,2.949987548828125,-0.2300223857164383,0.04180508852005005,-0.5155232548713684
1782811295224059600,2.9600595703125,-0.18202875554561615,0.09608057141304016,-0.3885573446750641
1782811295234130700,2.970130615234375,-0.16141928732395172,0.10889915376901627,-0.25485536456108093
1782811295244202500,2.980202392578125,-0.17098721861839294,0.07755481451749802,-0.1149429976940155
1782811295254274600,2.990274658203125,-0.21184463798999786,0.05632786080241203,0.012938721105456352
1782811295264345600,3.000345703125,-0.2775599956512451,0.04723929241299629,0.11493565887212753
1782811295274417700,3.010417724609375,-0.35605016350746155,0.049450695514678955,0.1820284128189087
1782811295284488700,3.02048876953125,-0.43198275566101074,0.0705229640007019,0.21310564875602722
1782811295294560800,3.030560791015625,-0.4903624355792999,0.11688140779733658,0.22338438034057617
1782811295304632600,3.040632568359375,-0.5391440987586975,0.1746016889810562,0.21648919582366943
1782811295314703600,3.05070361328125,-0.560328483581543,0.22002862393856049,0.20267075300216675
1782811295324775700,3.060775634765625,-0.5598781108856201,0.24246495962142944,0.17484018206596375
1782811295334846500,3.070846435546875,-0.5499251484870911,0.2377857118844986,0.13903860747814178
1782811295344918500,3.08091845703125,-0.5501496195793152,0.21934731304645538,0.09448019415140152
1782811295354990600,3.090990478515625,-0.5652668476104736,0.19410915672779083,0.05817490816116333
1782811295365061600,3.1010615234375,-0.5855603814125061,0.1373702436685562,0.02056015655398369
1782811295375133400,3.111133544921875,-0.6109870672225952,0.05153517425060272,-0.014485410414636135
1782811295385204500,3.12120458984375,-0.6360460519790649,-0.012575367465615273,-0.04294554889202118
1782811295395276500,3.131276611328125,-0.6549659967422485,-0.014011932536959648,-0.04874374344944954
1782811295405348600,3.1413486328125,-0.6613706350326538,0.04987197369337082,-0.043601445853710175
1782811295415419600,3.151419677734375,-0.6592769622802734,0.14713869988918304,-0.02314196154475212
1782811295425491500,3.161491455078125,-0.6450085639953613,0.24880754947662354,-0.005654048640280962
1782811295435562500,3.1715625,-0.6123331785202026,0.328705370426178,0.020806699991226196
1782811295445634600,3.181634521484375,-0.558504581451416,0.3832455575466156,0.05507013201713562
1782811295455706600,3.19170654296875,-0.508417010307312,0.3998478651046753,0.09217126667499542
1782811295465777700,3.201777587890625,-0.46410706639289856,0.37881821393966675,0.12199200689792633
1782811295475849700,3.211849609375,-0.42995157837867737,0.34391048550605774,0.14216527342796326
1782811295485920800,3.221920654296875,-0.4032973349094391,0.30173054337501526,0.1447879672050476
1782811295495992600,3.23199267578125,-0.38012412190437317,0.24644722044467926,0.1256471872329712
1782811295506063600,3.242063720703125,-0.3789275586605072,0.18266531825065613,0.09051529318094254
1782811295516135700,3.2521357421875,-0.38797619938850403,0.12646116316318512,0.0603073313832283
1782811295526207700,3.262207763671875,-0.39889222383499146,0.09782631695270538,0.0435778871178627
1782811295536278500,3.272278564453125,-0.39968910813331604,0.08300244808197021,0.050955452024936676
1782811295546350600,3.2823505859375,-0.3929917812347412,0.07037799060344696,0.07318565994501114
1782811295556421600,3.292421630859375,-0.3762904703617096,0.057856135070323944,0.11230771988630295
1782811295566493400,3.302493408203125,-0.36192724108695984,0.032220810651779175,0.15437181293964386
1782811295576565500,3.3125654296875,-0.3545171320438385,-0.005024246871471405,0.191421240568161
1782811295586636500,3.322636474609375,-0.347086638212204,-0.04976961389183998,0.22227582335472107
1782811295596708600,3.33270849609375,-0.3490440547466278,-0.10466136038303375,0.23443661630153656
1782811295606779600,3.342779541015625,-0.34819796681404114,-0.16544321179389954,0.22949832677841187
1782811295616851500,3.3528515625,-0.34550368785858154,-0.23453018069267273,0.21934352815151215
1782811295626923500,3.362923583984375,-0.3430783450603485,-0.28936469554901123,0.2185099571943283
1782811295636994600,3.37299462890625,-0.3521156311035156,-0.3355902433395386,0.2244185507297516
1782811295647066600,3.383066650390625,-0.36927276849746704,-0.3806557059288025,0.2349737137556076
1782811295657137700,3.3931376953125,-0.40392398834228516,-0.3471447825431824,0.25020673871040344
1782811295667209700,3.403209716796875,-0.4325926601886749,-0.2150501310825348,0.2716750204563141
1782811295677281500,3.413281494140625,-0.44509780406951904,-0.06619030982255936,0.2807353138923645
1782811295687352600,3.4233525390625,-0.4405115842819214,0.04865425080060959,0.27108481526374817
1782811295697424600,3.433424560546875,-0.4156455993652344,0.11301909387111664,0.24163012206554413
1782811295707495700,3.44349560546875,-0.37738263607025146,0.11432617157697678,0.20764793455600739
1782811295717567700,3.453567626953125,-0.3265019357204437,0.08356928825378418,0.18543900549411774
1782811295727639600,3.4636396484375,-0.266746461391449,0.049494147300720215,0.18457533419132233
1782811295737710600,3.473710693359375,-0.19806700944900513,-0.0030485535971820354,0.19959844648838043
1782811295747782400,3.483782470703125,-0.14774872362613678,-0.11800922453403473,0.19186995923519135
1782811295757853400,3.493853515625,-0.10771773010492325,-0.27733883261680603,0.16838569939136505
1782811295767925500,3.503925537109375,-0.07764371484518051,-0.4055982828140259,0.14397862553596497
1782811295777997600,3.51399755859375,-0.03371965140104294,-0.4712662100791931,0.13074025511741638
1782811295788068600,3.524068603515625,0.00886775553226471,-0.46678411960601807,0.13343457877635956
1782811295798140400,3.534140380859375,0.05443716049194336,-0.4041447341442108,0.13989920914173126
1782811295808211500,3.54421142578125,0.09145216643810272,-0.3163243234157562,0.13857083022594452
1782811295818283500,3.554283447265625,0.11009696125984192,-0.20045550167560577,0.12296151369810104
1782811295828355600,3.56435546875,0.12326664477586746,-0.06466885656118393,0.09290530532598495
1782811295838426600,3.574426513671875,0.1455519050359726,0.04799188673496246,0.062553770840168
1782811295848498700,3.584498779296875,0.17491751909255981,0.0875728577375412,0.03509870544075966
1782811295858569700,3.59456982421875,0.21446950733661652,0.07635029405355453,0.02508637122809887
1782811295868641500,3.6046416015625,0.2705143988132477,0.045282118022441864,0.03236798569560051
1782811295878712600,3.614712646484375,0.342194527387619,0.008033312857151031,0.06257517635822296
1782811295888784600,3.62478466796875,0.42172345519065857,-0.01363443210721016,0.12888257205486298
1782811295898856700,3.634856689453125,0.5168832540512085,-0.006104052532464266,0.21124182641506195
1782811295908927700,3.644927734375,0.6082504391670227,0.04017556086182594,0.28908228874206543
1782811295918999600,3.65499951171875,0.6886715888977051,0.09979125112295151,0.34312984347343445
1782811295929070600,3.665070556640625,0.7579587697982788,0.1403714418411255,0.3587128221988678
1782811295939142700,3.675142578125,0.8125187754631042,0.14413850009441376,0.3397205173969269
1782811295949214700,3.685214599609375,0.8521735072135925,0.11285541206598282,0.3057723939418793
1782811295959285500,3.695285400390625,0.8686936497688293,0.057026226073503494,0.26187029480934143
1782811295969357600,3.705357666015625,0.8685067296028137,-0.03435508534312248,0.22171489894390106
1782811295979428600,3.7154287109375,0.8658906817436218,-0.12618577480316162,0.1831231415271759
1782811295989500400,3.72550048828125,0.855931282043457,-0.2154426872730255,0.13613246381282806
1782811295999572500,3.735572509765625,0.848004162311554,-0.2917678654193878,0.08203554153442383
1782811296009643500,3.7456435546875,0.8337717056274414,-0.35824090242385864,0.014310285449028015
1782811296019715600,3.755715576171875,0.803407609462738,-0.40523338317871094,-0.053909435868263245
1782811296029786600,3.76578662109375,0.7536081075668335,-0.4319366216659546,-0.10549113899469376
1782811296039858700,3.775858642578125,0.701063334941864,-0.4221261143684387,-0.13810284435749054
1782811296049929700,3.7859296875,0.6525357365608215,-0.3898800313472748,-0.14986789226531982
1782811296060001500,3.79600146484375,0.615412175655365,-0.34485936164855957,-0.14403608441352844
1782811296070073600,3.806073486328125,0.5790181756019592,-0.29381027817726135,-0.12142025679349899
1782811296080144000,3.816143798828125,0.5375625491142273,-0.2309553474187851,-0.08825770020484924
1782811296090216000,3.8262158203125,0.5019518733024597,-0.16470442712306976,-0.061923567205667496
1782811296100287000,3.836286865234375,0.4744839370250702,-0.09877070784568787,-0.046156615018844604
1782811296110359000,3.846359130859375,0.45382288098335266,-0.04450294375419617,-0.04474886879324913
1782811296120430800,3.856430908203125,0.4422856569290161,-0.013689717277884483,-0.06050784885883331
1782811296130502000,3.866501953125,0.43271905183792114,0.00856711808592081,-0.08507949858903885
1782811296140574000,3.876573974609375,0.4310529828071594,0.0016394611448049545,-0.11306831985712051
1782811296150645000,3.88664501953125,0.42660579085350037,-0.027851318940520287,-0.1436651051044464
1782811296160717000,3.896717041015625,0.410683274269104,-0.07006801664829254,-0.16619305312633514
1782811296170789000,3.9067890625,0.3838873505592346,-0.09562157839536667,-0.18146894872188568
1782811296180860200,3.916860107421875,0.34793925285339355,-0.10205068439245224,-0.1934070736169815
1782811296190932000,3.926931884765625,0.3030436933040619,-0.09802238643169403,-0.21405242383480072
1782811296201003000,3.9370029296875,0.2577565908432007,-0.06948067247867584,-0.23199914395809174
1782811296211075000,3.947074951171875,0.21813593804836273,-0.021048692986369133,-0.25397446751594543
1782811296221146000,3.95714599609375,0.1885407269001007,0.030714744701981544,-0.2721444070339203
1782811296231218200,3.96721826171875,0.17293459177017212,0.06517631560564041,-0.2888890504837036
1782811296241290000,3.9772900390625,0.17028386890888214,0.07466341555118561,-0.29317551851272583
1782811296251360800,3.98736083984375,0.1744527816772461,0.050044093281030655,-0.28508591651916504
1782811296261432800,3.997432861328125,0.1712060272693634,0.00428001256659627,-0.2650405168533325
1782811296271504000,4.00750390625,0.15515649318695068,-0.05609811097383499,-0.2494508922100067
1782811296281576000,4.017575927734375,0.1196020096540451,-0.12809570133686066,-0.2468322366476059
1782811296291648000,4.02764794921875,0.07118361443281174,-0.20146259665489197,-0.260036438703537
1782811296301719000,4.037718994140625,0.012452918104827404,-0.25891098380088806,-0.28371700644493103
1782811296311790800,4.047790771484375,-0.03587040677666664,-0.30314022302627563,-0.31646084785461426
1782811296321862000,4.05786181640625,-0.07593785971403122,-0.34066227078437805,-0.3450562357902527
1782811296331934000,4.067933837890625,-0.10794692486524582,-0.3489854335784912,-0.35383641719818115
1782811296342006000,4.078006103515625,-0.13520123064517975,-0.3247300982475281,-0.3396632671356201
1782811296352077000,4.0880771484375,-0.16402623057365417,-0.2894144654273987,-0.31356483697891235
1782811296362149000,4.098149169921875,-0.19389399886131287,-0.2504034638404846,-0.27954694628715515
1782811296372220200,4.10822021484375,-0.21762356162071228,-0.1873885542154312,-0.24009352922439575
1782811296382292000,4.1182919921875,-0.24931447207927704,-0.09780318289995193,-0.20480698347091675
1782811296392363000,4.128363037109375,-0.29437384009361267,-0.004647407680749893,-0.20789065957069397
1782811296402435000,4.13843505859375,-0.36994120478630066,0.05859832838177681,-0.2721780240535736
1782811296412507100,4.148507080078125,-0.4709535539150238,0.08775833994150162,-0.3803071677684784
1782811296422578200,4.158578125,-0.5810664296150208,0.12442328780889511,-0.5040594339370728
1782811296432650000,4.16864990234375,-0.6609623432159424,0.187371626496315,-0.5809600949287415
1782811296442720800,4.178720703125,-0.690941572189331,0.2745908200740814,-0.5846045613288879
1782811296452793000,4.18879296875,-0.6583154201507568,0.36151158809661865,-0.5112099647521973
1782811296462865200,4.198865234375,-0.5643602013587952,0.41143497824668884,-0.3781791031360626
1782811296472936000,4.20893603515625,-0.43607810139656067,0.40891242027282715,-0.20709548890590668
1782811296483008000,4.219008056640625,-0.2934230864048004,0.39224639534950256,-0.010678991675376892
1782811296493079000,4.2290791015625,-0.18093650043010712,0.35058867931365967,0.18034076690673828
1782811296503150800,4.23915087890625,-0.1116366907954216,0.2599171996116638,0.33796119689941406
1782811296513222000,4.249221923828125,-0.07896929234266281,0.14142942428588867,0.45518022775650024
1782811296523294000,4.2592939453125,-0.09760532528162003,0.04015522822737694,0.5075948238372803
1782811296533366000,4.269365966796875,-0.15441082417964935,-0.024147063493728638,0.4961163401603699
1782811296543437000,4.27943701171875,-0.22372420132160187,-0.05839734897017479,0.42156854271888733
1782811296553509000,4.289509033203125,-0.28455933928489685,-0.07540402561426163,0.3073394298553467
1782811296563580200,4.299580078125,-0.319752961397171,-0.06295547634363174,0.1774216741323471
1782811296573652000,4.30965185546875,-0.3306753933429718,-0.025702646002173424,0.07009175419807434
1782811296583724000,4.31972412109375,-0.33331701159477234,0.030884983018040657,0.00197560410015285
1782811296593795000,4.329795166015625,-0.32876327633857727,0.0859287902712822,-0.01764044165611267
1782811296603867100,4.3398671875,-0.32735732197761536,0.11378827691078186,0.00868196040391922
1782811296613938200,4.349938232421875,-0.3278374969959259,0.11967519670724869,0.06801185756921768
1782811296624010000,4.360010009765625,-0.3339143395423889,0.1234053447842598,0.15192589163780212
1782811296634080800,4.370080810546875,-0.33605632185935974,0.13251520693302155,0.23573264479637146
1782811296644153000,4.380153076171875,-0.3420282304286957,0.14756432175636292,0.2929728031158447
1782811296654225200,4.39022509765625,-0.3395403027534485,0.1540406048297882,0.32279089093208313
1782811296664296000,4.4002958984375,-0.32524970173835754,0.1472475677728653,0.3221696615219116
1782811296674368000,4.410367919921875,-0.3044290840625763,0.14458706974983215,0.3013956546783447
1782811296684439000,4.42043896484375,-0.2864116132259369,0.14289537072181702,0.26401758193969727
1782811296694510800,4.4305107421875,-0.26708346605300903,0.14189375936985016,0.2258579432964325
1782811296704582000,4.440581787109375,-0.24401086568832397,0.15589547157287598,0.20349222421646118
1782811296714654000,4.450654052734375,-0.21758033335208893,0.17342813313007355,0.19357861578464508
1782811296724726000,4.46072607421875,-0.19289793074131012,0.19474497437477112,0.20012228190898895
1782811296734797000,4.470797119140625,-0.1655733585357666,0.21236790716648102,0.2115672081708908
1782811296744869000,4.480869140625,-0.14395011961460114,0.2088657170534134,0.21491529047489166
1782811296754940200,4.490940185546875,-0.14041636884212494,0.19342496991157532,0.20614497363567352
1782811296765012000,4.501011962890625,-0.15070804953575134,0.17754660546779633,0.1888916939496994
1782811296775084000,4.511083984375,-0.16546063125133514,0.16634880006313324,0.1686767041683197
1782811296785155000,4.521155029296875,-0.1835447996854782,0.14586856961250305,0.13912062346935272
1782811296795227100,4.53122705078125,-0.20002949237823486,0.12257736921310425,0.11728935688734055
1782811296805298200,4.541298095703125,-0.21484895050525665,0.09863967448472977,0.09831509739160538
1782811296815370000,4.551369873046875,-0.22324244678020477,0.07383312284946442,0.08631196618080139
1782811296825440800,4.561440673828125,-0.22882121801376343,0.05251411348581314,0.07731536030769348
1782811296835513000,4.57151318359375,-0.22237691283226013,0.03317530080676079,0.06730454415082932
1782811296845585200,4.581585205078125,-0.21436673402786255,0.001374716404825449,0.0573107972741127
1782811296855656000,4.591656005859375,-0.19891507923603058,-0.02901381626725197,0.06114441528916359
1782811296865728000,4.60172802734375,-0.18631228804588318,-0.06503857672214508,0.07574140280485153
1782811296875799000,4.611799072265625,-0.18802790343761444,-0.08572893589735031,0.09930798411369324
1782811296885870800,4.621870849609375,-0.2005283534526825,-0.07600192725658417,0.12299279868602753
1782811296895943000,4.63194287109375,-0.21891801059246063,-0.031047502532601357,0.1464800089597702
1782811296906014000,4.642013916015625,-0.2515009343624115,0.021758612245321274,0.1591554880142212
1782811296916086000,4.6520859375,-0.2893489599227905,0.05404331535100937,0.15732111036777496
1782811296926157000,4.662156982421875,-0.3266869783401489,0.07636436074972153,0.1383235603570938
1782811296936228900,4.672228759765625,-0.34734031558036804,0.09170017391443253,0.0974043533205986
1782811296946300000,4.6822998046875,-0.3583938479423523,0.08965057879686356,0.027273714542388916
1782811296956372000,4.6923720703125,-0.36522430181503296,0.06091746687889099,-0.0424443781375885
1782811296966444000,4.702444091796875,-0.37132149934768677,0.045113131403923035,-0.09060831367969513
1782811296976515000,4.71251513671875,-0.3775186538696289,0.059319231659173965,-0.10309773683547974
1782811296986587100,4.722587158203125,-0.3679659366607666,0.133962020277977,-0.08547461032867432
1782811296996658200,4.732658203125,-0.3466641306877136,0.28535714745521545,-0.04413276165723801
1782811297006730000,4.74272998046875,-0.32247430086135864,0.4212510883808136,-0.021319568157196045
1782811297016801000,4.752801025390625,-0.33095353841781616,0.429023802280426,-0.04228183999657631
1782811297026873000,4.762873046875,-0.3498111367225647,0.3271252512931824,-0.08959746360778809
1782811297036945200,4.772945068359375,-0.3579806685447693,0.19899071753025055,-0.1327981948852539
1782811297047016000,4.783015869140625,-0.36446523666381836,0.10911285132169724,-0.15820229053497314
1782811297057088000,4.793087890625,-0.37262916564941406,0.07464142888784409,-0.17235565185546875
1782811297067159000,4.803158935546875,-0.37828725576400757,0.0548337884247303,-0.16877451539039612
1782811297077230800,4.81323095703125,-0.3635604977607727,0.0451798290014267,-0.1455078125
1782811297087302000,4.823302001953125,-0.3224731981754303,0.04392459988594055,-0.09885423630475998
1782811297097374000,4.8333740234375,-0.26227590441703796,0.06290894001722336,-0.06124107912182808
1782811297107446000,4.843446044921875,-0.18937057256698608,0.07997339218854904,-0.028121015056967735
1782811297117517000,4.85351708984375,-0.10998280346393585,0.08221231400966644,0.009240737184882164
1782811297127588900,4.8635888671875,-0.011790072545409203,0.11974776536226273,0.05440191924571991
1782811297137660000,4.873659912109375,0.10055990517139435,0.18832096457481384,0.13129004836082458
1782811297147732000,4.88373193359375,0.2110060304403305,0.2866462171077728,0.23760811984539032
1782811297157804000,4.893803955078125,0.29350942373275757,0.3771316409111023,0.35656115412712097
1782811297167875000,4.903875,0.34461069107055664,0.4094530940055847,0.4596177935600281
1782811297177947100,4.913947021484375,0.3750074803829193,0.38127604126930237,0.5333152413368225
1782811297188018000,4.924017822265625,0.3908964991569519,0.28208664059638977,0.5666680932044983
1782811297198090000,4.934090087890625,0.39558470249176025,0.12107086181640625,0.5576714277267456
1782811297208160800,4.944160888671875,0.39180320501327515,-0.05438502877950668,0.5073296427726746
1782811297218232800,4.95423291015625,0.3887040913105011,-0.20696312189102173,0.4163150191307068
1782811297228305000,4.964304931640625,0.3926647901535034,-0.33071964979171753,0.28207603096961975
1782811297238376000,4.9743759765625,0.40318506956100464,-0.437602162361145,0.12414071708917618
1782811297248448000,4.984447998046875,0.40479716658592224,-0.5236871838569641,-0.03794381767511368
1782811297258519000,4.99451904296875,0.40152043104171753,-0.547973096370697,-0.1712784320116043
1782811297268590800,5.0045908203125,0.3915940523147583,-0.5132216215133667,-0.2458469122648239
1782811297278662000,5.014661865234375,0.3822160065174103,-0.458464652299881,-0.23834265768527985
1782811297288734000,5.02473388671875,0.38217684626579285,-0.39695319533348083,-0.17008019983768463
1782811297298806000,5.034805908203125,0.37886759638786316,-0.33622512221336365,-0.08104035258293152
1782811297308877000,5.044876953125,0.3515850007534027,-0.2677824795246124,0.009954494424164295
1782811297318948900,5.054948974609375,0.3286386728286743,-0.1590040773153305,0.09925134479999542
1782811297329020000,5.06502001953125,0.31577175855636597,-0.034691907465457916,0.17243553698062897
1782811297339092000,5.075092041015625,0.325071781873703,0.0449424684047699,0.2103738635778427
1782811297349163000,5.0851630859375,0.3493315875530243,0.08432967960834503,0.2105056643486023
1782811297359235000,5.095235107421875,0.3890739381313324,0.08478907495737076,0.1794832944869995
1782811297369307100,5.10530712890625,0.4243250787258148,0.058376774191856384,0.14138536155223846
1782811297379378000,5.1153779296875,0.44397708773612976,0.00762517936527729,0.10669022798538208
1782811297389450000,5.125449951171875,0.4591987729072571,-0.05545121431350708,0.07313880324363708
1782811297399520800,5.135520751953125,0.4553861916065216,-0.1398470550775528,0.0358489565551281
1782811297409592800,5.1455927734375,0.4416595697402954,-0.2275097519159317,-0.0014933844795450568
1782811297419664000,5.155663818359375,0.42545050382614136,-0.2913726270198822,-0.038011979311704636
1782811297429736000,5.16573583984375,0.392311155796051,-0.32647600769996643,-0.07362212240695953
1782811297439808000,5.17580810546875,0.3533312678337097,-0.343244343996048,-0.11475970596075058
1782811297449879000,5.185879150390625,0.3129746913909912,-0.34007176756858826,-0.15857745707035065
1782811297459950800,5.195950927734375,0.2821046710014343,-0.32369518280029297,-0.19130398333072662
1782811297470022000,5.20602197265625,0.2720220386981964,-0.2788577377796173,-0.19863539934158325
1782811297480094000,5.216093994140625,0.27173253893852234,-0.23184390366077423,-0.18225643038749695
1782811297490165000,5.2261650390625,0.27815476059913635,-0.2100258469581604,-0.13760137557983398
1782811297500237000,5.236237060546875,0.2792471945285797,-0.2201189547777176,-0.08062250912189484
1782811297510308900,5.246308837890625,0.2772342264652252,-0.20701521635055542,-0.021505702286958694
1782811297520380000,5.2563798828125,0.2709989547729492,-0.16558174788951874,0.02239224687218666
1782811297530452000,5.266451904296875,0.2610331177711487,-0.1256633698940277,0.040891412645578384
1782811297540523000,5.27652294921875,0.24305759370326996,-0.1051679477095604,0.03207714855670929
1782811297550595000,5.286594970703125,0.20835614204406738,-0.11939291656017303,-0.0013537561753764749
1782811297560665900,5.296665771484375,0.16501905024051666,-0.15862634778022766,-0.037693653255701065
1782811297570738200,5.30673828125,0.1191159039735794,-0.21018078923225403,-0.06663583219051361
1782811297580808000,5.316807861328125,0.07935783267021179,-0.2666968107223511,-0.08446622639894485
1782811297590879000,5.32687890625,0.045568205416202545,-0.31083375215530396,-0.1012912392616272
1782811297600951000,5.336950927734375,0.017710208892822266,-0.345538467168808,-0.10818669945001602
1782811297611022000,5.34702197265625,-0.005116011016070843,-0.36608660221099854,-0.09935113042593002
1782811297621094000,5.357093994140625,-0.020562078803777695,-0.35947665572166443,-0.0769110694527626
1782811297631165000,5.3671650390625,-0.04241127893328667,-0.30148836970329285,-0.051782604306936264
1782811297641237000,5.377237060546875,-0.08938677608966827,-0.22836516797542572,-0.05489450693130493
1782811297651309000,5.38730908203125,-0.1806308925151825,-0.17685666680335999,-0.10376770794391632
1782811297661380000,5.397380126953125,-0.3047770857810974,-0.17630219459533691,-0.21482151746749878
1782811297671452200,5.4074521484375,-0.4317959249019623,-0.19635069370269775,-0.34243011474609375
1782811297681523000,5.41752294921875,-0.5437663793563843,-0.20788991451263428,-0.43942004442214966
1782811297691595000,5.427594970703125,-0.620466411113739,-0.19742724299430847,-0.4761767089366913
1782811297701665800,5.437665771484375,-0.6438375115394592,-0.14316824078559875,-0.4488433599472046
1782811297711737900,5.44773779296875,-0.5722444653511047,-0.07793872058391571,-0.34877604246139526
1782811297721810000,5.457809814453125,-0.4174615442752838,-0.016655920073390007,-0.18187761306762695
1782811297731881000,5.467880859375,-0.214718759059906,0.05623346567153931,0.01831233501434326
1782811297741953000,5.477953125,-0.011118224821984768,0.10679357498884201,0.2402639091014862
1782811297752023800,5.48802392578125,0.10862559825181961,0.13668695092201233,0.4411807954311371
1782811297762095900,5.498095947265625,0.12159572541713715,0.1597515195608139,0.6172980070114136
1782811297772167000,5.5081669921875,0.05332551151514053,0.19904311001300812,0.7394607663154602
1782811297782239000,5.518239013671875,-0.06713992357254028,0.24779920279979706,0.7835733890533447
1782811297792311000,5.52831103515625,-0.1991579830646515,0.2968399226665497,0.7369269728660583
1782811297802382000,5.538382080078125,-0.3173288404941559,0.33398914337158203,0.609177827835083
1782811297812454000,5.548453857421875,-0.4000897705554962,0.35982435941696167,0.44057154655456543
1782811297822525000,5.55852490234375,-0.4517335295677185,0.39225873351097107,0.2650194466114044
1782811297832597000,5.568596923828125,-0.489763468503952,0.41427081823349,0.0979209914803505
1782811297842668000,5.57866796875,-0.5429033637046814,0.420024037361145,-0.07844126224517822
1782811297852740000,5.588739990234375,-0.587274968624115,0.4368208944797516,-0.24270617961883545
1782811297862812200,5.598812255859375,-0.6336557865142822,0.46188417077064514,-0.4060985743999481
1782811297872883000,5.608883056640625,-0.6881074905395508,0.48737937211990356,-0.5453314185142517
1782811297882955000,5.618955078125,-0.7135025858879089,0.5440477132797241,-0.6683377623558044
1782811297893025800,5.62902587890625,-0.6586812138557434,0.6387737393379211,-0.755377471446991
1782811297903097900,5.639097900390625,-0.5284963250160217,0.7029285430908203,-0.8103922605514526
1782811297913169000,5.6491689453125,-0.3931470513343811,0.7527816891670227,-0.7757005095481873
1782811297923241000,5.659240966796875,-0.45216482877731323,0.7086414098739624,-0.4682614505290985
1782811297933315000,5.669315185546875,-0.6999939680099487,0.16398237645626068,-0.24945347011089325
1782811297943387100,5.67938720703125,-0.7975064516067505,-0.30378082394599915,-0.08711222559213638
1782811297953458200,5.689458251953125,-0.778313398361206,-0.46879616379737854,0.08390157669782639
1782811297963530000,5.699530029296875,-0.777357816696167,-0.3996085822582245,0.26560667157173157
1782811297973602000,5.70960205078125,-0.7828047871589661,-0.28614941239356995,0.36874473094940186
1782811297983672800,5.7196728515625,-0.7429630756378174,-0.26921090483665466,0.38705477118492126
1782811297993745000,5.729744873046875,-0.6005539298057556,-0.2214365303516388,0.4363938570022583
1782811298003816000,5.73981591796875,-0.40188315510749817,-0.1429569125175476,0.5460138320922852
1782811298013888000,5.749887939453125,-0.20387978851795197,-0.08530304580926895,0.6622983813285828
