time,seconds_elapsed,z,y,x
1782661049760692500,0.0786923828125,-0.20043606310486792,0.2254694916723296,0.15374050903394818
1782661049770763500,0.088763427734375,-0.0038607670813798904,0.34409766119495033,0.18447306255847215
1782661049780834600,0.09883447265625,0.3405670028507709,0.35877018353939055,0.17674144539311526
1782661049790904600,0.108904541015625,0.6757622495353222,0.34504834951590746,0.19441461085826156
1782661049800975600,0.1189755859375,0.9550497310370206,0.270527726865001,0.2064065158165991
1782661049811045400,0.12904541015625,1.0237433280348778,0.17714282926823943,0.19157924130186438
1782661049821116400,0.139116455078125,0.9213023597359656,0.05905285827554762,0.12722031250745058
1782661049831186400,0.1491865234375,0.880950475603342,-0.003970364935696124,0.04101327065080404
1782661049841257500,0.159257568359375,0.8711305078566074,-0.06298066271115094,0.00537350973188877
1782661049851327500,0.169327392578125,0.7328378894537687,-0.17493052351363003,-0.009597849428653717
1782661049861398500,0.1793984375,0.4295002548009157,-0.25315657655373214,-0.09309154067337512
1782661049871468500,0.189468505859375,0.07136895368695259,-0.23780849303528664,-0.17109014163315295
1782661049881539600,0.19953955078125,-0.26933307372033594,-0.17228201829884202,-0.24033318920731542
1782661049891609300,0.209609375,-0.4940069215029478,-0.0664449412882328,-0.30359920819848774
1782661049901680400,0.219680419921875,-0.49534138497710223,0.03793587249945849,-0.3137842098653316
1782661049911751400,0.22975146484375,-0.3120686381191015,0.06066672321297228,-0.21524770165905355
1782661049921821700,0.23982177734375,-0.12153612939119338,-0.018770130388997493,-0.11984817630425094
1782661049931892500,0.249892578125,-0.035838206100463864,-0.12562212006319312,-0.03533712471053004
1782661049941962500,0.25996240234375,-0.050588615986704825,-0.17293087412901223,-0.04124766392856836
1782661049952033500,0.270033447265625,-0.07621931632757187,-0.144354950649105,-0.0838135708488524
1782661049962103300,0.280103271484375,-0.03947685486376285,-0.08671298208478838,-0.10258169194385408
1782661049972174300,0.29017431640625,0.0916284823834896,-0.030915581941232083,-0.007342325586825609
1782661049982244600,0.30024462890625,0.23457272598445414,-0.01757492925506085,0.13356880475133656
1782661049992315600,0.310315673828125,0.29827684413194655,-0.041914895665645595,0.24332243415117263
1782661050002385400,0.320385498046875,0.21220307326614857,-0.09230462807938455,0.2932761132352054
1782661050012456400,0.33045654296875,0.06769348004460335,-0.07716160214636475,0.29017990078553557
1782661050022527500,0.340527587890625,-0.006292962664365768,-0.01611402638964355,0.25250644208192824
1782661050032597500,0.350597412109375,-0.136531453949213,0.03960786083228886,0.21680647540837525
1782661050042668500,0.36066845703125,-0.15713994221389294,0.04412274444084614,0.15352160558626055
1782661050052738300,0.37073828125,-0.04900689975321293,0.02677848213650286,0.20878288955911992
1782661050062809300,0.380809326171875,0.06860299610495567,0.02929093988146633,0.2890466589719057
1782661050072879600,0.390879638671875,0.08988134645521641,0.04088189935609698,0.36815526700019835
1782661050082950700,0.40095068359375,0.050313890698552126,0.03243380448445678,0.36426059764921664
1782661050093020400,0.4110205078125,-0.02064063696861267,0.08486187432538718,0.3247833043940365
1782661050103091500,0.421091552734375,-0.07908522715270519,0.13794069969262926,0.28701500701382754
1782661050113161500,0.431161376953125,-0.017750760746002195,0.1796499897835776,0.2674620191514492
1782661050123232300,0.441232177734375,0.11884908226430416,0.21108988785985855,0.27776494810953734
1782661050133302500,0.451302490234375,0.2350882742911577,0.19076580602712928,0.2817040411241352
1782661050143373600,0.46137353515625,0.28170740212500095,0.16090104831308125,0.23992066288366912
1782661050153444600,0.471444580078125,0.20344225918352601,0.13158588730581103,0.16591975325793026
1782661050163514400,0.481514404296875,0.08364566693603992,0.0790434338375926,0.08018339765295386
1782661050173585400,0.49158544921875,0.037625089517235755,0.008364910100214182,-0.02809665206298232
1782661050183655400,0.501655517578125,0.054690206086635586,-0.015279000337608158,-0.07668956418782472
1782661050193726500,0.5117265625,0.13917466193437575,-0.044808936606720084,-0.09809840904995798
1782661050203796500,0.52179638671875,0.23315175327062607,-0.08087061273213475,-0.1279043492488563
1782661050213867500,0.531867431640625,0.2865156791895628,-0.1362045600824058,-0.12298530528619885
1782661050223937500,0.5419375,0.3219628401458263,-0.1820747692450881,-0.11936521509289741
1782661050234008600,0.552008544921875,0.29438860452175136,-0.17961877266140652,-0.1463308172993362
1782661050244078300,0.562078369140625,0.26676293097138404,-0.18145062773106618,-0.1255462418153882
1782661050254149400,0.5721494140625,0.17821487894654273,-0.19604129874464124,-0.12782353909760713
1782661050264219600,0.5822197265625,0.04541559726297855,-0.18732123679751528,-0.14088804172351957
1782661050274290700,0.592290771484375,0.004731120175123215,-0.16358000346506013,-0.1213221943795681
1782661050284361500,0.602361572265625,0.05898527293205261,-0.12307080987887456,-0.09465484446734189
1782661050294431500,0.612431396484375,0.10508651437163352,-0.15280645218738353,-0.052077539370208974
1782661050304502500,0.62250244140625,-0.08928513412773609,-0.2052318825466558,-0.009626198740303515
1782661050314572500,0.632572509765625,-0.4160264407217502,-0.2520677949363366,-0.02830357281193137
1782661050324643300,0.642643310546875,-0.590895516371727,-0.24576942544449118,-0.1072682423248887
1782661050334713300,0.65271337890625,-0.5495411771982908,-0.2526428366116248,-0.18177768599465488
1782661050344784400,0.662784423828125,-0.3529769870907068,-0.25290177980875594,-0.1712396331064403
1782661050354854700,0.672854736328125,-0.09815350023806095,-0.29108324283342807,-0.13408566823229193
1782661050364925400,0.682925537109375,0.05361877746284008,-0.31834238462634384,-0.05731763198077678
1782661050374995500,0.692995361328125,0.10477204159498214,-0.2666061329744756,-0.003061871788650751
1782661050385066500,0.70306640625,0.02505553080141544,-0.22339063957165925,0.03201806329041719
1782661050395137500,0.713137451171875,-0.03552957854270935,-0.24187893907828256,0.019826397976279258
1782661050405207300,0.723207275390625,0.018887655821442605,-0.2904734038393944,0.01390899062603712
1782661050415278300,0.7332783203125,0.11944938624501228,-0.3454976641859859,0.026193302659690377
1782661050425349000,0.74334912109375,0.06940028396248817,-0.36461167610920964,0.022264146517217157
1782661050435420000,0.753419921875,-0.04666296697556972,-0.3410154042053968,-0.0011811726085841656
1782661050445490000,0.763489990234375,-0.10616904891133308,-0.297030040674936,0.04535743733495474
1782661050455561000,0.77356103515625,-0.0796995596587658,-0.28494254812132563,0.09876067235097288
1782661050465631000,0.783630859375,-0.06413081912696361,-0.2605858497716486,0.13034019809365271
1782661050475701800,0.79370166015625,-0.09081658147871494,-0.26290053818849846,0.14040712633877991
1782661050485771800,0.803771728515625,-0.14612930337786673,-0.2607951086081564,0.15602189796939492
1782661050495842800,0.8138427734375,-0.21171499748826025,-0.2273644020408392,0.16434855841845272
1782661050505912800,0.823912841796875,-0.19542378790080547,-0.22879279087614265,0.1440511819295585
1782661050515984000,0.83398388671875,-0.17437457013130186,-0.26587405584026125,0.10990063665509223
1782661050526055000,0.844054931640625,-0.23024141878187654,-0.27937327835531905,0.06315262174457312
1782661050536125000,0.854125,-0.26970190703272817,-0.27958145947959273,0.019590835654735565
1782661050546196000,0.864196044921875,-0.25775720221698284,-0.21300070818355304,0.038378245972096915
1782661050556265700,0.874265625,-0.2465168462783098,-0.14797622815249487,0.1272528996028006
1782661050566336800,0.884336669921875,-0.20834347522854804,-0.11282036915984936,0.1744233777090907
1782661050576407000,0.894406982421875,-0.16304712043106556,-0.1174671081203036,0.12797156926617026
1782661050586478000,0.90447802734375,-0.1615980906665325,-0.15413312508072702,0.11012275497317313
1782661050596547800,0.9145478515625,-0.12976970472931862,-0.1818159539121203,0.08944763121306895
1782661050606619000,0.924618896484375,-0.04856967737972736,-0.21435975810969246,0.029915099661797284
1782661050616689000,0.93468896484375,0.08593816178739071,-0.1985136984738521,0.0007810673750936985
1782661050626760000,0.944760009765625,0.20117606781721115,-0.19514950100407003,0.0004243628919124603
1782661050636830000,0.954829833984375,0.22254268097281454,-0.18657003483772278,0.03556801085695624
1782661050646901000,0.96490087890625,0.1262152271181345,-0.1874249346340075,0.049112259823828934
1782661050656972000,0.974971923828125,0.04989478850364685,-0.16678448032848536,0.05923281795233488
1782661050667041800,0.985041748046875,-0.0045019875943660735,-0.15343805548865347,0.07739391306489705
1782661050677112800,0.99511279296875,-0.07077215683758259,-0.13766909794332458,0.07189473112672568
1782661050687182800,1.005182861328125,-0.07724515224397183,-0.15760036279987544,0.03681976448372006
1782661050697254000,1.01525390625,-0.10543138228654861,-0.18893521133279426,0.007438479437679052
1782661050707324000,1.025323974609375,-0.13073533489108086,-0.21635270375888793,-0.017521628165245055
1782661050717395000,1.03539501953125,-0.12459493243992328,-0.1997466560686007,-0.011689999402314424
1782661050727465000,1.04546484375,-0.12941548446416853,-0.1492114142369479,0.0028055589400231835
1782661050737536000,1.055535888671875,-0.09537292960882186,-0.10021040536840446,-0.0037545302279293536
1782661050747605800,1.065605712890625,0.03633037353157997,-0.07128151743209454,0.030313159068673847
1782661050757676800,1.0756767578125,0.14035539615154266,-0.08400814357288182,0.0834166804857552
1782661050767746800,1.085746826171875,0.16028817711174487,-0.09903624702249653,0.09534136542677879
1782661050777817900,1.09581787109375,0.059230772125720976,-0.11870887007601559,0.09137743023186921
1782661050787889000,1.105888916015625,-0.08578326348662375,-0.0846601412082091,0.021554829204082488
1782661050797959000,1.115958984375,-0.1567144102782011,-0.062248046720819544,-0.02403203297257423
1782661050808030000,1.126030029296875,-0.13155483458042144,-0.060789956866996356,-0.07355477329343557
1782661050818100000,1.136099853515625,-0.06109188982248306,-0.04241088988850824,-0.043350189165771005
1782661050828170800,1.146170654296875,0.03725333359539509,-0.014540182935353368,0.013355740657448769
1782661050838240800,1.15624072265625,0.04592997652590274,-0.010847374565713106,0.021687223412096498
1782661050848311800,1.166311767578125,-0.010379939717054367,-0.016380668836040422,0.018865882381051777
1782661050858382000,1.176382080078125,-0.03565992692410946,-0.03312659078789875,-0.015485153901576995
1782661050868452900,1.186452880859375,-0.005513210463523864,-0.06305354528427123,-0.05966711771637201
1782661050878523000,1.19652294921875,0.059768532264232635,-0.10347820239216089,-0.06308350203111768
1782661050888594000,1.206593994140625,0.0789496180742979,-0.0942859198234044,-0.04856996964067221
1782661050898664000,1.216663818359375,0.06671440587937831,-0.05192493349122815,-0.013407616975158453
1782661050908734700,1.226734619140625,0.06053717854917049,-0.03062227068361826,0.011151216350495815
1782661050918805000,1.236804931640625,0.009961422044038772,-0.0026387510057538748,0.009615385085344314
1782661050928876000,1.2468759765625,-0.05181435838937759,0.023663473654817788,0.0011000701963901518
1782661050938947000,1.256947021484375,-0.021826047360897063,0.01883154172003269,-0.0071207917906343935
1782661050949016800,1.267016845703125,0.02923836944401264,-0.010590075336396694,0.00928133082538843
1782661050959087900,1.277087890625,0.10198913287818431,-0.040328503257036206,0.006885083338618278
1782661050969158000,1.287157958984375,0.16065058068335056,-0.06616906522260979,0.033044629859179254
1782661050979229000,1.29722900390625,0.19507015215754508,-0.05820217799665406,0.06493570576906203
1782661050989299000,1.307298828125,0.18015782970786093,-0.03642782429037615,0.11170914738178253
1782661050999370000,1.317369873046875,0.1477162803083658,-0.03700792573327198,0.14622604175060985
1782661051009440000,1.32743994140625,0.0905523775845766,-0.034165596713125704,0.13590163161307572
1782661051019511000,1.337510986328125,0.09537877482771873,-0.048972486026957626,0.17133315660879014
1782661051029580800,1.347580810546875,0.11629413708448409,-0.08780318847429007,0.17648177154362202
1782661051039651800,1.35765185546875,0.08387070786356926,-0.07139596955804153,0.1978421010889113
1782661051049721900,1.367721923828125,0.008330021449923515,-0.04141785113001242,0.1824177374638617
1782661051059793000,1.37779296875,0.011543722799420356,-0.05048935686331242,0.14190189494118094
1782661051069863000,1.38786279296875,-0.04707914656102657,-0.0903313004461117,0.10490823519527911
1782661051079934000,1.397933837890625,-0.11552607532143593,-0.06961582640931009,0.09824863117560743
1782661051090005000,1.4080048828125,-0.1746083788871765,-0.02880529352268204,0.10850085285976528
1782661051100075000,1.418074951171875,-0.19933774647414684,-0.0040955256853252645,0.11871405770778655
1782661051110145800,1.428145751953125,-0.17375789953768253,0.01987940680515021,0.09575330722853541
1782661051120215800,1.4382158203125,-0.1841121202915907,-0.02238231127047911,0.07668620318695903
1782661051130286800,1.448286865234375,-0.18236790697276592,-0.05488132647825405,0.06776508397608995
1782661051140356900,1.45835693359375,-0.12471359038352965,-0.06467018670067191,0.02283946218714118
1782661051150428000,1.468427978515625,-0.10334873079359531,-0.0915099888366647,-0.004465016584843397
1782661051160498000,1.478497802734375,-0.06692191115021705,-0.06838960908260196,-0.034498481929302216
1782661051170569000,1.48856884765625,-0.026699206355214118,-0.02229914476536214,-0.007961918789893389
1782661051180638700,1.498638671875,0.02916296612024307,0.011938384672813118,-0.011611527338624
1782661051190709800,1.508709716796875,0.112084994956851,0.013426011148374526,-0.0011626140385866165
1782661051200780000,1.518780029296875,0.14833061281442642,-0.021037965723127126,0.0013765490502119064
1782661051210851000,1.52885107421875,0.16187164691090583,-0.04660159217715263,-0.016870763041079043
1782661051220920800,1.5389208984375,0.125731242993474,-0.05581654323544353,-0.02305719659104943
1782661051230992000,1.548991943359375,0.03525777586400509,-0.029858875962533053,-0.0384827292598784
1782661051241063000,1.55906298828125,-0.04231587768197059,0.0039857269016094505,-0.03699541331157088
1782661051251133000,1.5691328125,-0.10980419054329395,0.03710510249743238,-0.019971797796338796
1782661051261204000,1.579203857421875,-0.14956979922056196,0.05853705424051731,-0.012632979340851306
1782661051271273700,1.589273681640625,-0.13772913930118083,0.00427864543357864,-0.05656213743835687
1782661051281344800,1.5993447265625,-0.12712532770037652,-0.05477899861494079,-0.05469327482655644
1782661051291415000,1.6094150390625,-0.0827314747005701,-0.0794414019129239,-0.08221022730544209
1782661051301485800,1.61948583984375,-0.03216623958945274,-0.08703563816789538,-0.08411752223148941
1782661051311555800,1.629555908203125,0.10005436542332172,-0.09218622586410492,-0.0722162181660533
1782661051321627000,1.639626953125,0.23038404212296007,-0.07570490053202956,-0.040244039843976495
1782661051331697000,1.64969677734375,0.28467735784649845,-0.08026910317502915,-0.0003843231424689293
1782661051341767700,1.659767578125,0.2758271119147539,-0.056468248609825966,0.036611966951936484
1782661051351838000,1.669837890625,0.16236790599524975,-0.020651048764772712,0.043116526540368794
1782661051361909000,1.679908935546875,0.08391045535206794,-0.00026698037311434746,0.05352028552442789
1782661051371979000,1.68997900390625,0.058794134274125096,0.03204531662352383,0.08607508604004979
1782661051382049800,1.7000498046875,0.11874562188982962,0.048242710447683926,0.09460530623719096
1782661051392119800,1.710119873046875,0.12095043845772742,0.02576517690811306,0.1601600206874311
1782661051402190800,1.72019091796875,0.11694412542581557,0.029586890620738267,0.16511501274630427
1782661051412262000,1.730261962890625,0.07934417034983635,0.0246633714123629,0.16398454741165042
1782661051422332000,1.740331787109375,0.03872457519173622,0.030263328577578064,0.17041136558875442
1782661051432403700,1.75040380859375,0.02840308766365051,-0.025145327976718545,0.1777186198621988
1782661051442474000,1.760473876953125,-0.08469722181558609,-0.042693880681507285,0.1620887967929244
1782661051452545000,1.770544921875,-0.158199095878005,-0.06787199668297544,0.09547931259274482
1782661051462614800,1.78061474609375,-0.24660627812743185,-0.0776969328657724,0.04355681765377521
1782661051472685800,1.790685791015625,-0.2536673025548458,-0.09808266349155455,-0.004792056582123041
1782661051482755800,1.800755859375,-0.232269709739089,-0.10146910932576284,0.010102584080398082
1782661051492827000,1.810826904296875,-0.2966197245746851,-0.034308640179317444,0.01450198808312416
1782661051502897000,1.82089697265625,-0.3178255942106247,-0.005395246639661491,0.015785890413820742
1782661051512968000,1.830968017578125,-0.2650643103599548,-0.021504341125860808,-0.005793780970573425
1782661051523038000,1.841037841796875,-0.19009470183253288,-0.08080719210710376,-0.023409078768640755
1782661051533109000,1.85110888671875,-0.02726853067576885,-0.10966094614770262,-0.016502806511521338
1782661051543178800,1.8611787109375,0.11492694038450717,-0.10671155829019843,-0.02533960843980312
1782661051553249800,1.871249755859375,0.2139969709455967,-0.0931419922189787,0.020998802756518123
1782661051563320800,1.88132080078125,0.2577934425741434,-0.07159267944023012,0.11892726206704973
1782661051573390800,1.891390869140625,0.2614882054388523,-0.028576288806088267,0.1735803510136902
1782661051583462000,1.9014619140625,0.17743921839892862,-0.04551240870095789,0.1853274874307215
1782661051593532000,1.911531982421875,0.05569675278067589,-0.057519584293663495,0.16045461971983313
1782661051603603000,1.92160302734375,-0.035812487137317654,-0.08198569783456623,0.13111381281465292
1782661051613672700,1.931672607421875,-0.13312310681045056,-0.10681582238227129,0.09494228310659528
1782661051623743700,1.94174365234375,-0.20622224529087543,-0.0984354224519804,0.0615944325171411
1782661051633813800,1.951813720703125,-0.2206657811850309,-0.08705733854304999,0.07318491706773639
1782661051643884800,1.961884765625,-0.16972762110829354,-0.0656449134843424,0.0864795751877129
1782661051653954800,1.971954833984375,-0.1337830320239067,-0.029808935873582958,0.06719342156797647
1782661051664025900,1.98202587890625,-0.16699965744912623,-0.05306823090799152,0.06120207219868898
1782661051674095900,1.992095947265625,-0.11199731667339802,-0.10923914053905755,0.019080401914566752
1782661051684167000,2.0021669921875,-0.07428221078515053,-0.1530204511310905,-0.044849633943289516
1782661051694236700,2.012236572265625,-0.0562713377982378,-0.10373422297984361,-0.06619739626795053
1782661051704307700,2.0223076171875,-0.015654665249586103,-0.08156718016155064,-0.042082653447985646
1782661051714378000,2.0323779296875,0.009753916773200035,0.001955956373363733,-0.021748890471458435
1782661051724449000,2.042448974609375,0.008470306703448295,0.03674224226810038,-0.03939940571337938
1782661051734518800,2.052518798828125,0.010412088420987129,0.038493177588656544,-0.10982727915793657
1782661051744589800,2.06258984375,0.04812251813411712,-0.00041698330305516717,-0.18904826151952148
1782661051754660900,2.072660888671875,0.11761632559895514,-0.0236341927614063,-0.23559286281242967
1782661051764731000,2.08273095703125,0.17998013505339622,-0.061057695291936394,-0.25271160926520825
1782661051774801700,2.0928017578125,0.212950092241168,0.012354893051832913,-0.23799817038848994
1782661051784872000,2.102871826171875,0.29629940657913684,0.06868176042959094,-0.21803835529088972
1782661051794943000,2.11294287109375,0.3750456110358238,0.08650668239034712,-0.14086787571832537
1782661051805013000,2.123012939453125,0.4184902004867792,0.1263571198068559,-0.08233297690227627
1782661051815083800,2.133083740234375,0.3936889367073774,0.13644969394989312,-0.04911415951997041
1782661051825153800,2.14315380859375,0.40091128917634483,0.13974734725579618,-0.02030336783826351
1782661051835224800,2.153224853515625,0.3640221127182245,0.11215747567117214,-0.005231763173639774
1782661051845294800,2.163294921875,0.31645956655442714,0.10727803306654095,0.007392886730283498
1782661051855365600,2.17336572265625,0.225363583612442,0.0693524992980063,0.026748013933002947
1782661051865436000,2.183435791015625,0.11537351510822773,0.01908697778582573,0.06890256357342005
1782661051875507000,2.1935068359375,0.008071078252792357,0.013672186195477842,0.08649301919117569
1782661051885577000,2.203576904296875,-0.1214355916261673,0.012850567614287137,0.1222214813068509
1782661051895647700,2.213647705078125,-0.2586480135768652,0.03639255204759538,0.190269766138494
1782661051905717800,2.2237177734375,-0.336236280170083,0.07547836176715791,0.25237697048336266
1782661051915788800,2.233788818359375,-0.3042874827235937,0.05279047341253608,0.30458705019205806
1782661051925858800,2.24385888671875,-0.2103448781788349,0.03889357508309185,0.3309922420367598
1782661051935929900,2.253929931640625,-0.0836029968380928,0.0011688245836645364,0.29214550177007914
1782661051946000000,2.263999755859375,0.07394786426424979,-0.02379113688878715,0.27407106202766296
1782661051956071000,2.27407080078125,0.11564999396204947,-0.07380637343432754,0.29562574510127304
1782661051966140700,2.284140625,0.10492284824252128,-0.07589381070025265,0.3141244016051292
1782661051976211700,2.294211669921875,0.11651859349012374,-0.04193692483436316,0.3258396815791726
1782661051986282800,2.30428271484375,0.06087444767951965,-0.046092729339562356,0.31500629900619387
1782661051996353000,2.31435302734375,-0.015734160226583478,-0.016437705386057495,0.2935914627946913
1782661052006424000,2.324424072265625,-0.060601475957036015,0.011169117333367467,0.27774726632237434
1782661052016493800,2.334493896484375,-0.06888356661200523,0.003819850549101829,0.2506951548762619
1782661052026564900,2.34456494140625,-0.11070610781908034,-0.005888473516702652,0.20177374144941568
1782661052036635000,2.354634765625,-0.18642974958419797,-0.04136734478548169,0.12378390831798314
1782661052046706000,2.364705810546875,-0.18266250600516795,-0.07256459321230649,0.023860183537006377
1782661052056776000,2.37477587890625,-0.06661445263624191,-0.11225326419584453,-0.01995557731389999
1782661052066846700,2.3848466796875,0.07341244221329689,-0.13427826819494365,-0.00865881501287222
1782661052076917000,2.3949169921875,0.08069500043690205,-0.12646412384528666,0.029395167440921067
1782661052086987800,2.40498779296875,0.041539632612466806,-0.09941102601848542,0.008792524395138024
1782661052097057800,2.415057861328125,0.10114391422569752,-0.07548650854099541,-0.012180413267761469
1782661052107128800,2.42512890625,0.09237433231472969,-0.05855491869077086,0.03770648419037461
1782661052117198800,2.43519873046875,0.0650724838912487,-0.04134348898585886,0.10467354965656996
1782661052127269600,2.44526953125,0.06960954279899596,-0.03975084949955344,0.10916633103117346
1782661052137340000,2.45533984375,0.018543956950306893,-0.021875475993193685,0.08985153583884238
1782661052147411000,2.465410888671875,0.03075461922585964,-0.056289531042054294,0.07487652341648936
1782661052157481000,2.47548095703125,-0.03144961575269699,-0.09372969244644046,0.0659926674760878
1782661052167551700,2.4855517578125,-0.06399754813611506,-0.06963226608745754,0.055569765400141476
1782661052177621800,2.495621826171875,-0.0652338119328022,-0.05741678150631487,0.06286474471390247
1782661052187692800,2.50569287109375,0.03450082001686096,-0.06061141282916069,0.0380338164485991
1782661052197763000,2.51576318359375,0.1771311753630638,-0.10290233873296528,0.049800388218462464
1782661052207833900,2.525833740234375,0.20319383738040922,-0.11351634293422103,0.06808423292785883
1782661052217903900,2.53590380859375,0.1472714591503143,-0.12183302997853607,0.062450464824587104
1782661052227975000,2.545974853515625,0.009666238489747047,-0.12002313101235776,-0.0090104049295187
1782661052238046000,2.5560458984375,-0.09988719216287135,-0.12568583294916896,-0.04151902821585536
1782661052248115700,2.56611572265625,-0.13874737643301485,-0.07686736844014376,0.002070814924687147
1782661052258186800,2.576186767578125,-0.15879823081493377,-0.0401191713552922,0.020014321763813493
1782661052268257000,2.586257080078125,-0.15820201848745344,-0.06350165437795222,0.042726358179003
1782661052278328000,2.596328125,-0.168978848567605,-0.08441968351583927,0.02023950882181525
1782661052288397800,2.606397705078125,-0.22783961833715438,-0.12205861889533698,-0.024025749362260103
1782661052298468900,2.61646875,-0.19694179124832153,-0.1219540990749374,-0.04097060055285692
1782661052308539000,2.626538818359375,-0.1023076973080635,-0.1159890897233039,-0.0494435376048088
1782661052318610000,2.63660986328125,0.05367956773936748,-0.11959577244576065,-0.049962885303795335
1782661052328679700,2.6466796875,0.14734744699597357,-0.13840287384428082,-0.032812136277556414
1782661052338750700,2.656750732421875,0.21686872698962686,-0.12148564131297171,-0.004847440031170845
1782661052348821000,2.666821044921875,0.2150602162629366,-0.11191636039167642,0.01716959985718131
1782661052358892000,2.67689208984375,0.12604279316067696,-0.148712049880065,0.03581643266007304
1782661052368961800,2.6869619140625,-0.0430956298828125,-0.1508532631598413,0.030047347739338873
1782661052379032800,2.69703271484375,-0.19022738830149172,-0.1478747953383252,0.0027291327029466627
1782661052389102800,2.707102783203125,-0.23639760332405566,-0.13624386917948722,0.005396306085586547
1782661052399173600,2.717173583984375,-0.22112112373709678,-0.11298333203606307,0.04398468767702579
1782661052409244000,2.727243896484375,-0.16486439898610114,-0.09931783130969851,0.08762143869921564
1782661052419315000,2.73731494140625,-0.10318857179582118,-0.09691818628944456,0.09963789357692003
1782661052429383200,2.747383056640625,-0.10264438191652298,-0.06348422831911593,0.12049641107991337
1782661052439454200,2.7574541015625,-0.0925654709726572,-0.025727877105027434,0.14060915171690283
1782661052449524200,2.767524169921875,-0.06806465144455433,-0.009806487210653721,0.1214045389007777
1782661052459595300,2.77759521484375,0.006750058782100677,-0.04804835691936314,0.10568747593946755
1782661052469665300,2.787665283203125,0.09218144009113312,-0.03521864943001419,0.10186302228048444
1782661052479736300,2.797736328125,0.1491243935406208,-0.03168265732359141,0.12437675964459777
1782661052489806000,2.80780615234375,0.13526245692670344,-0.04572488240785896,0.10681399575136602
1782661052499877000,2.817877197265625,0.06561082855165004,-0.026919205781444907,0.06617218876145779
1782661052509947400,2.827947509765625,0.04354688078165054,-0.01861720484960824,0.03548500874862075
1782661052520018400,2.838018310546875,0.0341851781964302,-0.05307257828954607,0.028955972306057808
1782661052530089200,2.848089111328125,0.0331003055691719,-0.08495243868567048,0.00013524375222623348
1782661052540159200,2.8581591796875,0.09996434905230998,-0.0663443304579705,-0.024138489021733402
1782661052550230300,2.868230224609375,0.1566875222712755,-0.07171181230787188,-0.028034400481730698
1782661052560300000,2.878300048828125,0.21670155372917652,-0.07709284775909037,0.02166691127642989
1782661052570371000,2.88837109375,0.3035965778499842,-0.053623599768429994,0.08337941721528767
1782661052580441300,2.89844140625,0.3462280973523855,-0.04944021313656121,0.14080745076797901
1782661052590512400,2.908512451171875,0.26231822652220727,-0.054223100031539795,0.1762744124032557
1782661052600582100,2.91858203125,0.09477145658433436,-0.050972537270374596,0.12552490676641465
1782661052610653200,2.928653076171875,-0.05294131659269333,-0.05616378577053546,0.07911291887722909
1782661052620723200,2.93872314453125,-0.09079320060312747,-0.07804525311309844,0.03531315931305289
1782661052630794200,2.948794189453125,-0.1102197856068611,-0.09769161834735422,0.03463116839826107
1782661052640864300,2.9588642578125,-0.10909984166622161,-0.11548311296254396,0.009138707484304905
1782661052650935300,2.968935302734375,-0.07296937462091445,-0.12161339587848632,0.019025749117881057
1782661052661005300,2.97900537109375,-0.08191022144556045,-0.1315200555279851,0.036962899281457066
1782661052671076400,2.989076416015625,-0.07205401334166527,-0.13875859194677323,0.013343027306348084
1782661052681146000,2.99914599609375,-0.08397650632560252,-0.15265563640668986,0.004085661878436803
1782661052691217200,3.009217041015625,-0.08686579802632331,-0.17544935975596307,0.018932298680767415
1782661052701287200,3.019287109375,-0.10410977829396724,-0.20535876032933592,0.02526931968256831
1782661052711358200,3.029358154296875,-0.1258627604186535,-0.19143796966765075,0.011114683732390404
1782661052721428200,3.03942822265625,-0.18594108928442,-0.1734883253486827,0.008869169827923178
1782661052731499300,3.049499267578125,-0.24651217010319232,-0.11236399456132203,0.05522599346376955
1782661052741569300,3.0595693359375,-0.2892062334477901,-0.10278053898420184,0.07007438383176923
1782661052751640300,3.069640380859375,-0.25682372075915333,-0.108402324388735,0.028098405628651377
1782661052761710000,3.0797099609375,-0.18683482325375078,-0.1518645590942353,0.0007128244444727898
1782661052771781000,3.089781005859375,-0.20106091700494289,-0.12424827442672103,0.016306114895641804
1782661052781851400,3.099851318359375,-0.219817055401206,-0.0911565540228039,0.012660744130611419
1782661052791922400,3.10992236328125,-0.16624445516765116,-0.08053593741767108,0.03442088664844632
1782661052801992200,3.1199921875,-0.07603519193232058,-0.07094210657700896,0.07423354933783412
1782661052812063200,3.130063232421875,0.05618775116801262,-0.057853602021001274,0.06960033657923341
1782661052822133200,3.14013330078125,0.1682768377780914,-0.06001903642658144,0.11714096317216753
1782661052832204300,3.150204345703125,0.23832301842868325,-0.06238770178668201,0.08601926419958472
1782661052842274300,3.1602744140625,0.21464345215559005,-0.09101257897485047,0.06518705018162727
1782661052852345300,3.170345458984375,0.16052783108651636,-0.09139807116109877,0.04439443752169609
1782661052862415400,3.180415283203125,0.11874854449927806,-0.06207863583751023,0.007953735483437776
1782661052872486100,3.190486083984375,0.09667933603227138,-0.06193341868054121,0.019844810415804385
1782661052882556200,3.20055615234375,0.062309448918700217,-0.09612707244437187,0.02613762694969773
1782661052892627200,3.210627197265625,0.07684709283709526,-0.09649217942971736,0.006613134529441594
1782661052902697200,3.220697265625,0.08610650409162043,-0.13962638775724917,-0.03576835573464632
1782661052912768000,3.23076806640625,0.11527297734320163,-0.15644056177288293,-0.059896542558073994
1782661052922839000,3.240839111328125,0.10044482604563236,-0.14967008125726133,-0.009498188446462153
1782661052932909300,3.250909423828125,0.011088380247354507,-0.09922496539447456,0.04922887194082141
1782661052942980400,3.26098046875,-0.06510229450762271,-0.04223430034574121,0.09101137339845299
1782661052953050000,3.271050048828125,-0.0748626410216093,-0.023765381393022835,0.0909134659819305
1782661052963121200,3.28112109375,-0.07935644530951977,-0.03241027747839689,0.10241890259757637
1782661052973191200,3.291191162109375,-0.11313771888017654,-0.031642471443675456,0.11843451011404395
1782661052983262200,3.30126220703125,-0.09069850805699825,-0.052102893007174134,0.14558584415093062
1782661052993332200,3.311332275390625,-0.015319734206795691,-0.040826552439667284,0.14314195813015101
1782661053003403300,3.3214033203125,-0.06154138715565204,-0.04085420763157308,0.0843678437307477
1782661053013473300,3.331473388671875,-0.06164075587689876,-0.04119286500141024,0.048910453641414636
1782661053023544300,3.34154443359375,-0.07318155606687068,-0.06501297225635498,0.03942015624046325
1782661053033614000,3.351614013671875,-0.11148644454181193,-0.07325502316188066,0.03277165813669562
1782661053043685000,3.36168505859375,-0.09320727600753306,-0.10389167856387793,-0.018836364025622606
1782661053053755400,3.37175537109375,-0.0224345346480608,-0.12774996240474282,-0.02761895154863596
1782661053063826400,3.381826416015625,0.048240591555833816,-0.11844649281278252,0.0022891338504850865
1782661053073896200,3.391896240234375,0.04495850114524364,-0.06073803488351404,0.05226370959207415
1782661053083967200,3.40196728515625,0.01610533162653446,-0.009065897976420819,0.0969279039658606
1782661053094037200,3.412037353515625,0.010938742643594741,-0.013919219759106635,0.10243030077442526
1782661053104108300,3.4221083984375,0.05411211393773555,-0.008276099305599928,0.11270166555047034
1782661053114178300,3.43217822265625,0.11742518694102763,-0.019315270116366443,0.12966843631193042
1782661053124249300,3.442249267578125,0.13370353704690932,-0.013387852828763425,0.12930164882615208
1782661053134319400,3.4523193359375,0.10536299322545528,-0.001487315948307514,0.16839651863500474
1782661053144390100,3.46239013671875,0.10866378833651542,0.0029529315214604137,0.18801541134044528
1782661053154460200,3.472460205078125,0.026911387801170347,0.004810469021648168,0.199002669300884
1782661053164531200,3.48253125,-0.0014519523739814758,-0.031287374395690855,0.1497588920518756
1782661053174601200,3.492601318359375,-0.009169979405403136,-0.044967086310498415,0.15113514884114265
1782661053184672000,3.502672119140625,-0.038697687184810634,-0.04782495995964855,0.1451759481757879
1782661053194742300,3.5127421875,-0.0915109934836626,0.007277005265653133,0.1430782452441752
1782661053204813300,3.522813232421875,-0.12433131306767463,0.038865554565005005,0.12020897244065999
1782661053214883300,3.53288330078125,-0.09698445645868778,0.042573505704849954,0.13192498306706546
1782661053224954000,3.5429541015625,-0.04483750511407852,0.02962521333713084,0.15905279009789228
1782661053235024100,3.553024169921875,-0.003867196822166443,0.008603577694296836,0.12740984373018144
1782661053245095200,3.56309521484375,-0.0010077157378196716,-0.007685622599162161,0.09222308727577327
1782661053255165400,3.57316552734375,0.05174772289395332,-0.014120624082721769,0.05194003059566021
1782661053265236200,3.583236328125,0.10577215854823589,-0.01930869424510747,0.04754822537750005
1782661053275306200,3.59330615234375,0.13185761691927908,-0.023521745362877846,0.05380626285895705
1782661053285377300,3.603377197265625,0.15209727187156677,-0.0014734700860455632,0.06575067541375756
1782661053295447000,3.613447021484375,0.18198095348179338,0.014834325310029088,0.10658157523497938
1782661053305518000,3.62351806640625,0.10553951883614063,-0.0013859744656831024,0.08683949454128742
1782661053315588400,3.63358837890625,0.03394026352465153,-0.025686704844422637,0.037398733415454626
1782661053325659400,3.643659423828125,-0.060064300340414045,-0.04843165714852512,0.03806377319544554
1782661053335729200,3.653729248046875,-0.1510626681268215,-0.07470949628651141,0.013587357456237077
1782661053345800200,3.66380029296875,-0.21989655037820338,-0.04036708170175552,0.00021305822879076004
1782661053355870200,3.6738701171875,-0.21461188797354697,-0.007891191641241312,0.02395195347368717
1782661053365941200,3.683941162109375,-0.17820143494307994,-0.0029893910743296146,0.0020304829142987727
1782661053376011000,3.694010986328125,-0.14402385553121566,-0.03976148049142211,-0.024237054025381802
1782661053386082000,3.70408203125,-0.10325170015990734,-0.08863083493746816,-0.03468041436746716
1782661053396152300,3.71415234375,-0.060685647109150885,-0.09194273596443235,-0.055945028453320264
1782661053406223400,3.724223388671875,0.013713468053936957,-0.07975947315245867,-0.060935384086519474
1782661053416293000,3.734293212890625,0.04695347435474395,-0.05867379583008587,-0.05770224738419055
1782661053426364700,3.74436474609375,0.07368015323877335,-0.06145860424302518,-0.08205781322270632
1782661053436434700,3.7544345703125,0.09046177669167518,-0.0676560706436634,-0.0821110047146678
1782661053446505700,3.764505615234375,0.1324269412398338,-0.05705046894457191,-0.03672653324231505
1782661053456575700,3.77457568359375,0.18081483231186865,-0.07287011549752205,-0.030408290006220338
1782661053466646800,3.784646728515625,0.1850830111503601,-0.06525379527490585,-0.032680618852376934
1782661053476716800,3.794716796875,0.164987733104825,-0.06292042042389512,-0.027348025652766225
1782661053486787800,3.804787841796875,0.12212240484654903,-0.08837978278584778,-0.017103402753174304
1782661053496857600,3.814857666015625,0.042916181662678715,-0.06506879409682005,-0.01051511040404439
1782661053506928600,3.8249287109375,-0.03815934252440929,-0.04354615012928843,0.006429740786552429
1782661053516998700,3.83499853515625,-0.05227379259467125,-0.049097445847187185,0.001726823792606592
1782661053527069700,3.845069580078125,-0.06163724874556064,-0.06311999811660499,0.0507031822770834
1782661053537139700,3.8551396484375,-0.12552081511318683,-0.06375431396476924,0.08483648415580392
1782661053547210800,3.865210693359375,-0.15969547191560268,-0.018244791340641678,0.07594853656217455
1782661053557280800,3.87528076171875,-0.11055588569343089,-0.0004026807830668986,0.14618395617455243
1782661053567351800,3.885351806640625,-0.0857902777493,-0.011385609628260135,0.17764526236504316
1782661053577421600,3.895421630859375,-0.04589198260307312,-0.024107618959434328,0.15890359088554978
1782661053587492600,3.90549267578125,-0.018673136287927626,-0.017700199602544306,0.1112552661344409
1782661053597563000,3.91556298828125,-0.04946691848039627,-0.016158303922787307,0.09230608938410878
1782661053607634000,3.925634033203125,-0.07612520830333233,-0.035194355238974094,0.07928294168189168
1782661053617703700,3.93570361328125,-0.08915712383389472,-0.07088522529061883,0.05344429767876863
1782661053627774700,3.945774658203125,-0.07548340326845646,-0.06460420879237354,0.03935585883259773
1782661053637844700,3.9558447265625,-0.012518120789527892,-0.03822524736747145,0.044838089635968206
1782661053647915800,3.965915771484375,0.015443652847409247,-0.01157473899219185,0.07446721196323633
1782661053657985800,3.97598583984375,0.06240764859616756,0.001984159554541111,0.08799261009916663
1782661053668056800,3.986056884765625,0.10603227078914641,-0.0030132834065705535,0.08346694936826825
1782661053678126800,3.996126953125,0.0806184280693531,-0.02593867031149566,0.0834241331398487
1782661053688197600,4.00619775390625,0.03410568321943283,-0.015907032575458287,0.06754296565800905
1782661053698267600,4.016267578125,0.01121288340985775,-0.019674495350196955,0.03810921977236867
1782661053708338700,4.026338623046875,0.00895896700322628,-0.041691352575458585,0.050203416061401364
1782661053718408700,4.03640869140625,-0.003819850549101829,-0.05537245272975415,0.058918199045211075
1782661053728479700,4.046479736328125,-0.034061259555816646,-0.09922569604683666,0.03136880560144782
1782661053738549800,4.0565498046875,-0.08502864572703837,-0.08661580532062799,0.009951631302386521
1782661053748620800,4.066620849609375,-0.13816402358710764,-0.04092044126819819,0.04470993321165442
1782661053758690800,4.07669091796875,-0.13097908051908017,-0.040121253714524206,0.06616261721551418
1782661053768761600,4.08676171875,-0.0902992796063423,-0.050531332841515536,0.07895020259618758
1782661053778831600,4.09683154296875,-0.05618950473368167,-0.050988903883285815,0.13243132515400646
1782661053788902700,4.106902587890625,0.005767477485537529,-0.07413987970501185,0.15157207895368338
1782661053798972700,4.11697265625,0.048257542690634724,-0.09770312612205743,0.14882570285499094
1782661053809043700,4.127043701171875,0.021014730978012083,-0.10971267633493989,0.13468451090827582
1782661053819113700,4.13711376953125,-0.06715396634042263,-0.09845354263056069,0.08844751425981522
1782661053829184800,4.147184814453125,-0.10674538749456405,-0.07504132205676287,0.038047844973951576
1782661053839254500,4.157254638671875,-0.051887423625588416,-0.06881262026764452,0.05842471643984318
1782661053849325600,4.16732568359375,-0.06456745697855949,-0.059594454338960344,0.06990721057131886
1782661053859395800,4.177395751953125,-0.02885316951870918,-0.0332244799381122,0.06752820648029446
1782661053869467000,4.187466796875,0.04533844037353992,-0.034920433668419716,0.050409313897043465
1782661053879536600,4.19753662109375,0.06270107858479022,-0.0668486997835338,0.03244111100807786
1782661053889607700,4.207607666015625,0.10077917256653308,-0.017872414364293217,0.06966478011757135
1782661053899677700,4.217677734375,0.14536708683371544,-0.0035726343223825095,0.07708937716037034
1782661053909748700,4.227748779296875,0.19236206224262714,-0.03187682818882167,0.07853153879269957
1782661053919818800,4.23781884765625,0.19250936175882816,-0.06067424893230199,0.06785743843466042
1782661053929889800,4.247889892578125,0.12831599878966807,-0.0778532376723364,0.04837532385140657
1782661053939959800,4.257959716796875,0.06387246045172214,-0.03371975264176726,0.04594634313881397
1782661053950030800,4.26803076171875,0.02879530185163021,-0.03581530014891177,0.053162119736522434
1782661053960100600,4.2781005859375,-0.06265197874605655,-0.04941694185882806,0.04455503491088748
1782661053970171600,4.288171630859375,-0.06365969448387622,-0.04127878971919417,0.016576164008677004
1782661053980241700,4.29824169921875,-0.02290624381303787,-0.05193469683341682,0.003252133663743734
1782661053990312700,4.308312744140625,0.04789572364091873,-0.06327394656930119,0.013151450257003306
1782661054000382700,4.3183828125,0.050742345243692394,-0.05568995771370828,-0.0016264321580529211
1782661054010453800,4.328453857421875,-0.01248246495425701,-0.03233527601342648,-0.002501169165968895
1782661054020523800,4.338523681640625,0.043724575436115264,-0.055752720751613374,-0.005055237562954426
1782661054030594800,4.3485947265625,0.09896715470850467,-0.09896448782738297,0.001852349868416786
1782661054040664600,4.35866455078125,0.055603813800215715,-0.07250774845853447,0.022886516199260947
1782661054050735600,4.368735595703125,-0.018034838384389875,-0.05929042989108711,0.011822539740800856
1782661054060806000,4.378805908203125,-0.059548752033710475,-0.04647036701291799,0.01182736204639077
1782661054070877000,4.388876953125,-0.03853577462136745,-0.0900790609844029,0.017436726360768078
1782661054080946700,4.39894677734375,-0.01797112549841404,-0.10641652086637914,0.07155205516889691
1782661054091017700,4.409017822265625,-0.08327741814553737,-0.06010572832934558,0.09003025340661407
1782661054101087700,4.419087646484375,-0.09164777160584926,-0.033585239541903136,0.0709390378370881
1782661054111158500,4.429158447265625,-0.03533843988478184,-0.03200688430927694,0.09510331888720393
1782661054121228800,4.439228759765625,0.07024491809308528,-0.06339713455755264,0.08950681405439972
1782661054131299800,4.4492998046875,0.11460194621384143,-0.08575633894708007,0.09849763750061392
1782661054141369900,4.459369873046875,0.08074234670996666,-0.08020294260364025,0.11066826002672314
1782661054151440600,4.469440673828125,0.05377835193872452,-0.09334847457651048,0.11634601340219378
1782661054161510700,4.4795107421875,-0.042320553857088085,-0.0944658612338826,0.09284925635010004
1782661054171581700,4.489581787109375,-0.16027940928339957,-0.0862507714005187,0.0486266682639718
1782661054181651700,4.499651611328125,-0.21641104635000227,-0.0711510000873357,0.0029888065524399277
1782661054191722800,4.50972265625,-0.15500117661952972,-0.06464278723709285,-0.0077547057799994944
1782661054201792800,4.519792724609375,-0.10804477965533733,-0.09382142585050314,-0.0012847791135311127
1782661054211863800,4.52986376953125,-0.06842997762560844,-0.0753109327783808,-0.02269406236708164
1782661054221933800,4.539933837890625,0.017424597531557083,-0.0915927169503644,-0.009134177439659833
1782661054232004600,4.550004638671875,0.09701777420639991,-0.07833101125191896,-0.01245835342630744
1782661054242074600,4.56007470703125,0.12431436193287372,-0.08222725150547922,0.005003799636662006
1782661054252145700,4.570145751953125,0.162678871640563,-0.05579725401308387,0.024791473037749527
1782661054262215700,4.580215576171875,0.13282675421237944,-0.024550796149671077,0.04755407059639692
1782661054272286700,4.59028662109375,0.09287585209608078,-0.012980550669506192,0.04561243500933051
1782661054282356700,4.600356689453125,0.06554536210000515,0.005993139467574656,0.04615545584484935
1782661054292427800,4.610427734375,0.05964636718928813,-0.01576448229961097,0.03826820972636342
1782661054302497500,4.62049755859375,0.0382896909058094,-0.018653152945823967,0.014521423435956238
1782661054312568600,4.630568603515625,0.009979542222619056,-0.034494572939164934,0.008455693656206131
1782661054322638800,4.640638916015625,0.02522036597430706,-0.04384425629302859,-0.005774053356796502
1782661054332710000,4.6507099609375,0.019407295781373977,-0.04007197121270001,0.015175503430515528
1782661054342779600,4.660779541015625,0.02657002701759338,-0.03662310940045863,0.024709932234138247
1782661054352850700,4.6708505859375,-0.010924714118242264,-0.0276732390191406,0.0489851263128221
1782661054362920700,4.680920654296875,-0.021651275315880774,-0.04548384019359946,0.023840309792757034
1782661054372991700,4.69099169921875,-0.08358487665951252,-0.08147555635534226,-0.011013853706419467
1782661054383061800,4.701061767578125,-0.10800795477628707,-0.0859097759431228,-0.005666793590039015
1782661054393132800,4.7111328125,-0.062302434656023975,-0.11204349390268326,-0.006506605415046215
1782661054403202800,4.721202880859375,-0.07155892330110072,-0.08641158798541873,0.006024813247472048
1782661054413273900,4.73127392578125,-0.09088204793035984,-0.05903444583602249,0.024643881260603667
1782661054423343600,4.741343505859375,-0.09815291571617125,-0.061450347871333355,0.018035422906279564
1782661054433414700,4.75141455078125,-0.09525193357765674,-0.0729716761758551,0.0264081144541502
1782661054443484700,4.761484619140625,-0.05076455707550048,-0.07650427074879407,0.060957449787855146
1782661054453555500,4.771555419921875,0.025142624562978742,-0.07979834385812282,0.0608363076262176
1782661054463625700,4.781625732421875,0.06174655433893203,-0.06655815587174146,0.07245689505413175
1782661054473696800,4.79169677734375,0.10765314998924731,-0.03392305666152388,0.10672025305330753
1782661054483766500,4.8017666015625,0.10971534321606159,-0.03585168663654476,0.15011924979686736
1782661054493837600,4.811837646484375,0.07900397861003876,-0.034079197071306404,0.14569266552627086
1782661054503907600,4.821907470703125,0.02157470294833183,-0.026765439991839227,0.12597864188328384
1782661054513978400,4.831978271484375,0.03329378231465816,-0.059683484329283235,0.11983663199692964
1782661054524048600,4.842048583984375,0.0006049801558256149,-0.09154515148159116,0.10375117411464452
1782661054534119700,4.85211962890625,-0.055419104883074756,-0.04795128975305706,0.10960837571024894
1782661054544189700,4.862189697265625,-0.09355623557567595,-0.036428609741665424,0.09842413387298583
1782661054554260500,4.872260498046875,-0.09252806157171725,-0.02859386099539697,0.07862520842552184
1782661054564330500,4.88233056640625,-0.10531330886483192,-0.044459611712396145,0.04869228084608912
1782661054574401500,4.892401611328125,-0.0873024358779192,-0.0777567184953019,0.05526084558144211
1782661054584471800,4.902471923828125,-0.06435059935748577,-0.08653649300672113,0.02995820815116167
1782661054594542600,4.91254248046875,-0.03388999464213848,-0.08024396873377262,0.032711013990640636
1782661054604612600,4.922612548828125,0.031737200522422786,-0.06483787141777575,0.037434535381197925
1782661054614683600,4.93268359375,0.07446282804906368,-0.05677347863409668,0.03680690500214696
1782661054624753700,4.942753662109375,0.08064473155438899,-0.043496356170810754,0.027722850314527748
1782661054634824400,4.952824462890625,0.06359130542278289,-0.008189042076654732,0.04050064495354891
1782661054644894700,4.962894775390625,0.02244973221719265,-0.015252331526391208,0.06292407368570566
1782661054654965800,4.9729658203125,-0.03707330085337162,-0.041541678439080715,0.030081250008940696
1782661054665035500,4.983035400390625,-0.022878771284222603,-0.08032689777687191,0.0014474223293364048
1782661054675106600,4.9931064453125,-0.018587796092033385,-0.06280326031763106,0.03445405826568603
1782661054685176600,5.003176513671875,0.03495265543758869,-0.03910966551918536,0.06720584265813231
1782661054695247600,5.01324755859375,0.033407764083147044,-0.02180529683381319,0.08923808011561632
1782661054705317400,5.0233173828125,0.0072188453376293175,0.006049618895165622,0.1130503328576684
1782661054715388400,5.033388427734375,0.03810615103244781,-0.009391440136358141,0.08755319576859473
1782661054725458700,5.043458740234375,0.07447101135551928,-0.09152334150858223,0.045614919227361675
1782661054735528700,5.05352880859375,0.09844868379235266,-0.09951203870754688,0.08485255850777029
1782661054745599500,5.063599609375,0.1071001922816038,-0.07939663118943571,0.1090437275648117
1782661054755669500,5.07366943359375,0.03340367242991924,-0.05910499032158404,0.12182780581414698
1782661054765740500,5.083740478515625,-0.08926876751482486,-0.04462163387369364,0.08320332999601959
1782661054775810800,5.093810791015625,-0.1609703141570091,-0.04832140170708298,0.09502952299863099
1782661054785881600,5.103881591796875,-0.18333412165641783,-0.05723462987244129,0.09711071318686008
1782661054795951600,5.11395166015625,-0.15921616396605967,-0.05813223629929125,0.06368365988135337
1782661054806022700,5.124022705078125,-0.13468261121213435,-0.05392393442187458,0.03402443467676639
1782661054816092400,5.134092529296875,-0.036866964626312254,-0.06361271353699266,0.031655367457866665
1782661054826163500,5.14416357421875,0.02528524790406227,-0.08438110507111996,0.040538931137323375
1782661054836233700,5.154233642578125,0.011551906105875968,-0.08716047012396157,0.058459349361807106
1782661054846304800,5.1643046875,-0.013806407034397124,-0.06782306124102323,0.04630348601341247
1782661054856374500,5.17437451171875,-0.023539281019568443,-0.04518332287706434,0.03696457978188991
1782661054866445600,5.184445556640625,0.01179272912442684,-0.01680233744736761,0.042740971226245164
1782661054876515600,5.194515625,0.03579612052440643,-0.036896665644831954,0.07269654902890324
1782661054886586600,5.204586669921875,0.05159691624641418,-0.07751666266173124,0.0078209028840065
1782661054896656600,5.21465673828125,0.06448270130455494,-0.07479626125451178,-0.01790375935062766
1782661054906727700,5.224727783203125,0.04688040911853313,-0.06899239728134125,-0.019626345359534024
1782661054916797700,5.234797607421875,0.010741758766770363,-0.03436232486162334,0.021013561934232712
1782661054926868700,5.24486865234375,-0.05136252296864986,-0.005629311123862862,0.03565934240221977
1782661054936938500,5.2549384765625,0.023996961659193038,-0.03843428700827062,0.02726224706545472
1782661054947009500,5.265009521484375,-0.00469078816473484,-0.06299545842148363,0.019307634799182415
1782661054957079600,5.27507958984375,-0.05854454342722892,-0.051480084933713074,-0.0033704993464052676
1782661054967150600,5.285150634765625,-0.1054009871482849,-0.04439374340195208,0.020078326910734176
1782661054977220600,5.295220703125,-0.15883447117209434,-0.012704656337574123,0.05357859158292413
1782661054987291600,5.305291748046875,-0.12889175285100937,0.002745572381094098,0.10917787533849477
1782661054997360600,5.315360595703125,0.002619242587685585,-0.04944174750652164,0.06496975416913628
1782661055007431400,5.325431396484375,0.10846037471890449,-0.10166680558864026,0.01476312323734164
1782661055017501700,5.335501708984375,0.1488537599056959,-0.11895345595423132,-0.0321693083293736
1782661055027572700,5.34557275390625,0.1251777007639408,-0.12605631022937594,-0.013476298297196626
1782661055037642800,5.355642822265625,0.04168751665055752,-0.07394154412131757,-0.00944470469355583
1782661055047713500,5.365713623046875,0.0012836100697517395,-0.025666831100173294,0.04188245470076799
1782661055057783600,5.375783447265625,0.02703238383233547,-0.021871493937820195,0.1164474279500544
1782661055067854600,5.3858544921875,-0.010542436802387237,-0.01931841192152351,0.10583528691232204
1782661055077924600,5.395924560546875,-0.015552958440780638,-0.04167962560504675,0.09338526292294264
1782661055087995600,5.40599560546875,-0.05494973380565643,0.0023436770493164656,0.10723682427331804
1782661055098065700,5.416065673828125,-0.0663181000381708,-0.020135171664506197,0.09963117157518864
1782661055108136700,5.42613671875,-0.0730026923686266,-0.02023530757073313,0.10708367953822016
1782661055118206500,5.43620654296875,-0.05211538716256618,-0.005676876592636108,0.08816416727378965
1782661055128277500,5.446277587890625,0.023078093248605727,-0.006713854957558214,0.09431669855415821
1782661055138347500,5.456347412109375,0.09691080670058727,-0.04649119060523808,0.09380041959509253
1782661055148418600,5.46641845703125,0.09660101009905338,-0.09224796598870307,0.061868427152931685
1782661055158488600,5.476488525390625,0.015699088913202285,-0.0865592528278008,-0.007853489979356526
1782661055168559600,5.4865595703125,-0.05429390024542808,-0.04652852694094181,-0.021963702265918254
1782661055178629600,5.496629638671875,-0.06994973453879356,-0.03533197361137718,0.02763429524824023
1782661055188700700,5.50670068359375,-0.05490706370770931,-0.018417225298099218,0.06823766992390155
1782661055198770400,5.5167705078125,-0.02919920647740364,-0.02298628677930683,0.06732026281803846
1782661055208841500,5.526841552734375,-0.033396658167243,-0.04975004627071321,0.03523877890259027
1782661055218911700,5.536911865234375,-0.0533171641677618,-0.0757355148660019,0.01326353232935071
1782661055228982800,5.546982666015625,-0.1197878244191408,-0.07302450234163552,-0.013563538189232349
1782661055239052500,5.557052490234375,-0.14719079512953756,-0.0155736359026283,-0.014516747260838746
1782661055249123600,5.56712353515625,-0.09042144468128681,-0.013320705876685678,0.03077668492719531
1782661055259193600,5.577193603515625,0.011840075397491455,-0.03028144875615835,0.06238762872144579
1782661055269264600,5.5872646484375,0.06471475649476051,-0.03554667580798268,0.05216740961074829
1782661055279334700,5.597334716796875,0.08657821325659751,-0.04628105498589575,0.048461979221552605
1782661055289405700,5.60740576171875,0.08779694139659404,-0.04670238567050546,0.08107625483945012
1782661055299475700,5.617475830078125,0.02549392221868038,-0.036652627755887804,0.07002469947114587
1782661055309545500,5.62754541015625,0.06068973876237869,-0.03644757017046213,0.045146278802305456
1782661055319616500,5.637616455078125,0.1304062490671873,-0.04437405232079327,0.05634177268594503
1782661055329686500,5.6476865234375,0.18744272601902484,-0.051262460127659136,0.10264613548219204
1782661055339757600,5.657757568359375,0.17090777080357072,-0.013116452008858323,0.13095803773105144
1782661055349827600,5.66782763671875,0.1237310090869665,-0.003406301312148571,0.13944748752638697
1782661055359898600,5.677898681640625,0.061463645744323725,0.005737118879891931,0.12419278137981891
1782661055369968600,5.68796875,-0.005597381615638733,-0.026041801892407238,0.09970584424659609
1782661055380039700,5.698039794921875,-0.049338908186554904,-0.07453636820930987,0.06071589611694216
1782661055390109400,5.708109375,-0.07978665342032909,-0.07894395551849157,0.055498599860072134
1782661055400180500,5.718180419921875,-0.09076338998675346,-0.0731053490255028,0.05161079864129424
1782661055410250800,5.728250732421875,-0.06327098742723465,-0.057464164311997586,0.016478402722626923
1782661055420321800,5.73832177734375,0.0002601122409105301,-0.0437363024065271,0.023068740898370743
1782661055430391000,5.74839111328125,0.09982347927689551,-0.050151210950128734,0.07049538572281598
1782661055440462000,5.758462158203125,0.15700959383249283,-0.06612798429355025,0.08913768848106264
1782661055450531800,5.76853173828125,0.14546236390173434,-0.08794873442482203,0.06748173699006438
1782661055460603000,5.778602783203125,0.05662263545393943,-0.07052139694690704,0.07053104155808687
1782661055470673200,5.788673095703125,0.020189970591664313,-0.05344791440796107,0.08394874153584242
1782661055480744200,5.798744140625,-0.1572808119893074,-0.03511522558815777,0.061601885171234605
1782661055490814000,5.80881396484375,-0.23311785100102422,-0.03406180754508823,0.006813917798548936
1782661055500885000,5.818885009765625,-0.16220950056314468,-0.07430752788949757,-0.03297448723241687
1782661055510955000,5.828955078125,-0.17606266934871673,-0.0920760800205171,0.018020663728564975
1782661055521026000,5.839026123046875,-0.1565221025764942,-0.055844454155676064,-0.012375643578916788
1782661055531096000,5.849095947265625,-0.032768297135829925,-0.0242815872868523,-0.00038461540341377254
1782661055541167000,5.8591669921875,0.020904840862751007,-0.04749634905979037,-0.017648761676251887
1782661055551237000,5.869237060546875,0.3602607143580913,-0.07663977022934705,0.008924187950789928
1782661055561308000,5.879307861328125,0.48644028564095493,-0.07450429257061332,0.11838438736200332
1782661055571378000,5.8893779296875,0.42535424103736874,-0.0759811967227608,0.08135945569500326
1782661055581449000,5.899448974609375,0.34471827731132504,-0.13212580286879091,0.05079553673565387
1782661055591519200,5.909519287109375,0.20160744497179983,-0.11243048392627387,0.022019816367328165
1782661055601590000,5.919590087890625,0.08869009084403515,-0.13035656470656395,0.02963058363199234
1782661055611660000,5.929659912109375,-0.022104279780387877,-0.08600815828368068,0.06534706304892897
1782661055621731000,5.93973095703125,-0.09694470897018909,-0.025655834782123563,0.13992241156175733
1782661055631801000,5.949801025390625,-0.28385902720093725,0.01655176021978259,0.12165960964038967
1782661055641872000,5.959871826171875,-0.5256465068697929,-0.017608831524662673,-0.010765724164247512
1782661055651942000,5.96994189453125,-0.7115589545816182,-0.06580432356344536,-0.1566509896531701
1782661055662013000,5.980012939453125,-0.5754676456153393,-0.056273895081505175,-0.1000016123227775
