time,seconds_elapsed,z,y,x
1782810938977079600,0.08807958984375,-0.030775077491998672,0.22423436038680372,0.20074198724888265
1782810938987151600,0.098151611328125,0.3505214106321335,0.12178572023808955,0.3038650195278227
1782810938997223700,0.1082236328125,0.796648390585184,-0.022172814971953628,0.3919423853009939
1782810939007295700,0.118295654296875,0.9460831652492284,-0.17722214158214628,0.3065429335001856
1782810939017367800,0.128367919921875,0.7489543269962072,-0.27738953892588614,0.032826237868145106
1782810939027439900,0.13843994140625,0.48704526579678054,-0.3600079817060381,-0.23420769206434486
1782810939037512000,0.148511962890625,0.18158640120625494,-0.36853228361904616,-0.3067280077435076
1782810939047583700,0.158583740234375,-0.05962298631370067,-0.3739999013751745,-0.28373035931997
1782810939057655800,0.16865576171875,-0.025377017840743064,-0.4051573292482644,-0.24458989680372178
1782810939067728000,0.178727783203125,0.024077625679969787,-0.40064335895515973,-0.18091551620736718
1782810939077799700,0.188799560546875,-0.22492110054194925,-0.38157472054362296,-0.2196989819794893
1782810939087871700,0.198871826171875,-0.5256470913916826,-0.3604911621131003,-0.34016616696491836
1782810939097943800,0.20894384765625,-0.5470160426348447,-0.3567326863624155,-0.3734261931404471
1782810939108015900,0.219015869140625,-0.46087388270795343,-0.3415647817164659,-0.3048807724416256
1782810939118087700,0.229087646484375,-0.29011107333302494,-0.3115203565865755,-0.1996925512611866
1782810939128160800,0.239160888671875,-0.10449848535060882,-0.29209881308414043,-0.15710589381381868
1782810939138232800,0.24923291015625,0.08415069384872913,-0.26082564987689255,-0.13144012215957046
1782810939148304600,0.2593046875,0.3064262483179569,-0.2047483733460307,-0.06055325290113687
1782810939158376700,0.269376708984375,0.45419221298694606,-0.1833940351501107,0.0475451566375792
1782810939168448800,0.27944873046875,0.37275720783770083,-0.16828297525793312,0.1287922379992902
1782810939178520600,0.2895205078125,0.1607353363573551,-0.15940430694930255,0.1218231296390295
1782810939188592600,0.299592529296875,-0.11303718111515045,-0.1402125536147505,0.06731953216567635
1782810939198664700,0.309664794921875,-0.26964520840942857,-0.10894392045214772,0.038045799147337675
1782810939208736800,0.31973681640625,-0.21630057171285152,-0.09887604235894977,0.05808510922193527
1782810939218808600,0.32980859375,-0.05276712906956672,-0.15406572240032254,0.03184424109347164
1782810939228880600,0.339880615234375,0.09039338763058186,-0.2524129916448146,-0.029306247048452496
1782810939238952700,0.34995263671875,0.12976970472931862,-0.28416173647455867,-0.08517463006898761
1782810939249024500,0.3600244140625,0.18642331984341143,-0.25890439949072896,-0.0664131579104811
1782810939259096600,0.3700966796875,0.1946604023128748,-0.20969445144608614,-0.023698417104035613
1782810939269168600,0.380168701171875,0.17140987510681152,-0.19892317432388662,0.04575988065600395
1782810939279241000,0.390240966796875,0.1539075361639261,-0.22870339555963873,0.08831592376939952
1782810939289312800,0.400312744140625,0.13813187488317488,-0.24664332220219073,0.0756046184953302
1782810939299384800,0.410384765625,0.020855156502127645,-0.21890483592711388,0.02999941694438457
1782810939309457700,0.420457763671875,-0.11493863082230091,-0.17075469913370905,0.03491904542893171
1782810939319529700,0.43052978515625,-0.17995324704647064,-0.13477591551877557,-0.003677081077545881
1782810939329601800,0.440601806640625,-0.29927520751953124,-0.1471146611534059,-0.017495032419264315
1782810939339673900,0.450673828125,-0.40854631409943104,-0.1430466810621321,-0.03539681900851428
1782810939349745700,0.46074560546875,-0.31414135273993016,-0.13070698557943106,-0.060402007862180467
1782810939359817700,0.470817626953125,-0.1272644439101219,-0.12583959873877465,-0.005740881739556789
1782810939369889800,0.480889892578125,0.08270107956230639,-0.12662811876796184,0.053960722768306726
1782810939379961900,0.4909619140625,0.22776772214472293,-0.15760726746469736,0.05802578025013208
1782810939390033700,0.50103369140625,0.3470429208666086,-0.15795279296673834,0.06955905472077428
1782810939400105700,0.511105712890625,0.32311317922472954,-0.16392879863642154,0.07249094345420598
1782810939410177800,0.521177734375,0.24207214182913303,-0.1761475711531937,0.06818740104138851
1782810939420249600,0.53124951171875,0.2621329330831766,-0.15653065120913087,0.11119060340039431
1782810939430321700,0.54132177734375,0.28515841936171055,-0.05404715894274413,0.12901654827445744
1782810939440393700,0.551393798828125,0.2841752535432577,-0.0009048398852348328,0.166140775597468
1782810939450465800,0.5614658203125,0.31089491816461085,-0.016327815270796416,0.20902933860085904
1782810939460537600,0.57153759765625,0.4424234492599964,-0.012846841287240385,0.22659539042972027
1782810939470609700,0.581609619140625,0.4759019404917955,-0.01634125927425921,0.22882804485261438
1782810939480681700,0.591681640625,0.28824294137358664,-0.03636581017114222,0.1970717743035406
1782810939490753500,0.60175341796875,0.11026245570480823,-0.09008556379042565,0.1282560852959752
1782810939500825600,0.61182568359375,0.029894787526130673,-0.16049524399116635,0.07960435565598309
1782810939510899000,0.62189892578125,-0.05564706842005253,-0.26441052262634035,0.014522081023082136
1782810939520970800,0.631970703125,-0.17088906610310076,-0.31171945935525,-0.06466149193756282
1782810939531042800,0.642042724609375,-0.16389117003977297,-0.3104670481413603,-0.17076675489768384
1782810939541115000,0.652114990234375,0.011444938600063324,-0.3005839520305395,-0.22285284290052948
1782810939551186700,0.662186767578125,0.17698446036875246,-0.3902879691574722,-0.2694171718072146
1782810939561258800,0.6722587890625,0.2679810745894909,-0.4885948333263397,-0.329046295600757
1782810939571330800,0.682330810546875,0.4652227255672216,-0.5152539268668741,-0.351119084264338
1782810939581403000,0.69240283203125,0.6813602156728505,-0.4915880603255704,-0.3114164578206837
1782810939591474700,0.702474609375,0.7670774281859397,-0.5158076882921159,-0.21768062789440154
1782810939601546800,0.712546630859375,0.5522714789450168,-0.49462644164077935,-0.10308927613981067
1782810939611618800,0.722618896484375,0.21347499289810656,-0.34686588379926975,-0.028327903535589574
1782810939621690600,0.732690673828125,0.04104454257190227,-0.29363303691409526,-0.057071913591399785
1782810939631762700,0.7427626953125,0.13681728515326977,-0.2997287234406918,-0.1307039168395102
1782810939641834800,0.752834716796875,0.35819852113127704,-0.3616428528988734,-0.20569858674295247
1782810939651906800,0.76290673828125,0.5747013374179601,-0.43442653222195804,-0.2500499157752842
1782810939661978600,0.772978515625,0.6690355716288089,-0.6019105756545439,-0.3313192089688033
1782810939672050700,0.78305078125,0.6397866807907819,-0.7384389973964541,-0.46407129050977525
1782810939682122800,0.793122802734375,0.5291366870731115,-0.7831132017076015,-0.4773355534914881
1782810939692194800,0.80319482421875,0.24772739111185071,-0.7008163920972496,-0.38543512229882176
1782810939702266600,0.8132666015625,-0.030894904479384422,-0.5348351544430479,-0.21820845116078852
1782810939712338700,0.823338623046875,-0.3094055563896894,-0.38399960960298773,-0.05509988286606967
1782810939722411000,0.833410888671875,-0.5818804352670908,-0.2552739340338856,-0.008825111490488051
1782810939732482800,0.84348291015625,-0.8976093494594096,-0.07620221906229853,0.029210385458543896
1782810939742555000,0.853554931640625,-1.0765215630203484,0.13105342439692466,0.16582630282081662
1782810939752628000,0.8636279296875,-0.9345599007159471,0.3102568759893998,0.3447961648531258
1782810939762699800,0.87369970703125,-0.6283493409752845,0.37272915078699587,0.5538041684050112
1782810939772771800,0.883771728515625,-0.4317226070255041,0.4639493446305394,0.793088725342229
1782810939782844000,0.893843994140625,-0.3656687108814716,0.5981086991535499,1.023593398170173
1782810939792915700,0.903915771484375,-0.35969898882210255,0.7034200717896223,1.1797776470944286
1782810939802987800,0.91398779296875,-0.3058762132197618,0.7476768544062972,1.228420535840839
1782810939813059800,0.924059814453125,-0.24054537065327167,0.7370432321891188,1.1823035123102366
1782810939823132000,0.9341318359375,-0.23215046727359293,0.6066647479116917,1.0288592828091234
1782810939833203700,0.94420361328125,-0.1942892309129238,0.4151526170292869,0.7743453002970665
1782810939843275800,0.95427587890625,0.032274960660934444,0.12066299981847405,0.528280508635193
1782810939853347800,0.964347900390625,0.2742582551628351,-0.19045531530585139,0.33683132345378397
1782810939863419600,0.974419677734375,0.2803670934319496,-0.36217294118758286,0.1857385524496436
1782810939873491700,0.98449169921875,0.1489455298423767,-0.4217414939003065,0.016273527800291777
1782810939883563800,0.994563720703125,0.11175590913295745,-0.44654060225524006,-0.16291370330974458
1782810939893635800,1.0046357421875,0.13895429718196392,-0.4386531369410455,-0.22915596163272856
1782810939903707600,1.014707763671875,0.10383329944014548,-0.3889658902408555,-0.1655122684355825
1782810939913779700,1.02477978515625,0.019853870505094528,-0.3164337014608085,-0.1254470922898501
1782810939923852000,1.03485205078125,-0.017194295907020568,-0.35338980567529793,-0.157583229001984
1782810939933923800,1.044923828125,-0.08832476466298103,-0.4369066951325163,-0.23175489208474753
1782810939943996000,1.054995849609375,-0.1855664107531309,-0.44289636400137095,-0.2831922338552773
1782810939954068000,1.06506787109375,-0.19236673841774463,-0.44812440084796396,-0.29372970222160216
1782810939964140000,1.07514013671875,-0.10577098950445651,-0.4653737514104694,-0.23180143464021383
1782810939974211800,1.0852119140625,-0.14360007716119289,-0.4485836889227852,-0.13922639212161303
1782810939984284000,1.095283935546875,-0.28096272123754024,-0.36220092517305164,-0.0752642806250602
1782810939994356000,1.10535595703125,-0.4007832788825035,-0.22393333161361514,-0.006084288349747657
1782810940004428000,1.115427978515625,-0.41720659041702746,-0.15083138012159614,0.03506831770651042
1782810940014499800,1.125499755859375,-0.37499943380653855,-0.10794431495554745,0.055151393857598305
1782810940024572000,1.135572021484375,-0.3395657168537378,-0.06547839781101793,0.08970620908401906
1782810940034644000,1.14564404296875,-0.2655143922150135,-0.02044789087548852,0.1377674254849553
1782810940044715800,1.1557158203125,-0.135709031650424,0.029027795433253047,0.22827947105914353
1782810940054787800,1.165787841796875,-0.051260231637954706,0.07925853789299726,0.28261684512011703
1782810940064860000,1.17585986328125,0.005823591586947441,0.1328386638458818,0.3523828205898404
1782810940074932000,1.185931884765625,0.08626315595805645,0.17320176349226385,0.38866570171788334
1782810940085004800,1.1960048828125,0.17588439017236232,0.18366170964296907,0.376184844198823
1782810940095076900,1.206076904296875,0.301038125538826,0.157289689415507,0.35894232523590325
1782810940105148700,1.216148681640625,0.4170815027326345,0.08720171544980257,0.36018311907723544
1782810940115220700,1.226220703125,0.4499906696438789,0.03535195695348084,0.3237663824364543
1782810940125292800,1.236292724609375,0.30693595140576363,0.010840469900891185,0.25482567880973217
1782810940135364900,1.24636474609375,0.04788344868123531,0.018729688780754802,0.15982991195023058
1782810940145436700,1.256436767578125,-0.04986556240916252,-0.0070392144544050095,0.06427176196761429
1782810940155508700,1.2665087890625,-0.03728723586499691,-0.04911156570408493,0.020797508030757306
1782810940165580800,1.276580810546875,-0.00993628760278225,-0.082796247032471,-0.018585896395891904
1782810940175652900,1.28665283203125,-0.11013093827962875,-0.1408640032608062,-0.08369257481768727
1782810940185724700,1.296724609375,-0.3070101856857538,-0.1836167745226994,-0.17859467204436658
1782810940195797000,1.306796875,-0.4217220220148563,-0.24373159947395323,-0.28140564269945023
1782810940205869000,1.316869140625,-0.4313607879757881,-0.2641366375884041,-0.36477015460655093
1782810940215940900,1.32694091796875,-0.4213520196586847,-0.2714789266426116,-0.43666722382083534
1782810940226013000,1.337012939453125,-0.40657004559040066,-0.29532855225298554,-0.5050017782479524
1782810940236085000,1.3470849609375,-0.3119897276639938,-0.25069544713720676,-0.5479030546024442
1782810940246157000,1.357156982421875,-0.03681085052490234,-0.1928898124437779,-0.5018327928230166
1782810940256228900,1.367228759765625,0.2286713929861784,-0.14260777818821369,-0.3521994268469512
1782810940266301000,1.377301025390625,0.40969957578778265,-0.09533409543577581,-0.22204992901980874
1782810940276373000,1.387373046875,0.43143268416821956,-0.1061556779731065,-0.1858829293563962
1782810940286444800,1.39744482421875,0.3173100459039211,-0.12312749023586511,-0.22786825990974902
1782810940296516900,1.407516845703125,0.27231881153285503,-0.16112645456679164,-0.2330798570781946
1782810940306589000,1.4175888671875,0.3030629093647003,-0.17246924796663224,-0.172563429056108
1782810940316661000,1.427660888671875,0.30923370695412156,-0.11162154216356575,-0.06733852912709117
1782810940326732800,1.43773291015625,0.24037761287093162,-0.027748130886256692,0.029461802936345337
1782810940336804900,1.447804931640625,0.1977712278097868,0.051747503698244685,0.09966638901904225
1782810940346877000,1.457876953125,0.13634849859774112,0.05117153044119477,0.14236089075505734
1782810940356948700,1.46794873046875,0.11281506279706954,0.022948475519567725,0.1560690981119871
1782810940367020800,1.478020751953125,0.1513461612433195,-0.030636984195560216,0.12894611338675022
1782810940377092900,1.4880927734375,0.006454875227808952,-0.04741714634373784,0.1561535615250468
1782810940387165000,1.4981650390625,-0.06995908688902855,-0.01984714850336313,0.0801687846057117
1782810940397236700,1.50823681640625,-0.11530278795957564,-0.04294679599665105,0.04822247137725353
1782810940407308800,1.518308837890625,-0.056146250113844866,-0.09792181037403642,0.07406666833832859
1782810940417380900,1.528380859375,0.04517711233198642,-0.11988996961936355,0.09893749022260308
1782810940427453000,1.538452880859375,0.12984218544363973,-0.09468918512836098,0.12366671167910098
1782810940437524700,1.548524658203125,0.117191378185153,-0.04763743803091347,0.19114026536270975
1782810940447596800,1.5585966796875,0.004841010290384292,-0.025900822519138455,0.2024421422302723
1782810940457668900,1.5686689453125,-0.14918576833903788,-0.006124255033954978,0.17990955403521655
1782810940467740700,1.57874072265625,-0.25252397773861884,0.008713175548613072,0.12169029703959822
1782810940477812700,1.588812744140625,-0.2827595415264368,-0.029006021992862223,0.054911301491409534
1782810940487884800,1.598884765625,-0.2310100650668144,-0.07602393988594412,0.013645663514733314
1782810940497956900,1.608956787109375,-0.10469079305231571,-0.11204502827264368,0.00028057050704956055
1782810940508028700,1.619028564453125,0.026764088284969328,-0.14090163185745477,0.02943286910280585
1782810940518100700,1.629100830078125,0.017405308309197426,-0.15370733741670847,0.0007236380994319916
1782810940528173000,1.639173095703125,-0.10033318236470222,-0.12490538662858307,-0.038796909775584934
1782810940538244900,1.649244873046875,-0.16111118393242357,-0.07019055755734444,-0.08473492347747087
1782810940548317000,1.65931689453125,-0.1586181980729103,-0.0583539892911911,-0.11356222790256142
1782810940558389000,1.669388916015625,-0.06518705018162727,-0.10334814627170562,-0.1196587912119925
1782810940568461000,1.6794609375,0.045883799296617504,-0.1450204653531313,-0.11174100382477044
1782810940578532900,1.689532958984375,0.15833879660964012,-0.16991759072244167,-0.1216300912849605
1782810940588605000,1.69960498046875,0.20251696103215217,-0.15382804118692875,-0.08681611366569995
1782810940598677000,1.709677001953125,0.1403051272690296,-0.11593575210087001,-0.07076514257490635
1782810940608748800,1.719748779296875,0.07832125704288483,-0.11880334342643618,-0.07941387458518147
1782810940618820900,1.72982080078125,0.08362871580123901,-0.1203743921354413,-0.06166267544776201
1782810940628893000,1.739892822265625,0.10060498504340648,-0.08306282554678618,-0.05309577650204301
1782810940638965000,1.749965087890625,0.07148936519622802,-0.0648497079860419,-0.007511398543417453
1782810940649036800,1.760036865234375,0.03212766114473343,-0.030444457298144698,0.031085458615422248
1782810940659108900,1.77010888671875,0.010067805027961731,-0.03309796748161316,0.03894011763855815
1782810940669181000,1.780180908203125,-0.016405775877833366,-0.09687303197346628,0.046765112175792455
1782810940679252700,1.790252685546875,-0.021715572723746298,-0.1369498254917562,0.04235664808377623
1782810940689324800,1.80032470703125,0.0031073183655738828,-0.1456463421665132,0.06914879341945052
1782810940699396900,1.81039697265625,-0.0031377135038375852,-0.1487725844282657,0.10839183952733873
1782810940709469000,1.820468994140625,-0.010342530316114425,-0.15478483045510946,0.15111761318445205
1782810940719540700,1.830540771484375,-0.04497428323626518,-0.12746332748308778,0.20812150304093957
1782810940729612000,1.840612060546875,-0.054527124479413026,-0.08427161681465804,0.27208193403705955
1782810940739684400,1.850684326171875,0.003541618129611015,-0.07074022732935846,0.28840310037136074
1782810940749756400,1.86075634765625,0.07677811925411224,-0.09401179732345044,0.26213117951750753
1782810940759828200,1.870828125,0.06517594426572322,-0.1105653841741383,0.22990634160861373
1782810940769900300,1.880900390625,0.010696750581264495,-0.07962525231353938,0.21653657242581248
1782810940779972400,1.890972412109375,0.002648468682169914,-0.02877856991253793,0.2341783198393881
1782810940790044400,1.90104443359375,0.03604980302453041,-0.04691811078041792,0.24139906487315893
1782810940800116200,1.9111162109375,-0.04760813887119293,-0.07326609254516661,0.20000424755886195
1782810940810188300,1.921188232421875,-0.18149053961634634,-0.07467763984352349,0.10659706506505608
1782810940820260400,1.93126025390625,-0.2634977916955948,-0.032084041198715565,0.06863178380802273
1782810940830332200,1.941332275390625,-0.21488895134925842,-0.010049538718909025,0.06548311051875352
1782810940840404200,1.951404296875,-0.04201718699634075,-0.008148673533648253,0.08034194921553134
1782810940850476300,1.961476318359375,0.1082680670171976,-0.03470058037266135,0.10097089574635028
1782810940860548400,1.97154833984375,0.21389409509301185,-0.03270151550993323,0.12334186363890766
1782810940870621200,1.98162109375,0.2198737540245056,-0.001875876874476671,0.07707520250454544
1782810940880692200,1.991692138671875,0.13630056780278682,0.002045607418194413,0.04595072705298662
1782810940890764300,2.001764404296875,0.06736790135204791,-0.040425460825487966,0.040730069795250894
1782810940900836400,2.01183642578125,0.096081370139122,-0.0984603742301464,0.01287920918688178
1782810940910908200,2.021908203125,0.11132394745647907,-0.15974873647280036,-0.031783816143125296
1782810940920980200,2.031980224609375,0.0974672715395689,-0.1590476755313575,-0.06317877909913659
1782810940931052300,2.04205224609375,0.1242623394846916,-0.13649097580835223,-0.10456365954130888
1782810940941124000,2.0521240234375,0.20411212126910686,-0.1541361572880298,-0.07727773933932185
1782810940951196200,2.062196044921875,0.25458500192165373,-0.16775931671001015,-0.08043591110929846
1782810940961269200,2.072269287109375,0.22746201719641684,-0.14284918572865427,-0.08874839690253138
1782810940971340300,2.08234033203125,0.15669161392450331,-0.1463891233578324,-0.0762182934142649
1782810940981412000,2.092412109375,0.050342532271146774,-0.09533910040445626,-0.050617842081189156
1782810940991484200,2.102484130859375,-0.018972996017336843,-0.07460282104164362,-0.0021292671136558055
1782810941001556200,2.11255615234375,-0.033820436537265776,-0.1021800523404032,0.04894274847581982
1782810941011628000,2.1226279296875,-0.06045242287516594,-0.13145648877248167,0.07172112812548875
1782810941021700000,2.1327001953125,-0.031520927423238754,-0.17772972577810286,0.04624532608538866
1782810941031772200,2.142772216796875,-0.011163783571124077,-0.23809680845737455,0.028195582392811773
1782810941041844200,2.15284423828125,0.012959434816241264,-0.2401378858309239,0.08113412250652909
1782810941051916000,2.162916015625,0.049665655922889705,-0.17727102222517133,0.2234245783738792
1782810941061988000,2.172988037109375,0.02560848850905895,-0.13166976619698106,0.28180677084624767
1782810941072060400,2.183060302734375,-0.09542202944755554,-0.12386581444777547,0.2776302158139646
1782810941082132200,2.19313232421875,-0.1961363200843334,-0.12291129020191728,0.24077669519111514
1782810941092204300,2.203204345703125,-0.2673041982412338,-0.16779102702252566,0.14211173829957843
1782810941102276400,2.2132763671875,-0.325348390930891,-0.18937566684298215,0.0534630023792386
1782810941112348400,2.223348388671875,-0.26518121473789213,-0.21773411164730785,0.014456249245256184
1782810941122420200,2.233420166015625,-0.15295125835239887,-0.18982333754524588,0.035492753663659095
1782810941132492300,2.2434921875,-0.0801782830864191,-0.15845621244423092,0.060781654829531906
1782810941142564400,2.253564453125,-0.0012070377022027968,-0.12276881299130618,0.09443360293209552
1782810941152636400,2.263636474609375,0.0629763883948326,-0.11853585159666835,0.10379384421259165
1782810941162708200,2.273708251953125,0.09812135153412818,-0.13198679625689982,0.08623495277687906
1782810941172780300,2.2837802734375,0.15122516521215437,-0.15870105405077337,0.0849403829216957
1782810941182852400,2.293852294921875,0.16025836649537087,-0.1547162221983075,0.09322802653461694
1782810941192924200,2.303924072265625,0.06679156276881694,-0.13432787949033081,0.08270005664899945
1782810941202996200,2.313996337890625,-0.019234861823916434,-0.15615962593965232,0.023924773205816745
1782810941213068300,2.324068359375,0.014065934753417967,-0.19438531169854104,-0.006195201378315687
1782810941223140400,2.334140380859375,0.03560790447592735,-0.22750921733900903,-0.043187107558548446
1782810941233212200,2.344212158203125,-0.007421089911460876,-0.27581410630270836,-0.06515855473950505
1782810941243284200,2.3542841796875,-0.025234979021549222,-0.2580749629292637,-0.052786564422398805
1782810941253356300,2.364356201171875,0.006901449951529502,-0.23538206960596142,-0.0058611471183598034
1782810941263428000,2.374427978515625,0.03452829254567623,-0.2232836355332285,0.0684384531930089
1782810941273500200,2.384500244140625,0.013187982875108717,-0.2229892556965351,0.09510609536617994
1782810941283572200,2.394572265625,-0.018311901760101317,-0.1901265582755208,0.11014569745734333
1782810941293644300,2.404644287109375,-0.03274900791347027,-0.17586071703583,0.12166735455542801
1782810941303716000,2.414716064453125,0.0028629882156848904,-0.18944997418820858,0.14476386024355886
1782810941313788200,2.4247880859375,-0.03704933545589447,-0.20710640771426259,0.13098302604183554
1782810941323860200,2.434860107421875,-0.0665846420198679,-0.2526884475853294,0.15463146652430296
1782810941333932300,2.444932373046875,-0.06831541133522986,-0.24025727442689238,0.1464240485407412
1782810941344004000,2.455004150390625,-0.13299626556038854,-0.19107552956342697,0.17055837284401057
1782810941354076200,2.465076171875,-0.10556932945251464,-0.1577978216007352,0.21797756501436233
1782810941364148200,2.475148193359375,-0.013975333860516548,-0.1567253700636327,0.255423790833354
1782810941374220000,2.485219970703125,-0.03060907327532768,-0.15439605033323167,0.25751842502504585
1782810941384292000,2.4952919921875,-0.041158524340391155,-0.1278982848342508,0.2143156815059483
1782810941394364200,2.5053642578125,0.060116907310485836,-0.11777918801046908,0.22630977842137215
1782810941404436200,2.515436279296875,0.22226444855332372,-0.11662490340881049,0.2466962944984436
1782810941414508300,2.52550830078125,0.1956622728317976,-0.08827208462767303,0.23752295409217475
1782810941424580400,2.535580322265625,0.0857552064359188,-0.07737374705970287,0.18247618965283036
1782810941434652400,2.54565234375,0.07235796472430228,-0.07535853477977215,0.12975187681168318
1782810941444724200,2.55572412109375,0.023923896422982215,-0.05682553761489689,0.12480726001635194
1782810941454796300,2.56579638671875,-0.023504794228076935,-0.08250358422882854,0.07387626033276319
1782810941464868400,2.575868408203125,0.037871173232793806,-0.09118665690012276,0.025371318752318617
1782810941474940400,2.5859404296875,0.09546996024250984,-0.0765180070132017,0.036235827115923165
1782810941485012200,2.59601220703125,0.1276999127179384,-0.10417444102801382,0.02757935019060969
1782810941495084300,2.606084228515625,0.1326940677434206,-0.11325878797657787,0.0077402388632297515
1782810941505156400,2.61615625,0.1962543935060501,-0.11948343464508653,0.00791588769108057
1782810941515228200,2.626228271484375,0.2541255677163601,-0.16695581830739975,0.034152298840135334
1782810941525300200,2.63630029296875,0.2224053183287382,-0.2044249866105616,-0.019189415246993302
1782810941535372300,2.646372314453125,0.12998656235039233,-0.20611045547947288,-0.0550089166469872
1782810941545444400,2.6564443359375,0.038166356787085534,-0.18369155679196117,-0.060314914100617165
1782810941555516200,2.66651611328125,-0.004769698619842529,-0.1897431119158864,-0.002750029360502958
1782810941565588200,2.676588134765625,-0.12117197225391864,-0.18718677849657833,0.028909868142008778
1782810941575660300,2.686660400390625,-0.2819265978336334,-0.15048158030323683,0.015592705929279327
1782810941585732000,2.696732177734375,-0.3466343400657177,-0.1397325150128454,0.02675795080512762
1782810941595804200,2.70680419921875,-0.2884446014255285,-0.15080438251681624,0.05264715595170855
1782810941605876200,2.716876220703125,-0.20361410861909388,-0.15690642571896313,0.056307578155398365
1782810941615948300,2.7269482421875,-0.16219313395023344,-0.16766272446773944,0.033828181452304124
1782810941626020000,2.73702001953125,-0.06074468382000923,-0.14923026506789028,0.07305369190350175
1782810941636092200,2.747092041015625,0.03510755373835563,-0.1329676239877939,0.15300123497396706
1782810941646164200,2.757164306640625,0.09396598542034626,-0.1082815110206604,0.1835176615297794
1782810941656236300,2.767236328125,0.0652297202795744,-0.10011807830929756,0.18136881293281912
1782810941666308000,2.77730810546875,0.036654198658466336,-0.06346475643366575,0.1527550051279366
1782810941676380200,2.787380126953125,0.03687923958599567,-0.06293970964625477,0.1460717279717326
1782810941686452200,2.7974521484375,0.0009375731110572815,-0.061008083996549244,0.13790800299942493
1782810941696523300,2.807523193359375,0.023708207845687865,-0.04351458594724536,0.1426246562577784
1782810941706595000,2.817594970703125,0.01683949111998081,-0.07070997832156717,0.17746712931916117
1782810941716667100,2.827667236328125,-0.017025369080901145,-0.11038125977888703,0.17880451540276407
1782810941726739200,2.8377392578125,-0.013524667483568191,-0.06763729287795722,0.13444982536956668
1782810941736811300,2.847811279296875,-0.016777531799674034,-0.035776685171574354,0.12595102322399615
1782810941746883000,2.857883056640625,-0.18042203360199927,0.003051496525108814,0.12372501773759723
1782810941756955100,2.867955078125,-0.3541805176615715,0.001338262866437435,0.07363353761807084
1782810941767027200,2.878027099609375,-0.3888368205010891,-0.046747430388629434,-0.01117737370505929
1782810941777099000,2.88809912109375,-0.3268991275042295,-0.06694032358974218,-0.08968626227453351
1782810941787171000,2.898171142578125,-0.17210253354609012,-0.09643485975190996,-0.14378873160108924
1782810941797243100,2.9082431640625,0.1384323191344738,-0.11690671602487564,-0.06395560869053006
1782810941807315200,2.918315185546875,0.3409522027760744,-0.09077551881596445,-0.0006518880374729633
1782810941817387000,2.928386962890625,0.4088397440880537,-0.09670739308297634,0.016105477757006884
1782810941827459000,2.938458984375,0.309432444396615,-0.0680104370392859,-0.04713701422810554
1782810941837531100,2.94853125,0.19737959814369677,-0.02749766325652599,-0.08749138257876038
1782810941847603200,2.958603271484375,0.16354805569052694,-0.022568244030326604,-0.07403714998289943
1782810941857675000,2.968675048828125,0.15631635087132453,-0.021060177554935215,-0.08288885721936821
1782810941867747000,2.9787470703125,0.19084581246078014,-0.02157163420841098,-0.09099223030656575
1782810941877819100,2.988819091796875,0.21495207971334457,0.0009580313771963119,-0.06033785658478737
1782810941887891000,2.998890869140625,0.2638105109065771,0.014136515771597623,-0.030584669486433267
1782810941897963000,3.008962890625,0.39159985547363757,0.000521539656072855,-0.017279928363859654
1782810941908035000,3.01903515625,0.4184714957863092,-0.022106179476529358,0.014829904863238335
1782810941918107100,3.029107177734375,0.3585176700830459,-0.021324965970963238,-0.013765052110701798
1782810941928179000,3.039178955078125,0.22383564339280126,-0.011208061104267836,-0.010543167454749345
1782810941938251000,3.0492509765625,0.16282850924432277,-0.014888503182679414,-0.07805427666977048
1782810941948323000,3.059322998046875,0.1581657781302929,-0.026571926713734862,-0.09383709834367036
1782810941958395000,3.069394775390625,0.1248772565126419,-0.08131137876957654,-0.10751271860525011
1782810941968467000,3.079467041015625,0.0976806220293045,-0.11036109377369284,-0.06717866239026188
1782810941978539000,3.0895390625,0.11191782169640063,-0.11467559597194193,-0.05719429786205291
1782810941988611300,3.099611328125,0.18540800532102583,-0.10851152038425206,-0.028034400481730698
1782810941998683100,3.10968310546875,0.1791401770979166,-0.10846358958929776,0.007484510536491871
1782810942008755200,3.119755126953125,0.08721183498501778,-0.07746434795260429,0.04756123098954558
1782810942018827300,3.1298271484375,0.013676058652997015,-0.08711728856936096,0.07569953023716806
1782810942028899000,3.139899169921875,-0.04125555497407913,-0.12365092958807944,0.06523015867099166
1782810942038970000,3.14997021484375,0.024148352828621863,-0.15264511501267553,0.060044280465692275
1782810942049042000,3.1600419921875,0.14078268165290356,-0.18578867520168424,0.08485971890091895
1782810942059114200,3.1701142578125,0.21846564079225061,-0.1926763888888061,0.12530293457880615
1782810942069186300,3.180186279296875,0.2879752303481102,-0.17958529051691294,0.1772946953617036
1782810942079258000,3.190258056640625,0.26573417244553565,-0.13629954488947987,0.2365159690067172
1782810942089330200,3.200330078125,0.10067863480150699,-0.08219225325733423,0.3100501379035413
1782810942099402200,3.21040234375,-0.07925181589126587,-0.05538052643835544,0.32365634619072076
1782810942109474300,3.220474365234375,-0.2763034972548485,-0.038592765505611894,0.2842098864652216
1782810942119546000,3.230546142578125,-0.3487900567948818,-0.048670215144753455,0.2601002582117915
1782810942129618200,3.2406181640625,-0.2873077063500881,-0.08461056644544004,0.22258988111540673
1782810942139690200,3.250690185546875,-0.2310837148249149,-0.1221769115127623,0.22647212937623262
1782810942149762000,3.260761962890625,-0.16641162842810153,-0.1080162842132151,0.2221151032105088
1782810942159834000,3.270834228515625,-0.126162035626173,-0.10688735324852168,0.14877587236389517
1782810942169906200,3.28090625,-0.0048643911659717555,-0.08219188793115317,0.1274317633010447
1782810942179978200,3.290978271484375,0.09549684824943543,-0.052364320422336456,0.15297098596617578
1782810942190050000,3.301050048828125,0.18927227953374384,-0.08516885791532695,0.12804726485088466
1782810942200122000,3.3111220703125,0.17454700408875942,-0.1306169692084193,0.042764352101832624
1782810942210194200,3.321194091796875,0.14470482353270053,-0.16759974223412571,-0.035800650569051504
1782810942220266000,3.331265869140625,0.137342770332098,-0.24311142174899578,-0.11476882721334696
1782810942230338000,3.341338134765625,0.13600713781416415,-0.31692411532625553,-0.18779709241464734
1782810942240410000,3.35141015625,0.05188976171314716,-0.32542006792761385,-0.18252616627439855
1782810942250482200,3.361482177734375,-0.00578442862033844,-0.2980651010774076,-0.12487871781736612
1782810942260554000,3.371553955078125,-0.02695873407423496,-0.2553582513164729,-0.049840281837433574
1782810942270626000,3.3816259765625,-0.06615560295283794,-0.23767091119550168,0.004196721037477254
1782810942280698000,3.391697998046875,-0.04358195209503173,-0.22237463092952967,0.0531524751253426
1782810942290770200,3.401770263671875,-0.01975567082762718,-0.2138620194543153,0.08909121899083257
1782810942300841200,3.41184130859375,-0.11685001740157604,-0.23201770773939787,0.08154124200269579
1782810942310913000,3.4219130859375,-0.21697510997354982,-0.32251331363543867,-0.00677957713752985
1782810942320985000,3.431985107421875,-0.20102701473534107,-0.30665085085406896,-0.039637159992009396
1782810942331057200,3.44205712890625,-0.19855799427330492,-0.3553119328442961,-0.004992255329340696
1782810942341129000,3.45212890625,-0.07260930913686751,-0.3466492453739047,0.059281333269178865
1782810942351201000,3.462200927734375,0.046209377989172934,-0.31733686084561047,0.12256722600460052
1782810942361273000,3.472273193359375,0.08557283560633659,-0.2489856475446373,0.19659911529049276
1782810942371345200,3.48234521484375,0.10925181735754012,-0.20426994217932223,0.20225202648565171
1782810942381417000,3.4924169921875,0.11527589995265006,-0.1828687691669911,0.17695684170946477
1782810942391489000,3.502489013671875,0.027111878809332846,-0.20018099236525594,0.13551760073155164
1782810942401561000,3.51256103515625,-0.036570612028241155,-0.19064386014789342,0.10875891927406191
1782810942411633000,3.5226328125,0.0036257892817258834,-0.17549970170371235,0.10566723686903715
1782810942421705000,3.532705078125,0.10010638787150382,-0.13249474577903747,0.14758490901365875
1782810942431777000,3.542777099609375,0.16523089421093462,-0.11841850882731378,0.14240560667961835
1782810942441849000,3.55284912109375,0.2472019059330225,-0.14262816338911652,0.11195464657545089
1782810942451921000,3.5629208984375,0.3190057439059019,-0.15891425841003656,0.083987758371979
1782810942461993200,3.5729931640625,0.2655360195249319,-0.16076178597286342,0.09237520909756422
1782810942472065300,3.583065185546875,0.11731646586954593,-0.15569661153778433,0.0381567121759057
1782810942482137000,3.59313720703125,0.02300268992483616,-0.13739764232449234,0.02177884721830487
1782810942492209200,3.603209228515625,-0.045368835511803624,-0.14025354321226477,0.021149609404057263
1782810942502281200,3.61328125,-0.08435293842256068,-0.14291794011592865,-0.02463701312839985
1782810942512353300,3.623353271484375,-0.0985346085101366,-0.16221490739062427,-0.059019905854016536
1782810942522424300,3.63342431640625,-0.10372574741244316,-0.1941037182781845,-0.10053542693853378
1782810942532496100,3.64349609375,-0.079725278621912,-0.1915869131516665,-0.14101897462680935
1782810942542568200,3.653568115234375,-0.01129822360575199,-0.18449395921602843,-0.11850348369702696
1782810942552640300,3.66364013671875,0.016958733585476875,-0.18039879885688423,-0.04250058659911155
1782810942562712300,3.67371240234375,0.0174935711145401,-0.15575871698856353,-0.008879179765284061
1782810942572784000,3.6837841796875,-0.004718845215439796,-0.14271496488973498,-0.0027851006738841533
1782810942582856200,3.693856201171875,-0.06163315709233284,-0.13041384785175322,0.028304741855710743
1782810942592928300,3.70392822265625,-0.08977262538373469,-0.11829298275150359,0.047625820658355945
1782810942603000000,3.714,-0.08621814777255057,-0.07994564337432385,0.07270604750961066
1782810942613072100,3.724072021484375,-0.091053312844038,-0.0934579628329724,0.06004764146655798
1782810942623144200,3.734144287109375,-0.04354162008464336,-0.09774426185004413,0.0759725019596517
1782810942633216300,3.74421630859375,-0.0031131635844707487,-0.11118161637634039,0.10631211064383386
1782810942643288000,3.7542880859375,0.03978197529017925,-0.08812493124194443,0.14946093201860786
1782810942653360000,3.764360107421875,0.017434534403681753,-0.0777398769583553,0.1640256100744009
1782810942663432200,3.77443212890625,-0.01676467231810093,-0.07685396096929907,0.15551862462237476
1782810942673504000,3.78450390625,-0.05733692120313644,-0.07049582411423325,0.13995660609230398
1782810942683576000,3.794576171875,-0.0484632943958044,-0.0684364804316312,0.12114727620407938
1782810942693648100,3.804648193359375,0.005280570751428603,-0.07657835889831185,0.11554843328371643
1782810942703720200,3.81472021484375,0.035092356169223786,-0.08035685452371835,0.10436243788078427
1782810942713792000,3.8247919921875,0.099593177652359,-0.07805296149551869,0.09145254129469395
1782810942723863000,3.834863037109375,0.19229718031287193,-0.08606726805977523,0.09376973219588398
1782810942733935600,3.844935546875,0.21780746914446353,-0.12081753279305994,0.0737035341143608
1782810942744007700,3.855007568359375,0.14544424372315407,-0.1099693179771304,0.05038067232444882
1782810942754079500,3.86507958984375,0.06982055520117282,-0.08431311786882578,0.05409501667246222
1782810942764151600,3.875151611328125,0.00561842440366745,-0.04774491699337959,0.08511690853238105
1782810942774223600,3.8852236328125,-0.0935328547000885,-0.03672982117794454,0.09340922832041978
1782810942784295700,3.895295654296875,-0.12879179960787296,-0.045507951721549034,0.027878040876239536
1782810942794367500,3.905367431640625,-0.08865209692120551,-0.06047185822799801,-0.0025694120965898035
1782810942804439600,3.915439453125,-0.07049801607131957,-0.07670571160502732,0.00042333997860550876
1782810942814511600,3.92551171875,-0.012522212442755698,-0.09243987183161079,-0.040133272945880885
1782810942824583400,3.93558349609375,0.018407178828120232,-0.0783683841202408,-0.07777078355327248
1782810942834655500,3.945655517578125,0.024196283623576162,-0.07535400473512709,-0.06297317352443933
1782810942844727600,3.9557275390625,0.06370061101615429,-0.09085048374831677,-0.050391632109880444
1782810942854799600,3.965799560546875,0.1301794545739889,-0.07639635339491069,-0.04866539283916354
1782810942864871400,3.975871337890625,0.1652110204666853,-0.060395505056157706,-0.023042437413334844
1782810942874943500,3.985943603515625,0.12314531815350055,-0.08896737341545521,-0.04334098294600844
1782810942885015600,3.996015625,0.014246552017331122,-0.09696056412644684,-0.05538257226496934
1782810942895086600,4.006086669921875,-0.08859130664467811,-0.08113536461554467,-0.07317308049947023
1782810942905158400,4.016158447265625,-0.10109422986507414,-0.07201857670210302,-0.06955094447955489
1782810942915230500,4.02623046875,-0.04231587768197059,-0.10513926747217774,-0.024436229859292505
1782810942925302500,4.036302490234375,-0.0355798474252224,-0.11048537774048744,-0.02296557278484106
1782810942935374600,4.04637451171875,-0.008362170153856277,-0.10084113188683987,-0.04267608929648995
1782810942945446400,4.0564462890625,0.020257775130867958,-0.12335932623036205,-0.051841392526775595
1782810942955518700,4.066518798828125,0.05430032998621463,-0.14783661875240503,0.011329203265905379
1782810942965590800,4.0765908203125,0.08719546837210655,-0.15917130191102624,0.0445585420422256
1782810942975662600,4.08666259765625,0.0888397284477949,-0.1598954514671117,0.06647621320933103
1782810942985734700,4.096734619140625,0.13479308584928512,-0.13510039823278783,0.10756517944484949
1782810942995806700,4.106806640625,0.12446399953663348,-0.12003368893899023,0.12174188109636307
1782810943005878800,4.116878662109375,0.024469255346059798,-0.11937559035643934,0.14509265380650757
1782810943015950600,4.12695068359375,-0.0641577071338892,-0.08713730844408273,0.1322803723759949
1782810943026022700,4.137022705078125,-0.054498482906818385,-0.09986709922291338,0.10157572977170348
1782810943036094700,4.1470947265625,-0.028920389536023137,-0.11742927859425543,0.1231483868934214
1782810943046166800,4.157166748046875,-0.05969838963747024,-0.12026055649742483,0.10776990823671222
1782810943056237800,4.16723779296875,-0.08835106814801692,-0.12227313842885196,0.06521788371130824
1782810943066309600,4.1773095703125,-0.08038812644481659,-0.12132891638129949,0.02079962692260742
1782810943076381700,4.187381591796875,-0.10948737967908381,-0.1412258223105222,-0.005499766460061073
1782810943086453800,4.197453857421875,-0.054714756006002424,-0.12296455475911497,-0.014720745400339364
1782810943096525600,4.207525634765625,-0.008527005326747893,-0.11600552940145134,-0.014625906723737717
1782810943106597600,4.21759765625,0.03194353674948215,-0.1145746928807348,-0.010396014069020748
1782810943116669700,4.227669677734375,0.06706511901319026,-0.09848214767053723,-0.0291867853872478
1782810943126741800,4.23774169921875,0.07216390345692635,-0.08760741017386317,-0.02524623106792569
1782810943136813600,4.2478134765625,0.1054448262900114,-0.07849193743467331,0.0008653846576809883
1782810943146885600,4.2578857421875,0.06446984182298184,-0.05048091782853007,0.04790069207698106
1782810943156957700,4.267957763671875,-0.01695113480091095,-0.0564596999771893,0.07130538693144917
1782810943167029500,4.278029541015625,-0.08871990146040916,-0.07778430062197149,0.019620061749219892
1782810943177101600,4.2881015625,-0.06168401049673557,-0.08126863560639322,-0.007599076826870441
1782810943187173600,4.298173583984375,-0.019801263535022734,-0.09442015892863273,0.023389205024391412
1782810943197245700,4.30824560546875,0.05684241568446159,-0.0970852134194225,0.06298194135278463
1782810943207317500,4.3183173828125,0.14171148693561553,-0.09976787663213908,0.07813172582015394
1782810943217388500,4.328388427734375,0.15832476808428764,-0.10117584373392165,0.08543123517856001
1782810943227460600,4.338460693359375,0.17674539091587066,-0.11243220095932482,0.06257379894331097
1782810943237532700,4.34853271484375,0.11806348484456539,-0.09297470936067402,0.07347688575163483
1782810943247604700,4.358604736328125,0.03960252707004547,-0.0875819834716618,0.08161226141229272
1782810943257676500,4.368676513671875,-0.09013678252100944,-0.09498064235560595,0.03881444543227553
1782810943267748600,4.37874853515625,-0.12553016746342183,-0.1180521597329527,0.01653948526009917
1782810943277820700,4.388820556640625,-0.06975567327141761,-0.14264051141403614,0.007097995436936616
1782810943287892500,4.398892578125,-0.08629472014009952,-0.13408566823229193,0.012381050406396388
1782810943297964500,4.408964599609375,-0.07544365577995776,-0.12695705846138297,0.05908858717605471
1782810943308036600,4.41903662109375,-0.038489597392082214,-0.11360438654385506,0.045349546289443966
1782810943318108700,4.429108642578125,-0.04599953463077545,-0.10779241232946514,0.04474734261259437
1782810943328180500,4.439180419921875,-0.019391513690352438,-0.13304076228924094,0.06513195899352431
1782810943338252500,4.44925244140625,0.03268997120261192,-0.12183036309741437,0.09238850697055459
1782810943348324600,4.45932470703125,0.03951134165525436,-0.1183504850924015,0.08709872999936341
1782810943358395600,4.469395751953125,-0.020119827964901922,-0.10194003303945064,0.06498129847645759
1782810943368467500,4.479467529296875,-0.039914661759138104,-0.09464461533427238,0.07569733828008174
1782810943378539500,4.48953955078125,0.0047772974044084544,-0.10777063888907432,0.0736832219786942
1782810943388611600,4.499611572265625,0.05565583624839782,-0.12325462374687195,0.08388137538805604
1782810943398683600,4.50968359375,0.10119067597687244,-0.10564385599344968,0.0567526915743947
1782810943408755500,4.51975537109375,0.13849486297667027,-0.11214739266857504,0.0451148607507348
1782810943418827500,4.52982763671875,0.13933891258537767,-0.1097788369063288,0.053067865581810474
1782810943428899600,4.539899658203125,0.08360124327242374,-0.09212517985925078,0.06609393589347601
1782810943438971400,4.549971435546875,-0.026007132437825202,-0.06287965002208948,0.05947437162324786
1782810943449043500,4.56004345703125,-0.026420389413833616,-0.08505290338546037,0.040895489490032196
1782810943459115500,4.570115478515625,0.01244680911898613,-0.08191540907733141,0.022472382440418003
1782810943469187600,4.5801875,0.006569441518187523,-0.05777136709764599,0.05399447890743613
1782810943479259400,4.59025927734375,-0.058013797551393506,-0.04876768416985869,0.05119447292536497
1782810943489331700,4.600331787109375,-0.030334932509064674,-0.051636079213023184,0.03491466151475906
1782810943499402500,4.610402587890625,0.02496200729906559,-0.07967486360892653,0.02917641012370586
1782810943509474600,4.620474609375,0.04246785337328911,-0.1154915154647082,0.03801555013954639
1782810943519546600,4.630546630859375,0.0857552064359188,-0.11460048490911721,0.00961859995573759
1782810943529618400,4.640618408203125,0.11635083570778369,-0.09333382499665022,0.01530892055183649
1782810943539690500,4.6506904296875,0.07834756052792072,-0.08996478695496916,0.04231500089913606
1782810943549762600,4.660762451171875,-0.014013912305235863,-0.0662775488320738,0.032124884665757414
1782810943559834600,4.670834716796875,-0.11452654289007186,-0.06952668682113289,0.026721272056549786
1782810943569906700,4.68090673828125,-0.18202771523296832,-0.07994118639491497,0.03940481254085898
1782810943579978800,4.690978759765625,-0.12385901938080787,-0.09884754691682755,0.04895312373936176
1782810943590050800,4.70105078125,-0.10316051474511623,-0.08936192569099366,0.06995952528044581
1782810943600122600,4.71112255859375,-0.06488543688654899,-0.12813128987252712,0.030484277851879595
1782810943610194700,4.721194580078125,-0.08419044133722782,-0.09208572463169694,0.03620192484632134
1782810943620266800,4.731266845703125,0.029869068562984463,-0.12914638519920407,0.013282675421237945
1782810943630337800,4.741337890625,0.15766718095839022,-0.15679595108181238,0.03933393926173449
1782810943640409600,4.75140966796875,0.16417700124382972,-0.09802643979229032,0.05699249167963862
1782810943650481700,4.761481689453125,0.12299451150596141,-0.11652860342748463,0.043700317777693266
1782810943660553700,4.7715537109375,0.18794658388793467,-0.12219254747331142,0.04422770265266299
1782810943670625800,4.781625732421875,0.18702479286789894,-0.1216111673887819,0.05177081150859594
1782810943680697600,4.791697509765625,0.1641816774189472,-0.11675079481080174,0.0664712447732687
1782810943690769700,4.801769775390625,0.12859013955593107,-0.09047587828226387,0.05203413861989974
1782810943700841700,4.811841796875,0.052637949731945986,-0.07092844337783753,0.05699176102727651
1782810943710913500,4.82191357421875,-0.028792379242181778,-0.04161299010962247,0.043809915632009505
1782810943720985600,4.831985595703125,-0.11178805783689022,-0.053006929174810646,0.07168328033313155
1782810943731057200,4.84205712890625,-0.10582710360586643,-0.03928578927107155,0.07085384377166629
1782810943741129200,4.852129150390625,-0.017878771039843557,-0.050891471390798686,0.0460660239957273
1782810943751201300,4.862201171875,0.0604758037507534,-0.08359802840203047,0.038069472283869976
1782810943761272300,4.872272216796875,0.0980026935905218,-0.07943323687277734,0.03917991774380207
1782810943771344100,4.88234423828125,0.08335340599119663,-0.061734571640193456,0.022563421724736688
1782810943781416200,4.892416259765625,0.08078092515468598,-0.07667538953199982,0.016420681186020372
1782810943791488300,4.90248828125,0.07641571568250656,-0.08959873012155294,0.031540655037015676
1782810943801560000,4.91256005859375,0.09977437943816185,-0.0838507610540837,0.05691577318161726
1782810943811632000,4.922632080078125,0.10312836604118347,-0.07951390089355409,0.08714563788101076
1782810943821704200,4.9327041015625,0.07973463097214699,-0.0846270791888237,0.10600567504316567
1782810943831776300,4.9427763671875,0.10773732114136218,-0.08656381940506398,0.10551116952449083
1782810943841848000,4.95284814453125,0.12866671192348003,-0.10167560994960367,0.0692344258762896
1782810943851920100,4.962920166015625,0.08538637312352657,-0.09977313732914626,0.062244859249889845
1782810943861992200,4.9729921875,0.05811024366319179,-0.13948971923291684,0.02796089685410261
1782810943872063200,4.983063232421875,0.012611059769988059,-0.14304368538744747,0.009797317523509264
1782810943882135000,4.993135009765625,-0.06989595852494239,-0.11965652618966996,0.018959844274818897
1782810943892207000,5.00320703125,-0.18165069861412048,-0.10839220485351979,0.0021261983737349507
1782810943902279200,5.013279052734375,-0.22503040613532066,-0.13063048627711832,-0.0016281857237219809
1782810943912351200,5.023351318359375,-0.12828618817329407,-0.14570676711685954,-0.015976006158441303
1782810943922423000,5.033423095703125,-0.05823065517246723,-0.1595931805849075,-0.0016655951246619225
1782810943932495000,5.0434951171875,-0.043480829808115955,-0.1706698703944683,-0.009862199453264475
1782810943942567200,5.053567138671875,-0.04263444211184978,-0.1122153433382511,0.014831512298434973
1782810943952639000,5.063638916015625,-0.05766776059269905,-0.07667144400924444,0.07257686817198991
1782810943962711000,5.0737109375,-0.0542494765818119,-0.07000497185736894,0.07564312387481331
1782810943972783000,5.083783203125,-0.03887947349250316,-0.073699442461133,0.11127879314050078
1782810943982855200,5.093855224609375,-0.008925649255514144,-0.0710381873626262,0.11919395017921924
1782810943992926200,5.10392626953125,0.05061667303740978,-0.060535936440154904,0.13144625963941214
1782810944002998000,5.113998046875,0.13196341538131237,-0.06720818074569106,0.11121771060302853
1782810944013070000,5.124070068359375,0.19807342562675476,-0.06866751270852983,0.10699600125476717
1782810944023142100,5.13414208984375,0.24049685533642767,-0.11187741662077605,0.07060439905524253
1782810944033214200,5.144214111328125,0.26042262203395367,-0.11364617985896766,0.04872574472427368
1782810944043286000,5.1542861328125,0.16692542316913603,-0.14420534957796335,0.03078837536498904
1782810944053358000,5.164358154296875,0.11278817479014396,-0.19206125266514718,-0.0071454878404736515
1782810944063430100,5.17443017578125,0.06590133593082427,-0.21099603556394575,-0.015010960518568752
1782810944073502000,5.184501953125,0.01972819829881191,-0.21302608008682727,-0.04133358864635229
1782810944083574000,5.194573974609375,0.027443887242674825,-0.23478702632226048,-0.0687760145843029
1782810944093646000,5.20464599609375,0.027115385940670967,-0.24371873999238014,-0.11131576415002345
1782810944103717000,5.214717041015625,-0.000786181941628456,-0.23894765313304958,-0.10059987047687172
1782810944113789200,5.2247890625,-0.0548117866396904,-0.22566227429807184,-0.055409898663312196
1782810944123861000,5.234861083984375,-0.11971943535804748,-0.21037622316516935,-0.04130786968320608
1782810944133933000,5.24493310546875,-0.1838368104815483,-0.14784399834126233,-0.03401347489133477
1782810944144005000,5.255005126953125,-0.16596797631382942,-0.14907207883149384,0.028732173487544057
1782810944154077000,5.265076904296875,-0.12618950815498828,-0.1644556720547378,0.03822320154085755
1782810944164149000,5.27514892578125,-0.09222878636419772,-0.15918810691535473,0.04772913490235805
1782810944174221000,5.285220947265625,-0.08238076156675815,-0.14986198710016904,0.03822144797518849
1782810944184293000,5.295293212890625,-0.07790449293553829,-0.15013795449733733,0.023279314909130332
1782810944194362000,5.305362060546875,-0.062008420145511625,-0.13669994238391517,0.04299348468258977
1782810944204434200,5.31543408203125,-0.08890519489943981,-0.11817242511175573,0.026157792954891918
1782810944214505200,5.325505126953125,-0.03460661847889423,-0.10447919612824916,0.0443938529998064
1782810944224577300,5.335577392578125,0.03539806111752987,-0.1024156877271831,0.07062120405957102
1782810944234649000,5.345649169921875,0.05076163446605205,-0.08538315825313329,0.07782397504523396
1782810944244721200,5.35572119140625,0.12306757674217224,-0.07028108538500964,0.12779825852587817
1782810944254793200,5.365793212890625,0.2020873374432325,-0.056881870912015436,0.15802914613857866
1782810944264865300,5.375865234375,0.2560211722046137,-0.056902036917209624,0.19051190433129667
1782810944274937000,5.38593701171875,0.2741454424381256,-0.021110957894101737,0.22319559192359445
1782810944285009200,5.396009033203125,0.19589608158767222,0.0038120325688272712,0.2176290438376367
1782810944295081200,5.406081298828125,0.06715688894987105,-0.01739398319758475,0.17191724010705947
1782810944305153000,5.416153076171875,0.0023696517407894133,-0.06131919577233493,0.08366977846398949
1782810944315224000,5.42622412109375,-0.020903087297081947,-0.109521062752977,0.04835033554062247
1782810944325296000,5.436296142578125,-0.05605155756771564,-0.13511143108345566,0.0068611179411411285
1782810944335368200,5.4463681640625,-0.10123685320615768,-0.14941621609404682,-0.04766615266874432
1782810944345440300,5.456440185546875,-0.11255611959993839,-0.1194346270672977,-0.05420432226583361
1782810944355512000,5.466511962890625,-0.09888006094694136,-0.12764482152983544,-0.04510273192152381
1782810944365584100,5.476584228515625,-0.06261223125755787,-0.1154456304963678,-0.010229717591404914
1782810944375656200,5.48665625,-0.03213175279796123,-0.11789718836694955,0.004271101447939872
1782810944385728000,5.49672802734375,-0.046720250120759005,-0.0987472283475101,0.03180968123674392
1782810944395800000,5.506800048828125,-0.026100071418285367,-0.08628412568084895,0.05651771377474069
1782810944405872000,5.5168720703125,0.03170271373093128,-0.07225961891636253,0.07235562663674354
1782810944415943200,5.526943115234375,0.035271804389357564,-0.06342559346705674,0.0822562584042549
1782810944426015200,5.53701513671875,0.0029167642295360565,-0.07640161409191787,0.09405366370379924
1782810944436087000,5.547087158203125,0.026887422403693198,-0.08000190360620617,0.07396569218188524
1782810944446159000,5.5571591796875,0.06800970638692379,-0.11081972426138817,0.07597995461374521
1782810944456231200,5.567231201171875,0.03440788103640079,-0.12189487970098853,0.06201046597212553
1782810944466303200,5.57730322265625,-0.0700526103913784,-0.11374160305745899,-0.03357391443029046
1782810944476375000,5.587375,-0.10896481710970402,-0.1122362399958074,-0.06805193809345364
1782810944486447000,5.597447021484375,-0.161768771058321,-0.10159867225587367,-0.03282704158574343
1782810944496519200,5.607519287109375,-0.2582774266988039,-0.07042823877073824,-0.0391848861798644
1782810944506591000,5.617591064453125,-0.23683774830698964,-0.07988814103342592,-0.07035583112165332
1782810944516662000,5.627662109375,-0.15702537592351434,-0.07033822239972651,-0.06750994017124176
1782810944526734000,5.637734130859375,-0.0691635525971651,-0.06290916837751866,-0.09466858073174952
1782810944536806100,5.64780615234375,0.10321195267140865,-0.06007379882112145,-0.12158742118701338
1782810944546878200,5.657878173828125,0.2801666024237871,-0.040117929246276614,-0.10344999921098351
1782810944556950000,5.667949951171875,0.31916707194745536,-0.041924028820171946,-0.07221870238408445
1782810944567022000,5.67802197265625,0.07655892354547977,-0.04984422736018896,-0.06447481025904417
1782810944577094100,5.68809423828125,0.7337409757733344,-0.05070530116893351,0.05979892740249634
1782810944587166000,5.698166015625,0.8218406995087861,-0.143190473446995,0.10657602227702737
1782810944597238000,5.708238037109375,0.64340837841928,-0.19489647609107194,0.018658815501630305
1782810944607309000,5.71830908203125,0.32375089260637757,-0.16785181729905307,-0.03781520526185631
1782810944617381000,5.728381103515625,0.05317278726100921,-0.17974208851382134,-0.03702990010306239
1782810944627453200,5.738453125,-0.32116964394152164,-0.12027348904423416,-0.05692118000909686
1782810944637525000,5.74852490234375,-0.5051081612318754,-0.0678194445118308,-0.046417321651428936
1782810944647597000,5.75859716796875,-0.5316729275524615,-0.09876366802565753,0.04318900725468993
1782810944657669000,5.768669189453125,-0.4415571878194809,-0.0675095748450607,0.2635486450999975
1782810944667741200,5.7787412109375,-0.23968436990976333,0.04640132036469877,0.37252033034190535
1782810944677813000,5.78881298828125,-0.13132277939021586,0.013139905949681997,0.3235048088908195
1782810944687885000,5.798885009765625,-0.0671808543473482,-0.05791201767735183,0.24009572718963026
1782810944697957000,5.80895703125,-0.14179682713150976,-0.11101853476911783,0.17510770671144127
1782810944708028200,5.819028076171875,-0.03355915525257587,-0.10639080190323293,0.14468743400648235
1782810944718100000,5.829099853515625,0.1515939985245466,-0.06915303120315075,0.24292700509279966
