time,seconds_elapsed,z,y,x
1782810938977079600,0.08807958984375,0.3203938603401184,-0.01776205375790596,0.15179812908172607
1782810938987151600,0.098151611328125,0.3386727273464203,-0.055203698575496674,0.09830986708402634
1782810938997223700,0.1082236328125,0.36193814873695374,-0.1341741681098938,0.014270339161157608
1782810939007295700,0.118295654296875,0.36921897530555725,-0.19730867445468903,-0.07482171803712845
1782810939017367800,0.128367919921875,0.3512057960033417,-0.22784356772899628,-0.12854503095149994
1782810939027439900,0.13843994140625,0.29979532957077026,-0.23652173578739166,-0.1588379591703415
1782810939037512000,0.148511962890625,0.2616901397705078,-0.20287418365478516,-0.1560211330652237
1782810939047583700,0.158583740234375,0.22397898137569427,-0.16009342670440674,-0.1394115388393402
1782810939057655800,0.16865576171875,0.18964532017707825,-0.15888629853725433,-0.13204902410507202
1782810939067728000,0.178727783203125,0.15649455785751343,-0.1715237945318222,-0.11894761770963669
1782810939077799700,0.188799560546875,0.13042056560516357,-0.1342562437057495,-0.08230260759592056
1782810939087871700,0.198871826171875,0.0897144079208374,-0.08611030131578445,-0.02102513052523136
1782810939097943800,0.20894384765625,0.04795101657509804,-0.04789743199944496,0.03337669372558594
1782810939108015900,0.219015869140625,0.019354524090886116,-0.02231217734515667,0.07283062487840652
1782810939118087700,0.229087646484375,0.001816184725612402,-0.0029059064108878374,0.08888226002454758
1782810939128160800,0.239160888671875,-0.021668635308742523,0.01670587807893753,0.0844598188996315
1782810939138232800,0.24923291015625,-0.034177687019109726,0.03440383821725845,0.06427722424268723
1782810939148304600,0.2593046875,-0.0404004268348217,0.027442598715424538,0.03460082784295082
1782810939158376700,0.269376708984375,-0.04079427942633629,0.0019289485644549131,-0.0018183293286710978
1782810939168448800,0.27944873046875,-0.03326339274644852,-0.018634382635354996,-0.015968237072229385
1782810939178520600,0.2895205078125,-0.0316900797188282,-0.018117917701601982,-0.01124850008636713
1782810939188592600,0.299592529296875,-0.027907324954867363,0.004644651897251606,0.012345775030553341
1782810939198664700,0.309664794921875,-0.028542254120111465,0.03963036835193634,0.046815499663352966
1782810939208736800,0.31973681640625,-0.03104322962462902,0.05829087272286415,0.06402911245822906
1782810939218808600,0.32980859375,-0.03326397389173508,0.06028444319963455,0.06456593424081802
1782810939228880600,0.339880615234375,-0.044808510690927505,0.05359537899494171,0.054528750479221344
1782810939238952700,0.34995263671875,-0.059437479823827744,0.05870781093835831,0.04201770946383476
1782810939249024500,0.3600244140625,-0.06502160429954529,0.04634701460599899,0.029332011938095093
1782810939259096600,0.3700966796875,-0.07083746045827866,0.031374234706163406,0.012490098364651203
1782810939269168600,0.380168701171875,-0.06512231379747391,0.01748877763748169,0.0030587799847126007
1782810939279241000,0.390240966796875,-0.06976978480815887,-0.004015717655420303,-0.014194919727742672
1782810939289312800,0.400312744140625,-0.07759281992912292,-0.023591548204421997,-0.022475484758615494
1782810939299384800,0.410384765625,-0.07924456894397736,-0.019009804353117943,-0.021525884047150612
1782810939309457700,0.420457763671875,-0.08019132167100906,-0.013850996270775795,-0.007087023928761482
1782810939319529700,0.43052978515625,-0.08160050213336945,-0.013447948731482029,0.021779879927635193
1782810939329601800,0.440601806640625,-0.0802082046866417,0.004238636698573828,0.060667626559734344
1782810939339673900,0.450673828125,-0.0827898383140564,0.035615965723991394,0.1002897098660469
1782810939349745700,0.46074560546875,-0.08400183916091919,0.05761606991291046,0.13171499967575073
1782810939359817700,0.470817626953125,-0.08459296077489853,0.06125863268971443,0.13616903126239777
1782810939369889800,0.480889892578125,-0.07889752089977264,0.06026633828878403,0.1227903887629509
1782810939379961900,0.4909619140625,-0.07183321565389633,0.0517793744802475,0.10162210464477539
1782810939390033700,0.50103369140625,-0.06490126997232437,0.04221516475081444,0.06786040961742401
1782810939400105700,0.511105712890625,-0.0615292489528656,0.03622632101178169,0.036739449948072433
1782810939410177800,0.521177734375,-0.05749668926000595,0.036846570670604706,0.011626905761659145
1782810939420249600,0.53124951171875,-0.055822983384132385,0.04030876234173775,-0.014240684919059277
1782810939430321700,0.54132177734375,-0.05017761513590813,0.04969720542430878,-0.03915562108159065
1782810939440393700,0.551393798828125,-0.03544820472598076,0.06773506104946136,-0.06272725760936737
1782810939450465800,0.5614658203125,-0.015621769241988659,0.07522439956665039,-0.08988990634679794
1782810939460537600,0.57153759765625,-0.0006436180556192994,0.06055863946676254,-0.1284380853176117
1782810939470609700,0.581609619140625,0.011781626380980015,0.051815215498209,-0.16163918375968933
1782810939480681700,0.591681640625,0.025887582451105118,0.061249200254678726,-0.17163681983947754
1782810939490753500,0.60175341796875,0.035444337874650955,0.0713239312171936,-0.17132283747196198
1782810939500825600,0.61182568359375,0.0432111881673336,0.07734667509794235,-0.16748057305812836
1782810939510899000,0.62189892578125,0.044360607862472534,0.10067889094352722,-0.15739597380161285
1782810939520970800,0.631970703125,0.046237021684646606,0.14246180653572083,-0.13795951008796692
1782810939531042800,0.642042724609375,0.03802916035056114,0.17929545044898987,-0.125697523355484
1782810939541115000,0.652114990234375,0.02661777473986149,0.2051941603422165,-0.13864406943321228
1782810939551186700,0.662186767578125,0.0194083321839571,0.24590297043323517,-0.16095496714115143
1782810939561258800,0.6722587890625,0.007954736240208149,0.2922714054584503,-0.1955915093421936
1782810939571330800,0.682330810546875,0.0031645086128264666,0.30392220616340637,-0.24581179022789001
1782810939581403000,0.69240283203125,-0.007579062134027481,0.2585098445415497,-0.3055119216442108
1782810939591474700,0.702474609375,-0.02585979923605919,0.19250579178333282,-0.3596574366092682
1782810939601546800,0.712546630859375,-0.032520558685064316,0.1765802800655365,-0.38276854157447815
1782810939611618800,0.722618896484375,-0.02947736345231533,0.2036752849817276,-0.37165892124176025
1782810939621690600,0.732690673828125,-0.028102541342377663,0.228203684091568,-0.33474400639533997
1782810939631762700,0.7427626953125,-0.02755286544561386,0.2211281955242157,-0.28903377056121826
1782810939641834800,0.752834716796875,-0.03371287137269974,0.1776130646467209,-0.2461307793855667
1782810939651906800,0.76290673828125,-0.05193954333662987,0.11223351955413818,-0.21948905289173126
1782810939661978600,0.772978515625,-0.09375197440385818,0.04747689142823219,-0.20071962475776672
1782810939672050700,0.78305078125,-0.16391348838806152,-0.04743950068950653,-0.18110384047031403
1782810939682122800,0.793122802734375,-0.24088610708713531,-0.13791392743587494,-0.15626022219657898
1782810939692194800,0.80319482421875,-0.29917415976524353,-0.2058114856481552,-0.1218351349234581
1782810939702266600,0.8132666015625,-0.33270809054374695,-0.2562243938446045,-0.07672258466482162
1782810939712338700,0.823338623046875,-0.3707020580768585,-0.2990624010562897,-0.002764205215498805
1782810939722411000,0.833410888671875,-0.4055139720439911,-0.32460838556289673,0.11021853238344193
1782810939732482800,0.84348291015625,-0.41372716426849365,-0.24185572564601898,0.16867437958717346
1782810939742555000,0.853554931640625,-0.37621447443962097,-0.10591886937618256,0.15123581886291504
1782810939752628000,0.8636279296875,-0.33724445104599,-0.03143291175365448,0.13111217319965363
1782810939762699800,0.87369970703125,-0.308279424905777,-0.04181281104683876,0.15094248950481415
1782810939772771800,0.883771728515625,-0.2607225477695465,-0.07404691725969315,0.1903894990682602
1782810939782844000,0.893843994140625,-0.18282660841941833,-0.10212895274162292,0.2316533774137497
1782810939792915700,0.903915771484375,-0.08291572332382202,-0.11326602846384048,0.25417572259902954
1782810939802987800,0.91398779296875,0.02022485062479973,-0.11787071079015732,0.24210262298583984
1782810939813059800,0.924059814453125,0.11719107627868652,-0.09626848250627518,0.1958291232585907
1782810939823132000,0.9341318359375,0.19737721979618073,-0.03889409825205803,0.11505483090877533
1782810939833203700,0.94420361328125,0.2457205057144165,0.03540010750293732,0.0032801011111587286
1782810939843275800,0.95427587890625,0.25926634669303894,0.05896889045834541,-0.09789811819791794
1782810939853347800,0.964347900390625,0.2516811192035675,0.025289757177233696,-0.15678539872169495
1782810939863419600,0.974419677734375,0.23620234429836273,-0.004581095185130835,-0.16373921930789948
1782810939873491700,0.98449169921875,0.21055370569229126,-0.023974500596523285,-0.14082777500152588
1782810939883563800,0.994563720703125,0.17522373795509338,-0.04703621566295624,-0.11667762696743011
1782810939893635800,1.0046357421875,0.14219973981380463,-0.07627665996551514,-0.10073701292276382
1782810939903707600,1.014707763671875,0.12785561382770538,-0.08077732473611832,-0.09177713096141815
1782810939913779700,1.02477978515625,0.11534807831048965,-0.08334913849830627,-0.08731020987033844
1782810939923852000,1.03485205078125,0.0896415039896965,-0.08717381954193115,-0.08849304169416428
1782810939933923800,1.044923828125,0.059399981051683426,-0.07089179009199142,-0.08510097116231918
1782810939943996000,1.054995849609375,0.0327141135931015,-0.03974379599094391,-0.07590528577566147
1782810939954068000,1.06506787109375,0.01011666189879179,-0.02314191870391369,-0.06540203839540482
1782810939964140000,1.07514013671875,-0.013529318384826183,-0.029938533902168274,-0.046172648668289185
1782810939974211800,1.0852119140625,-0.033021263778209686,-0.043418653309345245,-0.018852878361940384
1782810939984284000,1.095283935546875,-0.0455961674451828,-0.03947797417640686,0.00802147202193737
1782810939994356000,1.10535595703125,-0.05115818232297897,-0.021044375374913216,0.03083650954067707
1782810940004428000,1.115427978515625,-0.05250014364719391,0.0012327010044828057,0.052456580102443695
1782810940014499800,1.125499755859375,-0.05463164299726486,0.016542304307222366,0.0686182752251625
1782810940024572000,1.135572021484375,-0.04904976859688759,0.034142717719078064,0.09403599798679352
1782810940034644000,1.14564404296875,-0.03768259659409523,0.032880112528800964,0.11602811515331268
1782810940044715800,1.1557158203125,-0.02080606110394001,0.015515690669417381,0.1318444013595581
1782810940054787800,1.165787841796875,-0.0020049423910677433,-0.010221363976597786,0.14448696374893188
1782810940064860000,1.17585986328125,0.025374244898557663,-0.031078742817044258,0.14464113116264343
1782810940074932000,1.185931884765625,0.05346260219812393,-0.05709969252347946,0.14388665556907654
1782810940085004800,1.1960048828125,0.07982146739959717,-0.07975569367408752,0.1317950189113617
1782810940095076900,1.206076904296875,0.10087322443723679,-0.11263694614171982,0.10502227395772934
1782810940105148700,1.216148681640625,0.12099777907133102,-0.157078817486763,0.06413330882787704
1782810940115220700,1.226220703125,0.1396351158618927,-0.20605222880840302,0.030230997130274773
1782810940125292800,1.236292724609375,0.14821137487888336,-0.22026799619197845,0.010454817675054073
1782810940135364900,1.24636474609375,0.15713375806808472,-0.21555952727794647,0.010544831864535809
1782810940145436700,1.256436767578125,0.16101282835006714,-0.2111646980047226,0.01865171268582344
1782810940155508700,1.2665087890625,0.16560198366641998,-0.21795417368412018,0.026942400261759758
1782810940165580800,1.276580810546875,0.16530266404151917,-0.23060789704322815,0.03329576551914215
1782810940175652900,1.28665283203125,0.1632818579673767,-0.2309999167919159,0.04759454354643822
1782810940185724700,1.296724609375,0.14878429472446442,-0.20699940621852875,0.07104779034852982
1782810940195797000,1.306796875,0.12941086292266846,-0.18115875124931335,0.09733718633651733
1782810940205869000,1.316869140625,0.106426902115345,-0.1547318696975708,0.1272372305393219
1782810940215940900,1.32694091796875,0.08173700422048569,-0.1257699877023697,0.15402862429618835
1782810940226013000,1.337012939453125,0.04485956206917763,-0.0834764763712883,0.1807454526424408
1782810940236085000,1.3470849609375,0.013383928686380386,-0.05530102923512459,0.19715024530887604
1782810940246157000,1.357156982421875,-0.009514966979622841,-0.05349357798695564,0.19316640496253967
1782810940256228900,1.367228759765625,-0.018916990607976913,-0.07175540179014206,0.1760057955980301
1782810940266301000,1.377301025390625,-0.023453494533896446,-0.09456583112478256,0.14760471880435944
1782810940276373000,1.387373046875,-0.04030650854110718,-0.10505735874176025,0.12193876504898071
1782810940286444800,1.39744482421875,-0.06332432478666306,-0.09405785799026489,0.09721981734037399
1782810940296516900,1.407516845703125,-0.08554866909980774,-0.07931540161371231,0.0736287385225296
1782810940306589000,1.4175888671875,-0.10630208253860474,-0.07423069328069687,0.03883793577551842
1782810940316661000,1.427660888671875,-0.12178915739059448,-0.06658289581537247,0.01218927837908268
1782810940326732800,1.43773291015625,-0.12575334310531616,-0.057843394577503204,-0.0055011059157550335
1782810940336804900,1.447804931640625,-0.12000756710767746,-0.04981236904859543,-0.014722301624715328
1782810940346877000,1.457876953125,-0.11009594053030014,-0.03953218460083008,-0.018169911578297615
1782810940356948700,1.46794873046875,-0.10268142819404602,-0.05219898000359535,-0.021044528111815453
1782810940367020800,1.478020751953125,-0.09537501633167267,-0.040504008531570435,-0.02630789764225483
1782810940377092900,1.4880927734375,-0.08553969860076904,-0.026496579870581627,-0.023400258272886276
1782810940387165000,1.4981650390625,-0.07711672782897949,-0.002840709174051881,-0.013353405520319939
1782810940397236700,1.50823681640625,-0.06919089704751968,0.01369059644639492,-0.00998850166797638
1782810940407308800,1.518308837890625,-0.06069894880056381,0.023222394287586212,-0.014938173815608025
1782810940417380900,1.528380859375,-0.051385343074798584,0.023230385035276413,-0.029318178072571754
1782810940427453000,1.538452880859375,-0.04395907372236252,0.001352741033770144,-0.04393937438726425
1782810940437524700,1.548524658203125,-0.02843976952135563,-0.016051549464464188,-0.05207320302724838
1782810940447596800,1.5585966796875,-0.010957828722894192,-0.022731708362698555,-0.045045141130685806
1782810940457668900,1.5686689453125,0.0019598344806581736,-0.015677794814109802,-0.024959847331047058
1782810940467740700,1.57874072265625,0.00916760042309761,-0.008082381449639797,0.000590866373386234
1782810940477812700,1.588812744140625,0.009145762771368027,-0.0031896214932203293,0.027835803106427193
1782810940487884800,1.598884765625,0.01146053709089756,-0.008570232428610325,0.04785975441336632
1782810940497956900,1.608956787109375,0.015205740928649902,-0.03022599220275879,0.053190071135759354
1782810940508028700,1.619028564453125,0.022148454561829567,-0.05687716230750084,0.051408033818006516
1782810940518100700,1.629100830078125,0.024421194568276405,-0.07098472863435745,0.04908149316906929
1782810940528173000,1.639173095703125,0.015575343742966652,-0.06166509911417961,0.06065242737531662
1782810940538244900,1.649244873046875,0.004337603226304054,-0.0453934520483017,0.0745709091424942
1782810940548317000,1.65931689453125,-0.008507226593792439,-0.03157895803451538,0.08769643306732178
1782810940558389000,1.669388916015625,-0.019399022683501244,-0.021239766851067543,0.09232421219348907
1782810940568461000,1.6794609375,-0.03285503387451172,-0.013011546805500984,0.08229579776525497
1782810940578532900,1.689532958984375,-0.04519212990999222,-0.013788923621177673,0.06174445152282715
1782810940588605000,1.69960498046875,-0.05693088844418526,-0.014725212939083576,0.04130556806921959
1782810940598677000,1.709677001953125,-0.06798114627599716,-0.0024541665334254503,0.03558696433901787
1782810940608748800,1.719748779296875,-0.08412541449069977,0.007397590205073357,0.030492393299937248
1782810940618820900,1.72982080078125,-0.0941556766629219,0.008924114517867565,0.027947211638092995
1782810940628893000,1.739892822265625,-0.10608971118927002,0.005959098692983389,0.022671233862638474
1782810940638965000,1.749965087890625,-0.11531170457601547,0.003833630122244358,0.017125999554991722
1782810940649036800,1.760036865234375,-0.12184973061084747,0.010435037314891815,0.015815556049346924
1782810940659108900,1.77010888671875,-0.12651532888412476,0.01864023692905903,0.01700412482023239
1782810940669181000,1.780180908203125,-0.1274300068616867,0.024112919345498085,0.019416701048612595
1782810940679252700,1.790252685546875,-0.1256616711616516,0.028433896601200104,0.023581087589263916
1782810940689324800,1.80032470703125,-0.12491144984960556,0.03263050317764282,0.025173785164952278
1782810940699396900,1.81039697265625,-0.12268611043691635,0.033660613000392914,0.020154260098934174
1782810940709469000,1.820468994140625,-0.12325802445411682,0.02852802723646164,0.024078020825982094
1782810940719540700,1.830540771484375,-0.1132647767663002,0.028548799455165863,0.026477528735995293
1782810940729612000,1.840612060546875,-0.099456287920475,0.029697952792048454,0.03157535195350647
1782810940739684400,1.850684326171875,-0.0816490650177002,0.027699517086148262,0.029252011328935623
1782810940749756400,1.86075634765625,-0.07286736369132996,0.01078585535287857,0.023879822343587875
1782810940759828200,1.870828125,-0.06297159194946289,0.0027202058117836714,0.019782548770308495
1782810940769900300,1.880900390625,-0.050505250692367554,-0.001914304681122303,0.02125759795308113
1782810940779972400,1.890972412109375,-0.03419072926044464,-0.0088446494191885,0.027978084981441498
1782810940790044400,1.90104443359375,-0.02024478279054165,-0.020716790109872818,0.024944575503468513
1782810940800116200,1.9111162109375,-0.013885155320167542,-0.028180299326777458,0.035363659262657166
1782810940810188300,1.921188232421875,-0.015186650678515434,-0.01723470166325569,0.05615496262907982
1782810940820260400,1.93126025390625,-0.014162665233016014,0.007638956420123577,0.07816359400749207
1782810940830332200,1.941332275390625,-0.00835894700139761,0.022501103579998016,0.09156393259763718
1782810940840404200,1.951404296875,0.00022015970898792148,0.023404713720083237,0.09232426434755325
1782810940850476300,1.961476318359375,0.004228679928928614,0.01602836325764656,0.0808330625295639
1782810940860548400,1.97154833984375,0.009270843118429184,0.0025551647413522005,0.0637960210442543
1782810940870621200,1.98162109375,0.014111661352217197,0.0008491494227200747,0.051009394228458405
1782810940880692200,1.991692138671875,0.01596522144973278,0.0031663659028708935,0.04182201996445656
1782810940890764300,2.001764404296875,0.019060997292399406,0.009522948414087296,0.03434028476476669
1782810940900836400,2.01183642578125,0.016774673014879227,0.002660248428583145,0.023180043324828148
1782810940910908200,2.021908203125,0.012313530780375004,0.007584780920296907,0.004577809013426304
1782810940920980200,2.031980224609375,0.004998892545700073,0.02136983536183834,-0.007974734529852867
1782810940931052300,2.04205224609375,0.001986830960959196,0.02558724582195282,-0.021136445924639702
1782810940941124000,2.0521240234375,-0.003728312673047185,0.01523527316749096,-0.03700036555528641
1782810940951196200,2.062196044921875,-0.007210745010524988,0.0027174316346645355,-0.050955645740032196
1782810940961269200,2.072269287109375,-0.014468657784163952,-0.009450551122426987,-0.05729556828737259
1782810940971340300,2.08234033203125,-0.027410166338086128,-0.016946138814091682,-0.05588221549987793
1782810940981412000,2.092412109375,-0.03600525110960007,-0.016234274953603745,-0.04516618698835373
1782810940991484200,2.102484130859375,-0.04020248353481293,-0.013006439432501793,-0.03214697539806366
1782810941001556200,2.11255615234375,-0.04339800775051117,-0.0020142425782978535,-0.020575804635882378
1782810941011628000,2.1226279296875,-0.04725518077611923,0.005464297253638506,-0.014917537569999695
1782810941021700000,2.1327001953125,-0.05065817013382912,0.005347650498151779,-0.016954056918621063
1782810941031772200,2.142772216796875,-0.05617833137512207,0.0003682993119582534,-0.016810815781354904
1782810941041844200,2.15284423828125,-0.05246055871248245,-0.01285749115049839,-0.019042545929551125
1782810941051916000,2.162916015625,-0.0470794141292572,-0.026990313082933426,-0.023742586374282837
1782810941061988000,2.172988037109375,-0.03322139009833336,-0.03705039992928505,-0.025967391207814217
1782810941072060400,2.183060302734375,-0.02100607566535473,-0.046179648488759995,-0.018193816766142845
1782810941082132200,2.19313232421875,-0.011217894032597542,-0.045994821935892105,0.0030944282189011574
1782810941092204300,2.203204345703125,-0.007335655391216278,-0.03484271839261055,0.026314111426472664
1782810941102276400,2.2132763671875,-0.006367329508066177,-0.021046215668320656,0.053292468190193176
1782810941112348400,2.223348388671875,-0.013877291232347488,-0.013539448380470276,0.06645485013723373
1782810941122420200,2.233420166015625,-0.016914892941713333,-0.009462947957217693,0.07345177978277206
1782810941132492300,2.2434921875,-0.015393467620015144,-0.004451371729373932,0.071738600730896
1782810941142564400,2.253564453125,-0.011842142790555954,-0.006714526563882828,0.060910191386938095
1782810941152636400,2.263636474609375,-0.010027123615145683,-0.010720794089138508,0.056174349039793015
1782810941162708200,2.273708251953125,-0.010242573916912079,-0.01082385890185833,0.0498858280479908
1782810941172780300,2.2837802734375,-0.013934893533587456,-0.02497604861855507,0.03535480424761772
1782810941182852400,2.293852294921875,-0.02112489566206932,-0.033376988023519516,0.027846019715070724
1782810941192924200,2.303924072265625,-0.022363947704434395,-0.030002083629369736,0.025466369464993477
1782810941202996200,2.313996337890625,-0.03221870958805084,-0.01997554861009121,0.02826641872525215
1782810941213068300,2.324068359375,-0.04057955741882324,-0.01641691103577614,0.027594752609729767
1782810941223140400,2.334140380859375,-0.05522427707910538,-0.01293855719268322,0.026789944618940353
1782810941233212200,2.344212158203125,-0.06083094701170921,-0.005017869174480438,0.02776271663606167
1782810941243284200,2.3542841796875,-0.06953734904527664,-0.0009967625373974442,0.03258223831653595
1782810941253356300,2.364356201171875,-0.07209285348653793,-0.005106352735310793,0.03466249629855156
1782810941263428000,2.374427978515625,-0.07333815097808838,-0.007773508783429861,0.027054643258452415
1782810941273500200,2.384500244140625,-0.0671515166759491,-0.013361728750169277,0.028753360733389854
1782810941283572200,2.394572265625,-0.05991198122501373,-0.017902685329318047,0.038616377860307693
1782810941293644300,2.404644287109375,-0.0583273209631443,-0.02551168017089367,0.0422336719930172
1782810941303716000,2.414716064453125,-0.049192413687705994,-0.03732812777161598,0.048312071710824966
1782810941313788200,2.4247880859375,-0.04153851419687271,-0.03358236327767372,0.05867007374763489
1782810941323860200,2.434860107421875,-0.04014115408062935,-0.03620664030313492,0.07034111022949219
1782810941333932300,2.444932373046875,-0.033848147839307785,-0.0387408584356308,0.08861416578292847
1782810941344004000,2.455004150390625,-0.027365218847990036,-0.02347082644701004,0.10876737534999847
1782810941354076200,2.465076171875,-0.015641378238797188,-0.024496212601661682,0.12084206193685532
1782810941364148200,2.475148193359375,-0.004635865334421396,-0.03380236402153969,0.12251106649637222
1782810941374220000,2.485219970703125,0.006648902781307697,-0.024842048063874245,0.13038694858551025
1782810941384292000,2.4952919921875,0.014990988187491894,-0.014905528165400028,0.13379499316215515
1782810941394364200,2.5053642578125,0.027171866968274117,-0.021292435005307198,0.1227349042892456
1782810941404436200,2.515436279296875,0.03772624209523201,-0.034508902579545975,0.10397453606128693
1782810941414508300,2.52550830078125,0.05161382630467415,-0.03037993609905243,0.08745215088129044
1782810941424580400,2.535580322265625,0.059175603091716766,-0.02136087417602539,0.08207842707633972
1782810941434652400,2.54565234375,0.06821155548095703,-0.01899503543972969,0.0777050033211708
1782810941444724200,2.55572412109375,0.07541700452566147,-0.0027582740876823664,0.07702003419399261
1782810941454796300,2.56579638671875,0.07637064903974533,0.010965833440423012,0.07528688758611679
1782810941464868400,2.575868408203125,0.07449871301651001,0.014394386671483517,0.07004658877849579
1782810941474940400,2.5859404296875,0.07104017585515976,0.0166116114705801,0.06356127560138702
1782810941485012200,2.59601220703125,0.07038797438144684,0.01985108107328415,0.057308439165353775
1782810941495084300,2.606084228515625,0.06806089729070663,0.02172781154513359,0.049308035522699356
1782810941505156400,2.61615625,0.068013496696949,0.008733714930713177,0.030359646305441856
1782810941515228200,2.626228271484375,0.06567371636629105,-0.00520987156778574,0.008814464323222637
1782810941525300200,2.63630029296875,0.05626290664076805,-0.010229396633803844,-0.002743921708315611
1782810941535372300,2.646372314453125,0.04640418663620949,-0.010294940322637558,-0.00923221930861473
1782810941545444400,2.6564443359375,0.0414978452026844,-0.014747479930520058,-0.006126707419753075
1782810941555516200,2.66651611328125,0.037919625639915466,-0.025774303823709488,0.00266531971283257
1782810941565588200,2.676588134765625,0.03571639209985733,-0.02970113605260849,0.02288324013352394
1782810941575660300,2.686660400390625,0.029402604326605797,-0.017646634951233864,0.052141085267066956
1782810941585732000,2.696732177734375,0.030191699042916298,-0.013182379305362701,0.08303402364253998
1782810941595804200,2.70680419921875,0.027386853471398354,-0.010916023515164852,0.1052800714969635
1782810941605876200,2.716876220703125,0.02513861283659935,-0.0061292583122849464,0.11460113525390625
1782810941615948300,2.7269482421875,0.02212969958782196,0.0022808120120316744,0.1278497725725174
1782810941626020000,2.73702001953125,0.024865563958883286,-0.006878065876662731,0.13432177901268005
1782810941636092200,2.747092041015625,0.028973756358027458,-0.01659540832042694,0.1315009593963623
1782810941646164200,2.757164306640625,0.03803356736898422,-0.036837827414274216,0.12769530713558197
1782810941656236300,2.767236328125,0.04505228251218796,-0.04868432134389877,0.121500164270401
1782810941666308000,2.77730810546875,0.050864897668361664,-0.061872296035289764,0.11998322606086731
1782810941676380200,2.787380126953125,0.05412857234477997,-0.06009514629840851,0.1185961589217186
1782810941686452200,2.7974521484375,0.057412780821323395,-0.07392653822898865,0.1163409948348999
1782810941696523300,2.807523193359375,0.06235857680439949,-0.09288880974054337,0.11477968096733093
1782810941706595000,2.817594970703125,0.07019945234060287,-0.11184359341859818,0.113242506980896
1782810941716667100,2.827667236328125,0.07586601376533508,-0.1285707950592041,0.1067250594496727
1782810941726739200,2.8377392578125,0.08355429023504257,-0.15612678229808807,0.10696235299110413
1782810941736811300,2.847811279296875,0.07637451589107513,-0.1764710396528244,0.11110105365514755
1782810941746883000,2.857883056640625,0.08620397746562958,-0.16036345064640045,0.13681520521640778
1782810941756955100,2.867955078125,0.080965057015419,-0.1218685656785965,0.16666027903556824
1782810941767027200,2.878027099609375,0.07618015259504318,-0.08314754068851471,0.1891634613275528
1782810941777099000,2.88809912109375,0.06734541058540344,-0.03476644679903984,0.2189870923757553
1782810941787171000,2.898171142578125,0.055936966091394424,-0.021199241280555725,0.22568067908287048
1782810941797243100,2.9082431640625,0.04729717597365379,-0.0348634235560894,0.2152867317199707
1782810941807315200,2.918315185546875,0.04322227090597153,-0.062142182141542435,0.18857735395431519
1782810941817387000,2.928386962890625,0.03713957592844963,-0.08353639394044876,0.163827046751976
1782810941827459000,2.938458984375,0.02744993381202221,-0.08626506477594376,0.14937487244606018
1782810941837531100,2.94853125,0.012825180776417255,-0.08097948133945465,0.13512948155403137
1782810941847603200,2.958603271484375,0.003513704752549529,-0.07369919866323471,0.12264484912157059
1782810941857675000,2.968675048828125,-0.013136799447238445,-0.05987270548939705,0.1054907813668251
1782810941867747000,2.9787470703125,-0.02823638916015625,-0.04597073793411255,0.08715305477380753
1782810941877819100,2.988819091796875,-0.04024922102689743,-0.031911008059978485,0.06674163788557053
1782810941887891000,2.998890869140625,-0.04493372142314911,-0.026296531781554222,0.040323346853256226
1782810941897963000,3.008962890625,-0.04641314968466759,-0.039692457765340805,0.005225050263106823
1782810941908035000,3.01903515625,-0.050490181893110275,-0.05781926214694977,-0.03020537830889225
1782810941918107100,3.029107177734375,-0.050515368580818176,-0.0719037652015686,-0.04961381480097771
1782810941928179000,3.039178955078125,-0.05269037187099457,-0.07020040601491928,-0.06180097162723541
1782810941938251000,3.0492509765625,-0.05351271480321884,-0.07419386506080627,-0.06261394172906876
1782810941948323000,3.059322998046875,-0.05776045471429825,-0.08054390549659729,-0.06454286724328995
1782810941958395000,3.069394775390625,-0.06512421369552612,-0.0768132358789444,-0.07071076333522797
1782810941968467000,3.079467041015625,-0.07507538050413132,-0.06884532421827316,-0.07572469860315323
1782810941978539000,3.0895390625,-0.08304302394390106,-0.059402547776699066,-0.08823344111442566
1782810941988611300,3.099611328125,-0.09192493557929993,-0.058302126824855804,-0.10883139073848724
1782810941998683100,3.10968310546875,-0.09368482977151871,-0.05411049723625183,-0.11932790279388428
1782810942008755200,3.119755126953125,-0.0967477336525917,-0.04075447842478752,-0.12469416856765747
1782810942018827300,3.1298271484375,-0.09743428975343704,-0.019809795543551445,-0.11444365978240967
1782810942028899000,3.139899169921875,-0.09403130412101746,0.005758147686719894,-0.1016724705696106
1782810942038970000,3.14997021484375,-0.09402818977832794,0.02334415167570114,-0.10225202888250351
1782810942049042000,3.1600419921875,-0.09057033807039261,0.03698486462235451,-0.11439871042966843
1782810942059114200,3.1701142578125,-0.08530309796333313,0.04951927438378334,-0.12912018597126007
1782810942069186300,3.180186279296875,-0.07840418070554733,0.04644758626818657,-0.15715287625789642
1782810942079258000,3.190258056640625,-0.06224042549729347,0.050682034343481064,-0.17220821976661682
1782810942089330200,3.200330078125,-0.04479778930544853,0.05036218836903572,-0.17420612275600433
1782810942099402200,3.21040234375,-0.020555265247821808,0.0609908401966095,-0.155802920460701
1782810942109474300,3.220474365234375,-0.0018971592653542757,0.07617697864770889,-0.12830552458763123
1782810942119546000,3.230546142578125,0.019615400582551956,0.07777480036020279,-0.09922386705875397
1782810942129618200,3.2406181640625,0.03671129792928696,0.07082661241292953,-0.0786256492137909
1782810942139690200,3.250690185546875,0.050476185977458954,0.06142531335353851,-0.06629276275634766
1782810942149762000,3.260761962890625,0.06796516478061676,0.06413134932518005,-0.057196736335754395
1782810942159834000,3.270834228515625,0.07610374689102173,0.05547771602869034,-0.047603458166122437
1782810942169906200,3.28090625,0.08726665377616882,0.041918233036994934,-0.04890201613306999
1782810942179978200,3.290978271484375,0.10206735879182816,0.016798846423625946,-0.05748637393116951
1782810942190050000,3.301050048828125,0.11336661875247955,-0.008299583569169044,-0.0737747997045517
1782810942200122000,3.3111220703125,0.1142464131116867,-0.021144172176718712,-0.08590671420097351
1782810942210194200,3.321194091796875,0.1108679324388504,-0.024520793929696083,-0.09512924402952194
1782810942220266000,3.331265869140625,0.09572762995958328,-0.027687856927514076,-0.1039213016629219
1782810942230338000,3.341338134765625,0.07405668497085571,-0.02909746766090393,-0.10795040428638458
1782810942240410000,3.35141015625,0.053216803818941116,-0.0266144797205925,-0.1040080189704895
1782810942250482200,3.361482177734375,0.03803758695721626,-0.030250227078795433,-0.09802016615867615
1782810942260554000,3.371553955078125,0.032069288194179535,-0.02892940118908882,-0.0882885605096817
1782810942270626000,3.3816259765625,0.023988457396626472,-0.029506508260965347,-0.07902661710977554
1782810942280698000,3.391697998046875,0.02454129233956337,-0.05208129435777664,-0.07298612594604492
1782810942290770200,3.401770263671875,0.02755758911371231,-0.06073123961687088,-0.07226041704416275
1782810942300841200,3.41184130859375,0.02303234487771988,-0.051193397492170334,-0.05619436874985695
1782810942310913000,3.4219130859375,0.013502225279808044,-0.04311017319560051,-0.03580121323466301
1782810942320985000,3.431985107421875,0.002749904291704297,-0.02892531454563141,-0.010246233083307743
1782810942331057200,3.44205712890625,-0.006707513704895973,-0.020855136215686798,0.004687442444264889
1782810942341129000,3.45212890625,-0.008563394658267498,-0.02982793189585209,0.00943138636648655
1782810942351201000,3.462200927734375,-0.006378004793077707,-0.040221717208623886,0.006812433246523142
1782810942361273000,3.472273193359375,-0.003855117131024599,-0.03737939894199371,0.00038681316073052585
1782810942371345200,3.48234521484375,0.0020581658463925123,-0.04631856456398964,-0.005332325119525194
1782810942381417000,3.4924169921875,0.007411270402371883,-0.0436163991689682,-0.00559533666819334
1782810942391489000,3.502489013671875,0.006264247000217438,-0.03008035011589527,-0.0036522941663861275
1782810942401561000,3.51256103515625,0.010549120604991913,-0.012411985546350479,0.0038804751820862293
1782810942411633000,3.5226328125,0.015797944739460945,-0.007159699685871601,0.0005643068579956889
1782810942421705000,3.532705078125,0.025909017771482468,-0.00006409571506083012,-0.00918962899595499
1782810942431777000,3.542777099609375,0.03104199469089508,0.002206515520811081,-0.026398709043860435
1782810942441849000,3.55284912109375,0.03624679520726204,-0.003758873324841261,-0.052978191524744034
1782810942451921000,3.5629208984375,0.038397565484046936,-0.011866866610944271,-0.07740496844053268
1782810942461993200,3.5729931640625,0.03913572058081627,-0.011024437844753265,-0.09030883759260178
1782810942472065300,3.583065185546875,0.03654180094599724,-0.005184125155210495,-0.0908244252204895
1782810942482137000,3.59313720703125,0.03334692120552063,-0.001860879361629486,-0.08281548321247101
1782810942492209200,3.603209228515625,0.03238445147871971,-0.002660093829035759,-0.07019396871328354
1782810942502281200,3.61328125,0.025359414517879486,-0.00023085949942469597,-0.059094030410051346
1782810942512353300,3.623353271484375,0.018778476864099503,0.005913585424423218,-0.05182360112667084
1782810942522424300,3.63342431640625,0.005551280453801155,0.015176120214164257,-0.03665255010128021
1782810942532496100,3.64349609375,-0.010103845968842506,0.019637979567050934,-0.03237125277519226
1782810942542568200,3.653568115234375,-0.02172119915485382,0.014463027939200401,-0.031119180843234062
1782810942552640300,3.66364013671875,-0.027782553806900978,0.010931676253676414,-0.03391896188259125
1782810942562712300,3.67371240234375,-0.030048944056034088,0.007108504883944988,-0.03593442216515541
1782810942572784000,3.6837841796875,-0.02842574752867222,0.0014839083887636662,-0.02953191287815571
1782810942582856200,3.693856201171875,-0.0274334903806448,0.0013547752751037478,-0.01683991216123104
1782810942592928300,3.70392822265625,-0.025259552523493767,0.004025925882160664,-0.0056000398471951485
1782810942603000000,3.714,-0.022889073938131332,0.008189789950847626,0.00398240564391017
1782810942613072100,3.724072021484375,-0.01945332996547222,0.011775203049182892,0.0058894953690469265
1782810942623144200,3.734144287109375,-0.016237108036875725,0.010129985399544239,0.009821725077927113
1782810942633216300,3.74421630859375,-0.010419165715575218,0.004550662823021412,0.008645406924188137
1782810942643288000,3.7542880859375,-0.001775304670445621,0.0003790343180298805,0.007018585689365864
1782810942653360000,3.764360107421875,0.00585598312318325,-0.0010697252582758665,0.0060507929883897305
1782810942663432200,3.77443212890625,0.012745808809995651,0.001987624913454056,0.009507079608738422
1782810942673504000,3.78450390625,0.015699787065386772,0.009059648960828781,0.015121555887162685
1782810942683576000,3.794576171875,0.022473420947790146,0.012916576117277145,0.01853356510400772
1782810942693648100,3.804648193359375,0.03104240819811821,0.012157042510807514,0.019046755507588387
1782810942703720200,3.81472021484375,0.03771286830306053,0.01428858283907175,0.019540077075362206
1782810942713792000,3.8247919921875,0.04569995403289795,0.015432676300406456,0.006573413498699665
1782810942723863000,3.834863037109375,0.04886401817202568,0.004019740968942642,-0.011809020303189754
1782810942733935600,3.844935546875,0.052317604422569275,0.002723047975450754,-0.023818545043468475
1782810942744007700,3.855007568359375,0.05679262802004814,0.0028286511078476906,-0.037622883915901184
1782810942754079500,3.86507958984375,0.060301076620817184,-0.004282787442207336,-0.03571579232811928
1782810942764151600,3.875151611328125,0.06219024583697319,-0.0013116700574755669,-0.032376792281866074
1782810942774223600,3.8852236328125,0.0643886849284172,0.008412063121795654,-0.02146235667169094
1782810942784295700,3.895295654296875,0.061421770602464676,0.011915327049791813,-0.010723800398409367
1782810942794367500,3.905367431640625,0.06067875027656555,0.017144443467259407,-0.0025998270139098167
1782810942804439600,3.915439453125,0.058126527816057205,0.02156222052872181,0.002442176453769207
1782810942814511600,3.92551171875,0.04879268258810043,0.022969700396060944,0.002522603841498494
1782810942824583400,3.93558349609375,0.04502449929714203,0.025212153792381287,0.00221442268230021
1782810942834655500,3.945655517578125,0.03919324278831482,0.0258350670337677,0.004049606621265411
1782810942844727600,3.9557275390625,0.03590598702430725,0.02421998418867588,-0.005509170703589916
1782810942854799600,3.965799560546875,0.03090670146048069,0.015987621620297432,-0.01844600774347782
1782810942864871400,3.975871337890625,0.027208026498556137,0.007852294482290745,-0.03346657380461693
1782810942874943500,3.985943603515625,0.019788725301623344,0.002291881013661623,-0.041936226189136505
1782810942885015600,3.996015625,0.01143899466842413,0.009576314128935337,-0.03789865970611572
1782810942895086600,4.006086669921875,0.00397894810885191,0.020183417946100235,-0.02211783267557621
1782810942905158400,4.016158447265625,0.00163506087847054,0.021347275003790855,-0.012126024812459946
1782810942915230500,4.02623046875,-0.0008600548026151955,0.0180691909044981,-0.006923007313162088
1782810942925302500,4.036302490234375,-0.005384992808103561,0.014947909861803055,-0.0002522149297874421
1782810942935374600,4.04637451171875,-0.010570965707302094,0.016166040673851967,-0.004228048026561737
1782810942945446400,4.0564462890625,-0.015660952776670456,0.018652787432074547,-0.008075498975813389
1782810942955518700,4.066518798828125,-0.02006981521844864,0.018657049164175987,-0.012601274996995926
1782810942965590800,4.0765908203125,-0.01594279147684574,0.018266979604959488,-0.014626803807914257
1782810942975662600,4.08666259765625,-0.011764557100832462,0.010420240461826324,-0.025113800540566444
1782810942985734700,4.096734619140625,-0.00285259447991848,-0.009197878651320934,-0.03618945926427841
1782810942995806700,4.106806640625,0.003351505845785141,-0.016450732946395874,-0.04323751479387283
1782810943005878800,4.116878662109375,0.008718118071556091,-0.013983665034174919,-0.035335723310709
1782810943015950600,4.12695068359375,0.010691254399716854,-0.006905247922986746,-0.02569854073226452
1782810943026022700,4.137022705078125,0.016979586333036423,-0.007224631495773792,-0.020841149613261223
1782810943036094700,4.1470947265625,0.019866453483700752,-0.010328012518584728,-0.0164842177182436
1782810943046166800,4.157166748046875,0.030534008517861366,-0.012326966039836407,-0.004306258168071508
1782810943056237800,4.16723779296875,0.029441313818097115,-0.014413553290069103,0.0020821327343583107
1782810943066309600,4.1773095703125,0.0246066115796566,-0.007318626157939434,0.010401315055787563
1782810943076381700,4.187381591796875,0.022513367235660553,-0.002274332568049431,0.016171319410204887
1782810943086453800,4.197453857421875,0.016504019498825073,-0.0005039321258664131,0.017195090651512146
1782810943096525600,4.207525634765625,0.012771599926054478,-0.004105324856936932,0.018349837511777878
1782810943106597600,4.21759765625,0.005752725061029196,-0.005900716409087181,0.012499654665589333
1782810943116669700,4.227669677734375,0.0016946003306657076,-0.0010265989694744349,0.013422173447906971
1782810943126741800,4.23774169921875,-0.0054545411840081215,-0.004662191960960627,0.010386187583208084
1782810943136813600,4.2478134765625,-0.006884658709168434,-0.014276204630732536,0.005091290455311537
1782810943146885600,4.2578857421875,-0.005548436660319567,-0.011574553325772285,0.0040773204527795315
1782810943156957700,4.267957763671875,-0.0042951530776917934,-0.0017626694170758128,0.011403943412005901
1782810943167029500,4.278029541015625,-0.007117952220141888,0.0092922393232584,0.01902148686349392
1782810943177101600,4.2881015625,-0.012720176950097084,0.013531459495425224,0.02481146529316902
1782810943187173600,4.298173583984375,-0.014328536577522755,0.012900625355541706,0.0209498293697834
1782810943197245700,4.30824560546875,-0.011708784848451614,0.010621759109199047,0.013021066784858704
1782810943207317500,4.3183173828125,-0.005259635858237743,-0.0008144300663843751,0.0001784702471923083
1782810943217388500,4.328388427734375,-0.0033211209811270237,-0.004647251218557358,-0.012671016156673431
1782810943227460600,4.338460693359375,-0.002605644054710865,-0.014832116663455963,-0.026809899136424065
1782810943237532700,4.34853271484375,-0.000054868345614522696,-0.01944497786462307,-0.030073070898652077
1782810943247604700,4.358604736328125,0.0024951843079179525,-0.015793588012456894,-0.025372806936502457
1782810943257676500,4.368676513671875,0.002989733126014471,-0.0024961577728390694,-0.01262984611093998
1782810943267748600,4.37874853515625,0.001088921562768519,0.002021458465605974,0.0021391070913523436
1782810943277820700,4.388820556640625,-0.007153562270104885,0.0009442096925340593,0.010258818976581097
1782810943287892500,4.398892578125,-0.009818663820624352,0.007165721617639065,0.017540358006954193
1782810943297964500,4.408964599609375,-0.006354423705488443,0.004597635008394718,0.020977167412638664
1782810943308036600,4.41903662109375,-0.008134976029396057,0.002367461333051324,0.026905596256256104
1782810943318108700,4.429108642578125,-0.006096058990806341,0.007764889858663082,0.0332748107612133
1782810943328180500,4.439180419921875,-0.006374740041792393,0.0034637474454939365,0.028011709451675415
1782810943338252500,4.44925244140625,-0.00289851613342762,-0.0032506142742931843,0.025740299373865128
1782810943348324600,4.45932470703125,-0.0016904301010072231,-0.007624409161508083,0.027587931603193283
1782810943358395600,4.469395751953125,-0.0017764500807970762,0.001144580775871873,0.033434636890888214
1782810943368467500,4.479467529296875,0.002231036778539419,0.003417881205677986,0.042128436267375946
1782810943378539500,4.48953955078125,0.0029663355089724064,0.002118791453540325,0.03698534145951271
1782810943388611600,4.499611572265625,0.006054118275642395,0.004424745216965675,0.03257780522108078
1782810943398683600,4.50968359375,0.006833625491708517,0.0008156296098604798,0.025623491033911705
1782810943408755500,4.51975537109375,0.006276226602494717,-0.005045756231993437,0.014484577812254429
1782810943418827500,4.52982763671875,0.006157449446618557,-0.010086853988468647,0.005447407718747854
1782810943428899600,4.539899658203125,0.010878168046474457,-0.008111532777547836,0.006437665317207575
1782810943438971400,4.549971435546875,0.0070016710087656975,0.002742445794865489,0.005732993129640818
1782810943449043500,4.56004345703125,0.0068443166092038155,-0.00436081737279892,0.013402622193098068
1782810943459115500,4.570115478515625,0.007441130932420492,-0.02187935635447502,0.013694771565496922
1782810943469187600,4.5801875,0.011396114714443684,-0.015524452552199364,0.017757905647158623
1782810943479259400,4.59025927734375,0.012352189980447292,-0.00503266416490078,0.02105196937918663
1782810943489331700,4.600331787109375,0.010872993618249893,-0.005383032374083996,0.024794166907668114
1782810943499402500,4.610402587890625,0.011606428772211075,-0.009898688644170761,0.020337898284196854
1782810943509474600,4.620474609375,0.0084581533446908,-0.00598260248079896,0.010261964984238148
1782810943519546600,4.630546630859375,0.004408817272633314,-0.0022637643851339817,0.002065287670120597
1782810943529618400,4.640618408203125,-0.0011629340006038547,-0.011197220534086227,-0.009608901105821133
1782810943539690500,4.6506904296875,-0.0009267115965485573,-0.013516834005713463,-0.00866427831351757
1782810943549762600,4.660762451171875,-0.006296747829765081,-0.012985141947865486,-0.004713769536465406
1782810943559834600,4.670834716796875,-0.004464759025722742,-0.007806891575455666,0.012410623021423817
1782810943569906700,4.68090673828125,-0.005521920043975115,-0.006144740153104067,0.028198981657624245
1782810943579978800,4.690978759765625,-0.00479887193068862,-0.008904574438929558,0.0406242273747921
1782810943590050800,4.70105078125,-0.006841706577688456,-0.019333314150571823,0.055050887167453766
1782810943600122600,4.71112255859375,-0.006750892847776413,-0.0024571288377046585,0.05234991014003754
1782810943610194700,4.721194580078125,-0.007542270235717297,0.005413506180047989,0.06040675938129425
1782810943620266800,4.731266845703125,-0.012915996834635735,0.00036921247374266386,0.05572545528411865
1782810943630337800,4.741337890625,-0.01342998631298542,-0.015348518267273903,0.037627290934324265
1782810943640409600,4.75140966796875,-0.008836566470563412,-0.004316107369959354,0.03290257602930069
1782810943650481700,4.761481689453125,-0.006388284265995026,-0.004844274837523699,0.020645493641495705
1782810943660553700,4.7715537109375,-0.007010398432612419,-0.011014552786946297,0.005535516422241926
1782810943670625800,4.781625732421875,-0.0044912006705999374,-0.01312599889934063,-0.008737025782465935
1782810943680697600,4.791697509765625,-0.006471527274698019,-0.01661713607609272,-0.023131944239139557
1782810943690769700,4.801769775390625,-0.006026170682162046,-0.014242483302950859,-0.031347066164016724
1782810943700841700,4.811841796875,-0.007337777875363827,-0.017632421106100082,-0.03317159414291382
1782810943710913500,4.82191357421875,-0.007760915905237198,-0.012408921495079994,-0.0195531714707613
1782810943720985600,4.831985595703125,-0.005082574672996998,0.0035247711930423975,-0.0034319923724979162
1782810943731057200,4.84205712890625,-0.001970290672034025,0.009990036487579346,0.004437251016497612
1782810943741129200,4.852129150390625,-0.0004062160151079297,0.009859807789325714,0.005687072407454252
1782810943751201300,4.862201171875,0.0035726227797567844,0.004780539311468601,0.0022006607614457607
1782810943761272300,4.872272216796875,0.0008125226013362408,0.005400257185101509,-0.0070588840171694756
1782810943771344100,4.88234423828125,0.004129832144826651,0.004019852727651596,-0.01402365043759346
1782810943781416200,4.892416259765625,0.001940713613294065,0.01216459833085537,-0.018609346821904182
1782810943791488300,4.90248828125,0.0035777210723608732,0.00964879710227251,-0.025587093085050583
1782810943801560000,4.91256005859375,0.007100284099578857,0.007402687333524227,-0.03238987177610397
1782810943811632000,4.922632080078125,0.010373042896389961,0.004920311272144318,-0.041105300188064575
1782810943821704200,4.9327041015625,0.019481852650642395,0.007236462086439133,-0.04570377990603447
1782810943831776300,4.9427763671875,0.02389402501285076,0.0037212660536170006,-0.055382370948791504
1782810943841848000,4.95284814453125,0.029652046039700508,-0.0029209237545728683,-0.061639733612537384
1782810943851920100,4.962920166015625,0.026313887909054756,-0.004514425527304411,-0.06139962002635002
1782810943861992200,4.9729921875,0.02748248353600502,-0.0064635928720235825,-0.061905354261398315
1782810943872063200,4.983063232421875,0.024152390658855438,-0.01525300182402134,-0.057948093861341476
1782810943882135000,4.993135009765625,0.018601831048727036,-0.015395214781165123,-0.04629037529230118
1782810943892207000,5.00320703125,0.0153135871514678,-0.0018066571792587638,-0.023919789120554924
1782810943902279200,5.013279052734375,0.011168910190463066,0.002669850131496787,-0.003640082897618413
1782810943912351200,5.023351318359375,0.00981149636209011,0.0013680970296263695,0.0030745449475944042
1782810943922423000,5.033423095703125,0.005162681918591261,-0.0023547355085611343,0.011089595034718513
1782810943932495000,5.0434951171875,-0.0023745582439005375,-0.005551638547331095,0.020321674644947052
1782810943942567200,5.053567138671875,-0.002816376741975546,-0.006091727409511805,0.029183343052864075
1782810943952639000,5.063638916015625,0.0003190012648701668,0.0011691153049468994,0.03369200602173805
1782810943962711000,5.0737109375,0.004121729172766209,0.002589911688119173,0.038893427699804306
1782810943972783000,5.083783203125,0.007670239079743624,0.0061813401989638805,0.04119095578789711
1782810943982855200,5.093855224609375,0.01313930656760931,0.009095370769500732,0.038340840488672256
1782810943992926200,5.10392626953125,0.021566195413470268,0.012215686030685902,0.032045140862464905
1782810944002998000,5.113998046875,0.02662753313779831,0.012798918411135674,0.020191414281725883
1782810944013070000,5.124070068359375,0.03448210656642914,0.011132954619824886,0.0018848942127078772
1782810944023142100,5.13414208984375,0.032416559755802155,0.004027108196169138,-0.020526938140392303
1782810944033214200,5.144214111328125,0.03140467405319214,-0.003983791451901197,-0.04142128303647041
1782810944043286000,5.1542861328125,0.025538792833685875,0.0012314768973737955,-0.05305903032422066
1782810944053358000,5.164358154296875,0.015964539721608162,0.004137984476983547,-0.061825841665267944
1782810944063430100,5.17443017578125,0.005478875711560249,0.0042921812273561954,-0.06473374366760254
1782810944073502000,5.184501953125,-0.007427106611430645,0.010135781951248646,-0.06752048432826996
1782810944083574000,5.194573974609375,-0.02475523017346859,0.010221801698207855,-0.0687444731593132
1782810944093646000,5.20464599609375,-0.04196511209011078,0.011961620301008224,-0.06982555985450745
1782810944103717000,5.214717041015625,-0.056678276509046555,0.00713384198024869,-0.06789769977331161
1782810944113789200,5.2247890625,-0.0713975727558136,0.009132036939263344,-0.05850807949900627
1782810944123861000,5.234861083984375,-0.08106671273708344,0.010814354754984379,-0.04352273792028427
1782810944133933000,5.24493310546875,-0.09200388938188553,0.012921025976538658,-0.02598370611667633
1782810944144005000,5.255005126953125,-0.09545081853866577,0.009640811011195183,-0.007512287236750126
1782810944154077000,5.265076904296875,-0.0935717299580574,0.0019794257823377848,0.0005875191418454051
1782810944164149000,5.27514892578125,-0.09563328325748444,0.0024217767640948296,0.006419841665774584
1782810944174221000,5.285220947265625,-0.09410839527845383,0.00479312427341938,0.018104875460267067
1782810944184293000,5.295293212890625,-0.09323488175868988,-0.000041045830585062504,0.024369163438677788
1782810944194362000,5.305362060546875,-0.08982473611831665,0.0071103861555457115,0.038446929305791855
1782810944204434200,5.31543408203125,-0.08810486644506454,0.011579968966543674,0.05069960281252861
1782810944214505200,5.325505126953125,-0.08252223581075668,0.010598169639706612,0.053381457924842834
1782810944224577300,5.335577392578125,-0.0746707022190094,0.015410767868161201,0.052129775285720825
1782810944234649000,5.345649169921875,-0.0680491030216217,0.018038354814052582,0.04664464294910431
1782810944244721200,5.35572119140625,-0.05867184326052666,0.015168799087405205,0.032054249197244644
1782810944254793200,5.365793212890625,-0.046803273260593414,0.01498169545084238,0.01815752126276493
1782810944264865300,5.375865234375,-0.032591313123703,-0.0014500077813863754,-0.008222954347729683
1782810944274937000,5.38593701171875,-0.017759598791599274,-0.017495065927505493,-0.02772611565887928
1782810944285009200,5.396009033203125,-0.005485624074935913,-0.017284143716096878,-0.03547218441963196
1782810944295081200,5.406081298828125,0.0047847433015704155,-0.013984614983201027,-0.03939305990934372
1782810944305153000,5.416153076171875,0.007692915387451649,-0.010827438905835152,-0.036233220249414444
1782810944315224000,5.42622412109375,0.00879961159080267,-0.018554462119936943,-0.030166707932949066
1782810944325296000,5.436296142578125,0.007999065332114697,-0.012480590492486954,-0.028963491320610046
1782810944335368200,5.4463681640625,0.002038756385445595,-0.012633404694497585,-0.017956022173166275
1782810944345440300,5.456440185546875,-0.0020617125555872917,-0.0075081512331962585,-0.00429320614784956
1782810944355512000,5.466511962890625,-0.005404092837125063,-0.005560155957937241,-0.0029907068237662315
1782810944365584100,5.476584228515625,-0.00814129039645195,-0.006504778750240803,0.004665615037083626
1782810944375656200,5.48665625,-0.010953664779663086,-0.0074743954464793205,0.012808064930140972
1782810944385728000,5.49672802734375,-0.010904662311077118,-0.00014937075320631266,0.01699082739651203
1782810944395800000,5.506800048828125,-0.011112121865153313,-0.002219661371782422,0.018789488822221756
1782810944405872000,5.5168720703125,-0.009240452200174332,-0.009860537014901638,0.01363387517631054
1782810944415943200,5.526943115234375,-0.006916578393429518,-0.009578508324921131,0.013628016225993633
1782810944426015200,5.53701513671875,-0.002744736149907112,-0.0064996276050806046,0.017260301858186722
1782810944436087000,5.547087158203125,-0.0017431206069886684,-0.007739567663520575,0.014055833220481873
1782810944446159000,5.5571591796875,-0.00025121786165982485,-0.013203841634094715,0.008847755379974842
1782810944456231200,5.567231201171875,-0.0008879039087332785,-0.015471082180738449,0.006089454982429743
1782810944466303200,5.57730322265625,-0.0070062498562037945,-0.010783919133245945,0.0185149647295475
1782810944476375000,5.587375,-0.014668773859739304,-0.017394086346030235,0.026303598657250404
1782810944486447000,5.597447021484375,-0.02145397663116455,-0.002247092081233859,0.04779530689120293
1782810944496519200,5.607519287109375,-0.026518583297729492,0.018055636435747147,0.06860702484846115
1782810944506591000,5.617591064453125,-0.038882575929164886,0.028110668063163757,0.0899738296866417
1782810944516662000,5.627662109375,-0.04875384643673897,0.03756622225046158,0.09719499200582504
1782810944526734000,5.637734130859375,-0.065939761698246,0.04263687878847122,0.09362742304801941
1782810944536806100,5.64780615234375,-0.08116364479064941,0.03610088303685188,0.0707077756524086
1782810944546878200,5.657878173828125,-0.0842214897274971,0.03272026777267456,0.047024279832839966
1782810944556950000,5.667949951171875,-0.09835956245660782,0.131072536110878,0.08523602038621902
1782810944567022000,5.67802197265625,-0.10970809310674667,0.1725238412618637,0.04671845585107803
1782810944577094100,5.68809423828125,-0.09499229490756989,0.08970277011394501,-0.008297627791762352
1782810944587166000,5.698166015625,-0.09433156996965408,-0.011231568641960621,-0.08608616888523102
1782810944597238000,5.708238037109375,-0.09451737999916077,-0.05649631842970848,-0.13554714620113373
1782810944607309000,5.71830908203125,-0.10399077832698822,-0.07599704712629318,-0.1608080267906189
1782810944617381000,5.728381103515625,-0.10296515375375748,-0.05267363041639328,-0.155292809009552
1782810944627453200,5.738453125,-0.09556848555803299,-0.02191704884171486,-0.11463139951229095
1782810944637525000,5.74852490234375,-0.09339345246553421,-0.007898185402154922,-0.07252328097820282
1782810944647597000,5.75859716796875,-0.09532956779003143,-0.003336723195388913,-0.023045741021633148
1782810944657669000,5.768669189453125,-0.08430929481983185,-0.005564065650105476,0.005094988737255335
1782810944667741200,5.7787412109375,-0.058771442621946335,-0.0299647469073534,0.022327236831188202
1782810944677813000,5.78881298828125,-0.04658569395542145,-0.05602560564875603,0.033335521817207336
1782810944687885000,5.798885009765625,-0.03196147829294205,-0.05166840925812721,0.04874270409345627
1782810944697957000,5.80895703125,-0.021005460992455482,-0.011462151072919369,0.06786880642175674
1782810944708028200,5.819028076171875,-0.01099889911711216,-0.03046167455613613,0.06359230726957321
1782810944718100000,5.829099853515625,0.014303832314908504,-0.05802783742547035,0.05580545589327812
