time,seconds_elapsed,z,y,x
1782811704928147000,0.08014697265625,-0.27786300165653227,0.042919396533071995,-0.21293387175872922
1782811704938218000,0.090218017578125,0.22171382893323896,0.020849749674648047,-0.08007540723383426
1782811704948289800,0.100289794921875,0.677262132704258,0.024715485192090273,0.036099925776571035
1782811704958360600,0.110360595703125,1.0326701463341712,0.04005392409935593,0.06588336188271642
1782811704968432600,0.1204326171875,1.2245756969809531,0.1188574117012322,0.08939312454685568
1782811704978504700,0.130504638671875,1.084957967454195,0.14215017061382532,-0.05985094985067844
1782811704988575700,0.14057568359375,0.4008575131624937,0.13650281237661838,-0.03956453314721584
1782811704998647800,0.150647705078125,-0.25769524289667606,0.09381313294619321,0.016072013878822327
1782811705008719600,0.1607197265625,-0.3292459828913212,0.1478910523533821,-0.03735927818790078
1782811705018790700,0.170790771484375,-0.2915636102288961,0.14120646002292633,-0.11756108828037977
1782811705028862700,0.18086279296875,-0.49148646311461924,0.06199322257637977,-0.25056100710257884
1782811705038933800,0.190933837890625,-0.5179477690607309,0.014703648135066031,-0.5116815482728183
1782811705049005800,0.201005859375,-0.03264788562655449,0.025862463270127773,-0.6821802998840808
1782811705059077600,0.21107763671875,0.649385699263215,0.015799626678228377,-0.6986776995681225
1782811705069148700,0.221148681640625,1.1738298446059225,-0.035785014608502384,-0.5541717596083879
1782811705079220700,0.231220703125,1.5422738654196262,0.01206423954218626,-0.4454918969199061
1782811705089291800,0.241291748046875,1.901851273688674,0.09324439314752817,-0.5349243305638433
1782811705099363800,0.25136376953125,2.37411514993906,0.2910579987943172,-0.5965319148235023
1782811705109436000,0.261435791015625,2.699979089176655,0.6876379807680845,-0.48756578253954647
1782811705119507000,0.2715068359375,2.8265052819401024,1.0679667929038406,-0.23982034431435167
1782811705129578800,0.281578857421875,2.910763527816534,1.276274027775228,0.0688935765493661
1782811705139649800,0.29164990234375,2.7395804472029206,1.2824363497972489,0.224971953946352
1782811705149721900,0.301721923828125,2.1597452540278432,1.0652759463846684,0.10389840056560933
1782811705159794000,0.3117939453125,1.427508837598562,0.8304112517163157,-0.30590996935889125
1782811705169864700,0.32186474609375,0.8924410069108009,0.7662310404896736,-0.8252288075771183
1782811705179936800,0.331936767578125,0.6879267345815897,0.7701920530751347,-1.2065588326446712
1782811705190007800,0.3420078125,0.6449672982990742,0.873882144652307,-1.3662123651146887
1782811705200079600,0.35207958984375,0.4286030137002468,1.0855004037678242,-1.4079516119524835
1782811705210151700,0.362151611328125,0.20959669016003607,1.4665440861746668,-1.5825642286233603
1782811705220222700,0.37222265625,-0.028428222104907034,1.8698694507554172,-1.7105895739033816
1782811705230294800,0.382294677734375,-0.13124036180377005,2.0422423256754874,-1.610350791823864
1782811705240365800,0.39236572265625,0.14748714772760868,1.746669772066176,-1.405120626310259
1782811705250437600,0.402437744140625,0.6171142457336187,0.9525473928272724,-0.8508440911531447
1782811705260509700,0.412509765625,0.8624480197072029,0.08199906877279281,0.13820661148666402
1782811705270580700,0.422580810546875,0.4350041129142046,-0.49877954273223873,1.367218911808729
1782811705280652800,0.43265283203125,-0.7480921572089195,-0.8743167366772889,2.346274956855178
1782811705290723800,0.442723876953125,-3.4653298397004604,-1.267258654409647,2.7658918232843277
1782811705300796000,0.4527958984375,-6.7485437013626095,-1.8746397338971494,2.231281234844774
1782811705310867700,0.46286767578125,-9.09485139144361,-2.0578890998795627,1.028143828016147
1782811705320938800,0.472938720703125,-9.878868848514557,-1.9778326896071432,-0.3934709100425243
1782811705331010800,0.4830107421875,-9.84950714495182,-2.1281047918781635,-1.507640651194751
1782811705341081900,0.493081787109375,-9.908545024853945,-2.5684479277327656,-2.0230697154328228
1782811705351154000,0.50315380859375,-10.148542698496579,-2.8710449731513856,-1.9273720839142798
1782811705361225700,0.513225830078125,-9.814807587492465,-3.2631153687462207,-1.5660770580723882
1782811705371296800,0.523296875,-9.341776234000921,-3.896549757900834,-1.404217393860221
1782811705381368800,0.533368896484375,-9.42559141228497,-4.818011692112684,-1.578283628694713
1782811705391439600,0.543439697265625,-9.175507228913903,-5.579983906114101,-2.047681594119966
1782811705401511700,0.55351171875,-7.343747144061327,-5.543171886545419,-1.970475166451186
1782811705411583700,0.563583740234375,-4.714319262447953,-5.389859393665194,-1.5863044380649924
1782811705421654800,0.57365478515625,-2.870882183805108,-5.597663355189561,-1.6594823408700525
1782811705431726600,0.5837265625,-1.0158265635609627,-5.726992330414056,-1.9817890260174869
1782811705441797600,0.593797607421875,0.639702509638667,-5.192199809536338,-1.8870117242142557
1782811705451869700,0.60386962890625,1.3944827663093804,-3.718153969429433,-1.3245002985447645
1782811705461941500,0.61394140625,1.2698054162830115,-0.408335593958199,1.9115616435810923
1782811705472012500,0.624012451171875,0.30156185715198514,1.5798103998705744,2.329926317992061
1782811705482084600,0.634084716796875,-0.43659810410737987,2.401160247122496,1.8787278799936173
1782811705492155600,0.64415576171875,0.1853799482703209,2.8508769221305847,2.31205733769387
1782811705502227500,0.6542275390625,1.1647867064505815,2.614430803489685,2.238712700019777
1782811705512299500,0.664299560546875,1.7379717940866946,2.0286562833935022,2.0302067277058957
1782811705522370300,0.674370361328125,2.662288533207774,1.4329780627898872,1.6686755550205707
1782811705532442400,0.6844423828125,4.026471438321471,0.7953099815882742,1.3618604535154997
1782811705542513400,0.694513427734375,5.683409793797135,0.3934083662003279,1.2258677826181053
1782811705552585500,0.70458544921875,7.4115294714331625,0.34401699717417356,1.4239572825968265
1782811705562657300,0.7146572265625,8.608448515203595,0.4968228557065129,1.5135885998137295
1782811705572728300,0.724728271484375,9.314512964022159,0.8437767831154167,1.3351301213696598
1782811705582800400,0.73480029296875,9.887197116398811,1.3625700630895792,1.0830981649316846
1782811705592871400,0.744871337890625,10.59203932994604,1.6278202514104545,0.9350165584422647
1782811705602943500,0.754943603515625,11.044557472240925,1.6320193105354903,0.8750364292539655
1782811705613015300,0.765015380859375,11.278207238161563,1.6016627507165073,1.0123576453413814
1782811705623086300,0.77508642578125,11.229979506087302,1.7202318469956517,1.0824156625602395
1782811705633158400,0.785158447265625,10.69534305255413,1.9221452891767024,1.175358661608398
1782811705643229400,0.7952294921875,9.705962012848257,2.24657744204551,1.3416114462129771
1782811705653301500,0.805301513671875,8.6349951613456,2.632012345148623,1.4788504639096558
1782811705663373600,0.81537353515625,8.251296288254856,2.8332635240286588,1.3232697338365018
1782811705673444600,0.825444580078125,7.688288311240076,2.881522235763073,0.9772489225592463
1782811705683516400,0.835516357421875,7.1841153850317,2.8345263835713266,0.6948552186705171
1782811705693587500,0.84558740234375,6.880989931824803,2.7707714120194313,0.544531897668913
1782811705703659500,0.855659423828125,6.653624945262074,3.0133278302341697,0.611061813826859
1782811705713731600,0.865731689453125,6.278997851899266,3.486790853141248,0.6836587018735707
1782811705723802400,0.87580224609375,5.8921945830523965,3.844269827826321,0.7922143536604941
1782811705733874400,0.88587451171875,5.383440174272656,3.905150120724737,0.8526311937656254
1782811705743945500,0.895945556640625,4.465186096191406,3.6633255239158866,0.7752461946595459
1782811705754017300,0.906017333984375,2.995188946953416,3.394951942877471,0.585158032165654
1782811705764089300,0.91608935546875,1.0980676243960856,2.9517680306389926,0.2858069829309359
1782811705774160400,0.926160400390625,-1.4133791899591683,2.6008447612076995,-0.1885287311574444
1782811705784232400,0.936232421875,-4.564764660796523,2.2760352994590995,-0.46956323898956176
1782811705794303500,0.946303466796875,-7.246129065874219,1.8689713328719137,-0.5718079905966297
1782811705804375300,0.956375244140625,-9.270954977324605,1.238325113131106,-0.4920470196068287
1782811705814447400,0.966447265625,-10.514337666106224,0.052608139115571974,-0.30189393865056335
1782811705824518400,0.976518310546875,-11.494195090663432,-1.408140997044742,0.04095722961463034
1782811705834590500,0.986590576171875,-11.57922665899992,-3.057408964022994,0.2945972788363695
1782811705844661500,0.99666162109375,-10.020461092984675,-4.886759065124393,-0.09025982437878846
1782811705854733600,1.006733642578125,-8.244124204668402,-6.27635932008922,-0.7838948536045849
1782811705864805400,1.016805419921875,-7.579848979309201,-7.309758365219831,-0.8462979721561074
1782811705874876400,1.02687646484375,-7.839128861048817,-8.052682179880142,0.12402020129188894
1782811705884948500,1.036948486328125,-8.48870686801374,-7.874956545755267,0.9832394682109356
1782811705895019500,1.04701953125,-9.581592705857753,-6.828492267346382,0.8214946625500917
1782811705905091600,1.057091552734375,-10.704997016084194,-5.839273724725842,0.005353635987639427
1782811705915163400,1.067163330078125,-10.641328553771972,-5.499695148390531,-0.8330388968061655
1782811705925234400,1.077234375,-9.134366240230202,-5.296700632974505,-1.4205240932777523
1782811705935306500,1.087306396484375,-6.840656167870759,-4.80488976021111,-1.6772604280143975
1782811705945377300,1.097377197265625,-4.316623428186774,-3.942693669438362,-1.4639176831938325
1782811705955449300,1.107449462890625,-1.5610697513043879,-2.792185663709044,-0.8398165742475538
1782811705965521400,1.117521484375,0.2724982597529888,-1.297307171192765,-0.009689765495806931
1782811705975592400,1.127592529296875,0.5158119260758162,0.3295753609761595,0.8604584533251821
1782811705985664300,1.137664306640625,-0.3036532764732838,1.1815560549438,1.055893493272364
1782811705995735300,1.1477353515625,-1.656309994444251,1.2178653856873511,0.6265917567182332
1782811706005807400,1.157807373046875,-1.854628919264674,1.0285215022221208,0.27965644267825407
1782811706015879400,1.16787939453125,-0.4859592241257429,0.5595683579549193,0.10983465874679386
1782811706025950500,1.177950439453125,1.3149006955504416,0.04045227576717734,0.09265903100762515
1782811706036022500,1.1880224609375,2.907666730844974,-0.38223961419314145,0.052279857009276745
1782811706046093600,1.198093505859375,4.452700124105811,-0.5997187281660735,0.0770944917269051
1782811706056165400,1.208165283203125,5.781588428476453,-0.6879859174229205,0.4219149873036891
1782811706066236400,1.218236328125,7.000920964106917,-0.7160163723818957,0.9117274527914822
1782811706076308500,1.22830859375,7.899599404102563,-0.6003088030137121,1.3333448453880845
1782811706086380500,1.238380615234375,7.63928842574954,-0.2557730426624417,1.613616223360598
1782811706096451600,1.24845166015625,6.6605906926214695,0.2935274576477706,1.8357066305212675
1782811706106523400,1.2585234375,5.881048919659853,0.7354983408346771,1.9043901445165274
1782811706116595500,1.268595458984375,5.4657741740882395,1.068218283446878,1.9157775077104566
1782811706126666500,1.27866650390625,5.34161997115314,1.359797091244906,1.9864606710903345
1782811706136738600,1.288738525390625,5.406078122538328,1.5861794965110718,2.136993323993683
1782811706146809300,1.298809326171875,5.69089751920402,1.6267029378183184,2.1736112822949885
1782811706156881400,1.30888134765625,6.0931397647231815,1.5038457889564334,2.0600595757864415
1782811706166952400,1.318952392578125,6.638616176700592,1.3692616696827113,1.847982028596103
1782811706177024300,1.329024169921875,7.183873977491259,1.1497647861465812,1.576485931622982
1782811706187096300,1.339096435546875,7.679138790100812,0.8824161642417311,1.2714822634540497
1782811706197167400,1.34916748046875,8.022464151749015,0.5151815192177891,1.0825237260445952
1782811706207239400,1.359239501953125,8.02347888174951,0.22959143044054506,0.8207453054875135
1782811706217310500,1.369310546875,7.4900693396627895,0.05642550544664263,0.529886847853288
1782811706227382500,1.379382568359375,6.62323272960782,-0.1418752991952002,0.4302812491107732
1782811706237454300,1.389454345703125,5.793903135648369,-0.18308233885243533,0.4724441281881183
1782811706247525400,1.399525390625,4.771602407637238,-0.1593681396573782,0.5090519304215908
1782811706257597400,1.409597412109375,2.797784798890352,-0.008427928866446019,0.38285193740520623
1782811706267668500,1.41966845703125,-0.1977922705978155,-0.051099780379235744,0.12336425813380628
1782811706277740500,1.429740478515625,-2.7293238416045904,-0.27683599669635295,0.01516647987384349
1782811706287812400,1.439812255859375,-4.271062869495153,0.034139293228089805,-0.3819331420598551
1782811706297883400,1.44988330078125,-6.580681874126196,0.7622463547676801,-0.9620261459209024
1782811706307955500,1.45995556640625,-9.492647763469815,1.179612519660592,-1.3243155896276235
1782811706318026500,1.470026611328125,-11.331358982634544,1.057723046787083,-1.5452774311497806
1782811706328098600,1.4800986328125,-11.588879453486204,0.17725772435218096,-1.349908003784716
1782811706338170600,1.490170654296875,-10.413947200596333,-1.344450907422602,-0.8120371714401989
1782811706348241400,1.500241455078125,-8.375341770118474,-2.8539751804068683,-0.6992362102337181
1782811706358313200,1.510313232421875,-5.908449552282691,-3.3697079037666318,-1.5287459830656647
1782811706368384300,1.52038427734375,-5.217980147480964,-3.1639538605093955,-2.363866727647185
1782811706378456300,1.530456298828125,-6.303766382452845,-3.617270167444646,-2.158300023655593
1782811706388528400,1.5405283203125,-7.149498245158791,-4.623468194177747,-1.629714832985401
1782811706398599400,1.550599365234375,-7.788640198305249,-5.178599738729,-1.474017636925727
1782811706408671500,1.56067138671875,-9.210153010359406,-4.79073439360857,-1.7456974199026822
1782811706418742500,1.570742431640625,-10.27965329644084,-3.8518963771820065,-2.01112939453125
1782811706428814300,1.580814453125,-9.766505036616325,-3.084519089266658,-1.7601771961539983
1782811706438886400,1.590886474609375,-8.158963456994295,-2.443268181142211,-1.1029480899140238
1782811706448957400,1.60095751953125,-6.0172933733612295,-1.6858453010082244,-0.28195976945087314
1782811706459030300,1.6110302734375,-3.8158196861505504,-0.8328419859945774,0.45140645472593605
1782811706469101000,1.62110107421875,-1.5485323412925005,0.05078443081974983,0.9464446920379995
1782811706479172900,1.6311728515625,0.6416361080497502,0.6959414064720273,1.2102978730425238
1782811706489245200,1.6412451171875,2.568741649982333,1.1109016792669892,1.2878753259807825
1782811706499316000,1.65131591796875,3.675519819578528,1.2277262699663638,1.1585311531871556
1782811706509388000,1.661387939453125,3.8949674571454524,1.2310273573383688,0.8634579274021088
1782811706519459000,1.671458984375,3.9482577333062885,1.1890063709497452,0.4428127043059095
1782811706529531000,1.68153076171875,4.092192156988382,0.984400620944798,0.014177651499584316
1782811706539603000,1.69160302734375,4.253647624313831,0.7010853452317416,-0.32536139654293655
1782811706549674000,1.701674072265625,4.629239178794622,0.35463951347544787,-0.5442431438554078
1782811706559746000,1.71174609375,5.042599615177512,0.11319441750347614,-0.6382488036990165
1782811706569817000,1.721817138671875,5.625200181412697,0.008368015372753142,-0.4945985307205468
1782811706579889200,1.73188916015625,6.4206456259489055,0.06486132535859943,-0.0806116330023855
1782811706589961000,1.7419609375,6.947633610555529,0.34919060041978955,0.4516914091471582
1782811706600032000,1.752031982421875,7.28133774189949,0.722674807357788,0.9364304438281804
1782811706610104000,1.76210400390625,7.525961906298995,1.0264746526949107,1.2933400211274624
1782811706620175000,1.772175048828125,7.546088164004683,1.1691070538677275,1.4242299620583652
1782811706630247200,1.7822470703125,7.217541269293427,1.1749326912812887,1.4208347666621208
1782811706640318200,1.792318115234375,6.573985006836057,1.220742548558861,1.570916899318993
1782811706650390300,1.802390380859375,5.825172134137153,1.323452835318446,1.7921917523130773
1782811706660462000,1.812462158203125,5.123024566501378,1.408316353611648,1.684644985307753
1782811706670532900,1.822532958984375,4.524902606007457,1.3998134598128498,1.5287965442091225
1782811706680605200,1.832605224609375,4.370789902660251,1.1917977552339434,1.3507364174328744
1782811706690676000,1.842676025390625,4.389783941465616,0.8566941323556005,1.0639506891302764
1782811706700748000,1.852748046875,5.014149765762687,0.35825463523268697,0.7850050798688083
1782811706710819800,1.86281982421875,5.662320244017243,-0.07883695148006081,0.6333296866711229
1782811706720891000,1.872890869140625,5.91790594741404,-0.21301994260698556,0.5394790712587535
1782811706730963000,1.882962890625,5.75143586679697,-0.07506620076969266,0.6644342153131961
1782811706741034000,1.893033935546875,5.298070167762041,0.15217004484683275,0.923382234749943
1782811706751106000,1.90310595703125,4.200670651885867,0.22891060856953263,0.9802990308448671
1782811706761178000,1.91317822265625,1.9470856691658496,0.20406535951793192,0.9452517559263854
1782811706771249200,1.923249267578125,-0.9775485630929469,0.12725509155988693,1.011892438982427
1782811706781321000,1.933321044921875,-3.9074943457633253,0.11160422570258378,0.6390137967221439
1782811706791392000,1.94339208984375,-5.678863382539153,0.2298966969974339,-0.2756633727204054
1782811706801464000,1.953464111328125,-6.477963257929682,0.0523214311286807,-0.9670742230907082
1782811706811536100,1.9635361328125,-6.872144362068176,-0.5054784558489919,-0.9719775580275803
1782811706821607200,1.973607177734375,-7.276895960059761,-1.442391641692817,-0.2580096426080912
1782811706831679200,1.98367919921875,-7.5138658103138205,-2.5514590912699697,0.42225094125978646
1782811706841750300,1.993750244140625,-7.321151281371712,-3.88029420414865,0.863080910783261
1782811706851822000,2.003822021484375,-6.975721056398749,-4.627689026743173,0.52863845522739
1782811706861894100,2.01389404296875,-7.532209860777854,-4.036129201243818,-0.601083002256602
1782811706871965200,2.023965087890625,-8.98444280526638,-3.538033256861567,-0.9787503400981425
1782811706882037200,2.034037353515625,-9.988099623084068,-3.737734283690154,-0.6677689126938581
1782811706892108000,2.04410791015625,-9.634716393280028,-3.8494396316796538,-0.9437009462878108
1782811706902179800,2.054179931640625,-8.865714134511352,-3.988149014189839,-1.7246492250464855
1782811706912251000,2.0642509765625,-8.478404669708013,-4.089023756085336,-2.332980883257091
1782811706922323000,2.074322998046875,-8.785087523135543,-3.5929607788354154,-2.5328759713530538
1782811706932395000,2.08439501953125,-9.283972864329815,-2.413120003376901,-2.3811204986564816
1782811706942466000,2.094466064453125,-9.269131853550672,-1.0704790679857135,-2.089700388551503
1782811706952538000,2.1045380859375,-8.240010924130678,0.009870236629247665,-1.8739051360122858
1782811706962609200,2.114609130859375,-6.058748250299692,0.7112523728504776,-1.382066352328658
1782811706972681000,2.124680908203125,-3.4706840602099893,1.3752818067550658,-0.5607257843617349
1782811706982753000,2.1347529296875,-0.6323404564380646,1.934373194848001,0.14981171821765601
1782811706992824000,2.144823974609375,2.139557037001848,2.131701355065405,0.5192893198627978
1782811707002896100,2.154896240234375,4.338317373600602,2.201128819295764,0.8226637063294648
1782811707012967200,2.16496728515625,6.036255263462662,2.1149419434443115,1.0443410757098346
1782811707023039000,2.1750390625,7.06686204752624,1.7510852504208683,1.0197418373085558
1782811707033111000,2.185111083984375,7.3173495510011906,1.3409247791230678,0.7052284363858401
1782811707043182000,2.19518212890625,7.141998829314113,1.0848512922093272,0.4845275108221918
1782811707053254100,2.205254150390625,6.63108461215198,0.9845914673417806,0.5709881621137262
1782811707063325200,2.2153251953125,5.55064967508018,1.0199538726240396,0.9151507052384317
1782811707073397200,2.225397216796875,4.143958000060915,0.9868908303253352,1.2821575328558683
1782811707083469000,2.235468994140625,3.333429552683234,0.774773827907443,1.4519418525874614
1782811707093539800,2.245539794921875,3.318617767998576,0.6772481041789055,1.5388240172266958
1782811707103612000,2.25561181640625,3.7269244281232354,0.6201480604715645,1.5695745447993277
1782811707113683000,2.265682861328125,4.137894169977307,0.4699035768598318,1.647497450174391
1782811707123755000,2.275755126953125,4.615923185625672,0.24078444010615346,1.6738384907416999
1782811707133827000,2.2858271484375,5.177790760433673,0.28346885883957146,1.7693787397414444
1782811707143898000,2.295898193359375,5.72905686172843,0.5316878328606486,1.8715322694011032
1782811707153970000,2.305969970703125,6.032158349537849,0.7355342889308929,1.7373239977024495
1782811707164041000,2.316041015625,6.34234307360649,0.9518282847724855,1.7678629283510148
1782811707174113000,2.326113037109375,6.758798553395271,0.9878305953934788,2.064706670939922
1782811707184184000,2.33618408203125,7.001440019544959,0.8083793065197765,2.3464314625911413
1782811707194256100,2.346256103515625,7.010695923668146,0.484362602584064,2.440177813911438
1782811707204328000,2.356327880859375,6.853798558038473,0.17197905329689384,2.21494603998512
1782811707214399000,2.36639892578125,6.548089518079161,-0.13986644359081982,1.8822168911531567
1782811707224471000,2.376470947265625,6.249329858866334,-0.4193497399255633,1.6258946901753544
1782811707234542000,2.3865419921875,6.127000533270835,-0.6110716045685112,1.361914960181713
1782811707244614100,2.3966142578125,6.210607621762156,-0.8307141801856458,1.2084580903947353
1782811707254686200,2.406686279296875,5.46247162541151,-0.9879743877783417,1.4198853569827974
1782811707264757200,2.41675732421875,4.272250617974996,-0.8942451337233185,1.5655708621159194
1782811707274829000,2.4268291015625,2.691220613181591,-0.988490520606935,1.7099246802538632
1782811707284899800,2.43689990234375,0.6059633216440677,-1.2536303804211317,1.1390892244838178
1782811707294972000,2.446971923828125,-1.473593127903342,-1.117987984266132,-0.04107976001575589
1782811707305044200,2.457044189453125,-3.222957253620028,-0.7440668472155928,-1.5057121673502027
1782811707315115000,2.467114990234375,-4.5653544433832165,-0.6521127861395478,-2.7977634638413784
1782811707325187000,2.47718701171875,-6.3091942527204745,-0.8811512588724494,-3.2640371597662567
1782811707335258000,2.487258056640625,-8.713894510537385,-1.3372177412986754,-2.9416654465585945
1782811707345330000,2.497329833984375,-10.725131457096337,-1.8055327337928115,-1.7482256232060491
1782811707355402000,2.507402099609375,-11.858797633618115,-1.9597022818937897,-0.7178297054141759
1782811707365473000,2.51747314453125,-11.643012025690078,-1.3797219811595975,-0.6315766324587166
1782811707375545000,2.527545166015625,-11.066318053150177,-0.28159955783635376,-1.5567188626185058
1782811707385616100,2.5376162109375,-10.909933897739649,0.34387451996356244,-2.5068080486387014
1782811707395688000,2.54768798828125,-10.985013396382332,-0.13625614413917064,-2.751642348657548
1782811707405759000,2.557759033203125,-10.721719018304347,-1.0857239833906291,-2.4095580731116235
1782811707415831000,2.5678310546875,-10.511090062487124,-1.9305276253357528,-2.386292202205956
1782811707425903000,2.577903076171875,-10.511885012257098,-2.305247657679021,-2.793036143058538
1782811707435974100,2.58797412109375,-10.178151070296764,-2.2004446364238857,-3.2064775357231494
1782811707446046200,2.598046142578125,-9.257230403354763,-1.875988810418546,-3.3741531927376984
1782811707456117200,2.6081171875,-8.107401612061262,-1.6782719431445001,-3.3122885649770497
1782811707466188800,2.618188720703125,-6.414751891735196,-1.5746455644533037,-2.9595728591710326
1782811707476260900,2.6282607421875,-4.091173335334658,-1.4113967839702963,-2.4152155143514276
1782811707486332000,2.638331787109375,-1.621171461045742,-1.0603986957371234,-1.6448916515901684
1782811707496404000,2.648404052734375,0.3859101193994283,-0.6388865170806646,-0.8415855566814542
1782811707506475000,2.65847509765625,1.8121902919858692,-0.19994725667461752,-0.1288927026990801
1782811707516547000,2.668547119140625,2.897161703443527,0.0918073460817337,0.3333878319364041
1782811707526619000,2.678618896484375,3.2156326098203656,0.08651420810967683,0.45576443073973055
1782811707536690000,2.68868994140625,2.983024461907148,-0.13467048238292337,0.2347134496293962
1782811707546762000,2.698761962890625,2.8487580302804707,-0.23689970762729642,-0.12315934667885303
1782811707556833000,2.7088330078125,3.026593554520607,-0.2945744824826717,-0.308310600759834
1782811707566905000,2.718905029296875,3.370388871768117,-0.35879371054545045,-0.2729730376578867
1782811707576977000,2.728976806640625,3.9406174476861953,-0.3762817287020385,0.051326136481016874
1782811707587048000,2.7390478515625,4.786036006659269,-0.3726687989018857,0.5060197231188416
1782811707597120000,2.7491201171875,5.833347257286309,-0.4173382539726794,0.9688450321555137
1782811707607191000,2.75919091796875,6.839786399298906,-0.40581893496215343,1.3401070329993963
1782811707617263000,2.76926318359375,7.594876452571153,-0.39969270716682076,1.4717702963903545
1782811707627335200,2.779335205078125,7.830238867628574,-0.41587125016003845,1.439365718000382
1782811707637406200,2.78940625,7.4796145811438555,-0.4537180196039378,1.5665557815000415
1782811707647478000,2.79947802734375,7.080697680655121,-0.31635888265892864,2.168888345426321
1782811707657548800,2.809548828125,7.143323355916142,-0.3187459239259362,2.460618544393778
1782811707667621000,2.81962109375,7.460965994775295,-0.2635498141437769,2.3283789424195884
1782811707677692000,2.82969189453125,7.661230792966484,0.04193915332406759,2.198858097884804
1782811707687764000,2.839763916015625,7.742683333772421,0.32220395542532204,2.040450035431236
1782811707697836000,2.8498359375,7.721077066642046,0.4791450140662491,1.9087106380641459
1782811707707907000,2.859906982421875,7.481397957429289,0.5799423068113625,1.7747395361222327
1782811707717979000,2.869978759765625,7.1562027112334965,0.6248987621299922,1.6966747380584477
1782811707728050000,2.8800498046875,6.848025819855928,0.7496620368741452,1.5363661026805637
1782811707738122000,2.8901220703125,6.711010966303944,0.9189761087454855,1.3147588028617203
1782811707748194000,2.900194091796875,6.486131951338052,0.9443842523768544,1.0981414202846587
1782811707758265000,2.91026513671875,6.040654959726333,1.0543724211849272,1.00496760815531
1782811707768337000,2.9203369140625,5.25409424791336,1.210156564875692,1.0083720097713171
1782811707778408000,2.930407958984375,4.157941517227888,1.3819719520434737,1.0756529634922742
1782811707788480000,2.94047998046875,2.5494693787574767,1.4397380584441124,1.042367437549308
1782811707798552000,2.950552001953125,0.26713293332755567,1.4086194282114506,0.7016430521797389
1782811707808623000,2.960623046875,-1.514034443885088,1.3633712964698672,0.27366584222763773
1782811707818695200,2.970695068359375,-3.1333003635704517,1.2173659117326139,-0.08013006003051996
1782811707828766200,2.98076611328125,-5.38509144861102,0.8372089490324258,-0.37655528494641183
1782811707838838000,2.990838134765625,-7.445212545326352,0.1915679892554879,-0.463803652549535
1782811707848908800,3.00090869140625,-8.70021669831872,-1.0392992090851068,-0.18089593472406268
1782811707858981000,3.010981201171875,-8.992589286842941,-2.3967072132363914,0.361425081962347
1782811707869053200,3.02105322265625,-8.439401277574897,-3.080411361686885,0.43610710572004313
1782811707879124000,3.0311240234375,-7.977516756519675,-2.9596368643179534,-0.10956892048269509
1782811707889196000,3.041196044921875,-8.401979601675272,-2.7293475147411224,-0.8026984844043851
1782811707899267000,3.05126708984375,-9.153175570118426,-3.132328595928848,-1.1609274006739259
1782811707909339000,3.0613388671875,-9.61231517637968,-3.8109053183630106,-1.0048419359490275
1782811707919411000,3.071410888671875,-10.084357518833874,-4.070463140261173,-0.8244120113015174
1782811707929482000,3.08148193359375,-10.619855557632446,-3.8228266423031685,-1.1695233795836568
1782811707939554000,3.091553955078125,-10.550117420017719,-3.4491987891107794,-1.8565237931005656
1782811707949625000,3.101625,-9.9017634018898,-3.1310441090762615,-2.482408351397514
1782811707959697000,3.11169677734375,-8.909455076560377,-2.5788325436249373,-2.9079888024061917
1782811707969769000,3.12176904296875,-7.200521160909533,-1.972577545557916,-2.976370849236846
1782811707979840000,3.131840087890625,-4.8998207912713285,-1.583153280557692,-2.7385201244950292
1782811707989912000,3.141912109375,-2.3868261629521847,-1.339467858313024,-2.2631281793519853
1782811707999983000,3.151983154296875,-0.10454173997044562,-1.049666581581533,-1.655912519559264
1782811708010055200,3.16205517578125,1.8745441645681857,-0.6474819114685059,-0.9887911109887063
1782811708020127000,3.172126953125,3.374920085456967,-0.18781272837519644,-0.39190234555155035
1782811708030198000,3.182197998046875,4.17520770932734,0.2472870999984443,0.15361118356585501
1782811708040270000,3.19227001953125,4.417805920857191,0.5379986234426498,0.506515470746532
1782811708050341000,3.202341064453125,4.457006881389022,0.7377808988139033,0.6131035487875341
1782811708060413200,3.2124130859375,4.492208543151617,0.8374687690123915,0.568510154627636
1782811708070484000,3.22248388671875,4.6713072191953655,0.8635308465078473,0.5297746196504682
1782811708080556000,3.23255615234375,4.968931736898422,0.7298601888172328,0.5586458362825214
1782811708090627800,3.2426279296875,5.388129208871722,0.4718412669241428,0.6323520738106221
1782811708100699000,3.252698974609375,5.895117777022719,0.25465514454841615,0.7639808504100889
1782811708110771000,3.26277099609375,6.340258084025979,0.09884396672025322,0.9359032781489193
1782811708120842000,3.272842041015625,6.693488753616809,0.021133973443508147,1.0097307309038936
1782811708130914000,3.2829140625,6.9662330970853565,0.01751125290170312,1.005647553243488
1782811708140985900,3.29298583984375,7.09782124941349,-0.02952800004035234,0.956787587680295
1782811708151057000,3.303056884765625,7.249613400858641,-0.04459185978993773,0.8759940222397447
1782811708161129000,3.31312890625,7.408758253154158,-0.015765432147681713,0.8327204785067588
1782811708171200000,3.323199951171875,7.369217685404419,0.004869797993451356,0.8057527574084699
1782811708181272000,3.33327197265625,7.157140284344553,0.1018405181877315,0.8140523837201297
1782811708191344000,3.34334423828125,6.706508394187688,0.2363824057549238,0.8261869850847869
1782811708201415200,3.353415283203125,6.368948756459355,0.4711356028728187,0.8660371302403509
1782811708211487000,3.363487060546875,6.194604581466317,0.7719255988694727,0.8800072034038603
1782811708221558000,3.37355810546875,6.093327980771661,0.9581114566951989,0.9163510209389031
1782811708231630000,3.383630126953125,6.045575464993715,0.8713583252631127,0.8775583489470183
1782811708241701000,3.393701171875,6.032484512752294,0.6845207255303859,0.8224463372517377
1782811708251773200,3.403773193359375,5.597081755909324,0.5066441386274994,0.7098453555967659
1782811708261845000,3.413844970703125,4.701085102343559,0.44751784978955983,0.47007286901213224
1782811708271916000,3.423916015625,3.529762272122502,0.5216638669744134,0.21863814781494437
1782811708281987800,3.43398779296875,2.5130706161648035,0.7643595475293695,0.15335428619533775
1782811708292059000,3.444058837890625,1.4896131193339823,0.9345238064892589,0.17248890251517296
1782811708302131000,3.454130859375,0.0038262802898883816,0.9204076028533279,0.09519238541014492
1782811708312203000,3.464203125,-1.7019085470587014,0.7662826245464384,-0.2122398981451988
1782811708322274000,3.474274169921875,-3.2687147961884735,0.47531829538494347,-0.6916032311372459
1782811708332345900,3.484345947265625,-4.512916984659433,-0.07748276039212941,-1.0755249531984328
1782811708342417000,3.4944169921875,-5.873876836073398,-0.8916387506172061,-0.9436265658773482
1782811708352489000,3.504489013671875,-6.899446210491657,-1.8143568223699926,-0.3810038618531078
1782811708362561000,3.51456103515625,-7.1519380395263425,-2.1779721078529954,-0.17301548367254435
1782811708372632000,3.524632080078125,-7.413464238888025,-1.7279413984596728,-0.6644369917921722
1782811708382704000,3.5347041015625,-8.585524151211976,-1.3151526244848966,-1.4891827650927005
1782811708392775200,3.544775146484375,-10.099069934797287,-1.3964452985540032,-2.1290414882063864
1782811708402847000,3.554846923828125,-11.372614537608623,-1.8368007093682883,-2.611116272114217
1782811708412918000,3.56491796875,-12.159211489778757,-2.3287743714779614,-3.0262676835671067
1782811708422990000,3.574989990234375,-12.650977938878535,-2.8384263136193155,-3.608288696348667
1782811708433062100,3.585062255859375,-13.036231640195846,-3.2115295584157106,-4.344744191777706
1782811708443133200,3.59513330078125,-13.167405366504191,-3.2129566686093805,-4.98077765751481
1782811708453205000,3.605205078125,-12.590751141452788,-2.7869018780872223,-5.136898778074979
1782811708463276000,3.615276123046875,-10.753358019149303,-2.437809769605845,-4.589049207225441
1782811708473347800,3.625347900390625,-8.039455034038424,-2.3780586268678308,-3.6445027500241993
1782811708483420000,3.635419921875,-4.835293666303158,-2.3268068707972764,-2.5921207720041273
1782811708493491000,3.645490966796875,-1.9223937109798193,-1.7209443791791796,-1.4115008288666606
1782811708503563000,3.65556298828125,0.25854864485561846,-0.5451486413277685,0.04402399677410722
1782811708513634000,3.665634033203125,1.6531927392065524,0.6670373835489154,1.5991028371006248
1782811708523705900,3.675705810546875,1.99251646399796,1.5259985840536654,2.717303733465075
1782811708533778000,3.68577783203125,1.6301736826688051,1.8774881090655922,3.214220404934883
1782811708543849000,3.695848876953125,1.2224345932990313,1.7662353271491824,2.9750615202039477
1782811708553921000,3.705921142578125,1.2588432927638291,1.4182169853791593,2.3360995997995135
1782811708563991800,3.71599169921875,1.6451228299975393,1.0074491227727382,1.7221981786325573
1782811708574063900,3.72606396484375,2.24751823002696,0.49784576901346445,1.2607751376092433
1782811708584135000,3.736135009765625,3.1056366960972546,0.008202120753936469,1.0159721825767307
1782811708594206700,3.746206787109375,4.260895695745945,-0.2849414886754006,0.8907388791680335
1782811708604278800,3.75627880859375,5.477789021530747,-0.47160994238629933,0.7829406216196715
1782811708614349800,3.766349853515625,6.563021129751205,-0.6132452953457832,0.7479958572275937
1782811708624422000,3.776421875,7.460851428484916,-0.7229590311266482,0.7733112080089748
1782811708634493000,3.786492919921875,8.094881153184176,-0.6987806484859437,0.8619559984065592
1782811708644565000,3.79656494140625,8.253841296562552,-0.5194298243120312,0.9224477303788066
1782811708654636800,3.80663671875,8.197574050417542,-0.23915289338156578,0.9933326999410986
1782811708664707800,3.816707763671875,8.073380684515833,0.057864306078106165,1.0617964337058365
1782811708674780000,3.82677978515625,7.9156696644157165,0.27510245090201496,1.10521194319278
1782811708684851000,3.836850830078125,7.831948009634018,0.4061975590161979,1.1819538220897317
1782811708694923000,3.846923095703125,7.672778022897243,0.48617432818114753,1.282859251384437
1782811708704994800,3.856994873046875,7.357939920064807,0.6290855462953447,1.292455785638839
1782811708715065900,3.86706591796875,6.998626131168008,0.7768360211342573,1.2726271957054733
1782811708725138000,3.877137939453125,6.642886109104752,0.9557757072240114,1.2689791945919393
1782811708735209000,3.887208984375,6.4346420025974504,1.0588931134797632,1.323991764500737
1782811708745281000,3.897281005859375,5.9611722576886415,1.1509992963775992,1.393482064834237
1782811708755351800,3.907351806640625,5.196566772574186,1.171479189826548,1.3583990610152483
1782811708765423900,3.917423828125,4.3992666400820015,1.0095233717635272,1.1938693008109926
1782811708775496000,3.927495849609375,3.5908705285578963,0.7042844335339963,0.9141032420121132
1782811708785566700,3.937566650390625,2.639662275379896,0.35103082145899533,0.42247298651263115
1782811708795638800,3.947638671875,1.1764186920553446,0.10038345124721526,-0.12312836701869964
1782811708805709800,3.957709716796875,-0.6390759021729231,0.32796266508251426,-0.45468905659317965
1782811708815782000,3.967781982421875,-2.669486335757375,0.7459153976917267,-0.5248485614251345
1782811708825854000,3.97785400390625,-5.040878782734275,0.7641185783803462,-0.4126069146018475
1782811708835924700,3.9879248046875,-6.745628106176853,0.3556970597043633,-0.10170571282692253
1782811708845996800,3.997996826171875,-7.941639387452602,-0.1623757970407605,0.5324602785378694
1782811708856067800,4.00806787109375,-8.598530932301282,-0.931930428995192,1.1111852454487234
1782811708866140000,4.018139892578125,-8.399853111040592,-1.7507541187703608,1.1545820502351969
1782811708876212000,4.0282119140625,-7.729823852199315,-2.296931957015395,0.4222329672116786
1782811708886283000,4.038282958984375,-7.342610833507776,-2.3269018556043504,-0.5713759193222969
1782811708896354800,4.048354736328125,-7.859435736018419,-2.3827517531201243,-1.154982739990577
1782811708906425900,4.05842578125,-8.60519214375615,-2.6061694633617996,-1.2067631230451166
1782811708916498000,4.068497802734375,-9.6784491520226,-2.93962312707603,-1.1745277637422085
1782811708926569000,4.07856884765625,-10.502509281146526,-3.093167967407405,-1.6098568708270786
1782811708936641000,4.08864111328125,-10.442586435103415,-2.994082739277184,-2.3885791440993547
1782811708946713000,4.098713134765625,-9.732802673500776,-3.058829644475877,-3.183732619951665
1782811708956784000,4.1087841796875,-8.434629240867496,-3.317239465382695,-3.660038757330179
1782811708966856000,4.11885595703125,-6.5474570653945205,-3.5672704572618006,-3.497600708708167
1782811708976926700,4.1289267578125,-4.277794223576784,-3.614123686112463,-2.9264561869889496
1782811708986998800,4.138998779296875,-1.7563696205645798,-3.110956722076237,-2.098204889785498
1782811708997070800,4.14907080078125,0.6542331392943859,-2.118663594315946,-1.2129118549332023
1782811709007142000,4.159141845703125,2.2908488377094267,-1.081362281049788,-0.5773235026150941
1782811709017213700,4.169213623046875,3.0415257507145403,-0.06965279741883278,-0.2998037614382803
1782811709027284700,4.17928466796875,3.1384459097653625,0.898330357210338,-0.21126286980658768
1782811709037356800,4.189356689453125,2.9748826565057036,1.7324118218719957,-0.017095657838135957
1782811709047427800,4.199427734375,2.844113419345021,2.3143982017315925,0.32522973298728464
1782811709057500000,4.2095,2.906281998488307,2.5081945345610377,0.7304676531910896
1782811709067572000,4.219572021484375,3.0186627615213393,2.162627969857305,0.9004265988372265
1782811709077643000,4.22964306640625,3.32672333304286,1.5030587302319705,0.8154444226004183
1782811709087714800,4.23971484375,3.992656847003102,0.868536984232068,0.7263729312233627
1782811709097785900,4.249785888671875,4.693922371107339,0.3407354912854731,0.762921769811213
1782811709107858000,4.25985791015625,5.2495823234468695,-0.11750877357125282,0.8095714389137924
1782811709117930000,4.269929931640625,4.765597029742598,-0.38252310730963945,0.9475666818052529
1782811709128001000,4.2800009765625,3.7050802605837583,-0.5765699077688157,0.9597174305871129
1782811709138073000,4.290072998046875,4.189576426419616,-0.4770987490609288,0.9865832256808876
1782811709148144000,4.30014404296875,5.260328173866868,-0.23771818440333006,1.1165870314270256
1782811709158216000,4.3102158203125,6.163786249354481,-0.049599458818882704,1.3450453661844133
1782811709168286700,4.32028662109375,6.706886579850315,-0.024239245982468127,1.6402688140951096
1782811709178358800,4.33035888671875,6.961565105274319,0.12589300942644477,2.2279021138004955
1782811709188430800,4.340430908203125,6.950997534030676,0.72539400318861,3.337259047843516
1782811709198502000,4.350501953125,6.979922015219927,0.18414485351741314,3.2266070082992315
1782811709208573700,4.36057373046875,7.126014493718743,-0.3438737893112004,2.9560154589504
1782811709218644700,4.370644775390625,7.445182150188088,-0.44740562158673997,2.7990859446167944
1782811709228716800,4.380716796875,7.552990782999992,-0.2368400863945484,2.544159581911564
1782811709238788900,4.390788818359375,7.207435470342635,-0.05886603046655654,2.041153945916891
1782811709248860000,4.40085986328125,5.558400435337424,0.031080197918415067,1.496411693432927
1782811709258932000,4.410931884765625,4.316260440093279,0.13822817486450076,1.3076787814728914
1782811709269003000,4.4210029296875,3.4325311474263667,0.10966098268032073,1.1718529915750027
1782811709279074800,4.43107470703125,2.721756621220708,0.05991641630232334,1.1809303242608904
1782811709289147000,4.44114697265625,2.069548265752196,0.09539470304921269,1.1557435682952404
1782811709299218000,4.451218017578125,1.2555319762587547,0.28332915810793635,1.084884463826567
1782811709309290000,4.4612900390625,0.01372165136039257,0.5348164862751961,0.7468659764148294
1782811709319361000,4.471361083984375,-1.239050212535262,0.6989078550621867,0.11167407606840132
1782811709329433000,4.48143310546875,-2.1110200938254593,0.4885901571512222,-0.7121648115202784
1782811709339504000,4.491504150390625,-2.6433336573690176,0.1427341079816222,-1.326064917512983
1782811709349576000,4.501575927734375,-3.4302579417973753,-0.32533027075231075,-1.29482733707577
1782811709359648000,4.51164794921875,-4.591835623073577,-0.8340802956178784,-0.5685140270851552
1782811709369718800,4.52171875,-5.674228123953938,-1.5550395312294363,0.6575183715101331
1782811709379790800,4.531790771484375,-6.276812909075617,-2.467807286854088,2.1461199026487767
1782811709389862000,4.54186181640625,-6.618382951489091,-3.007150895164907,2.8328847538441417
1782811709399933700,4.55193359375,-7.126830486276745,-2.9128917720168825,1.5236378462716935
1782811709410005800,4.562005859375,-7.962823045256734,-2.5756638504609466,-0.4216417233202606
1782811709420076800,4.572076904296875,-9.215568605667352,-2.7053599054321644,-1.7235960627317428
1782811709430148900,4.58214892578125,-10.776147358584403,-3.321488062737882,-2.3439840694390237
1782811709440220000,4.592219970703125,-12.306703898203372,-3.703351829355955,-2.7253669206723568
1782811709450292000,4.6022919921875,-12.8759265119493,-3.5655882032632826,-3.087335315731168
1782811709460363300,4.61236328125,-12.83301325289607,-3.000054507163167,-3.632598961740732
1782811709470435300,4.622435302734375,-12.26381168193817,-2.4730899034321308,-4.021891124793887
1782811709480507400,4.63250732421875,-10.809327159130573,-2.21506732827723,-3.9375352637618777
1782811709490578400,4.642578369140625,-8.064795811522007,-2.0266373447865247,-3.2503722070291636
1782811709500650500,4.652650390625,-4.318661656016111,-1.9672557660132646,-2.220165235938132
1782811709510721500,4.662721435546875,-0.7746592616170644,-1.9672440755754708,-1.141464429182559
1782811709520793300,4.67279345703125,1.2063929745584725,-1.8866653949946164,-0.350539969202131
1782811709530865400,4.682865478515625,1.1901684004664421,-1.276975454042852,0.0636709465302527
1782811709540936400,4.6929365234375,0.1724380491107702,-0.2865942973837256,0.0899117415934801
1782811709551008500,4.703008544921875,-0.335882059904933,0.5494083445988596,-0.08744242887049913
1782811709561079600,4.71307958984375,-0.14658172332048416,1.1291994063712656,-0.19410466812625526
1782811709571151600,4.723151611328125,0.3220616243451834,1.4271189614981412,-0.03405132268369197
1782811709581222400,4.733222412109375,1.0076485178023575,1.535983533103764,0.21796090614050626
1782811709591294200,4.743294189453125,1.9725749152094125,1.515892492841929,0.5374520954757929
1782811709601366300,4.7533662109375,2.9504812056988476,1.433407394117862,0.9142275990441441
1782811709611437300,4.763437255859375,3.794177178663015,1.4109874725170433,1.3138361350588499
1782811709621509400,4.77350927734375,4.499860519209504,1.2656515114739537,1.6044650947861372
1782811709631580400,4.783580322265625,4.889261403334141,0.8681339563891292,1.6613693236604332
1782811709641652200,4.79365234375,5.205967638126015,0.4696145307853818,1.5880641412138938
1782811709651724300,4.803724365234375,5.538043876007199,0.31065891745164986,1.5405895655944943
1782811709661795300,4.81379541015625,5.8521326217770575,0.4031348104447126,1.5709949329912662
1782811709671867400,4.823867431640625,6.055593585661053,0.6735933810636401,1.7371879502326248
1782811709681938400,4.8339384765625,6.152698453629016,0.9512631982356309,2.0856432221151886
1782811709692010500,4.844010498046875,6.194757726201415,1.184711596365273,2.4170080968566237
1782811709702082300,4.854082275390625,6.125758424255252,1.3989160725817082,2.565252346561849
1782811709712153300,4.8641533203125,5.950321777850389,1.5083268798932432,2.440414253015816
1782811709722225400,4.874225341796875,5.921777820411324,1.3605024630352853,2.0741830859459935
1782811709732296400,4.88429638671875,6.107746382224559,1.1096472952917218,1.6037861726112663
1782811709742368500,4.894368408203125,6.355167483866214,0.8396361761793494,1.2558503945581614
1782811709752439600,4.904439453125,6.611793051704764,0.6181891814887523,1.05384036013484
1782811709762511600,4.91451171875,6.62368047337532,0.5388280600041151,1.006485903763771
1782811709772583400,4.92458349609375,6.465207821252942,0.5361839752361178,1.0820583004899322
1782811709782654200,4.934654296875,6.236299112379551,0.5333016977980732,1.1304951452702283
1782811709792726300,4.944726318359375,5.949277821755409,0.43240240598320956,1.080102197986096
1782811709802797300,4.95479736328125,5.434074967488646,0.2064084155127406,1.0839541972391307
1782811709812869400,4.964869384765625,4.57437478518486,0.000327039997279644,1.0648600590601562
1782811709822941200,4.974941162109375,3.712525900414586,-0.1540410994157195,1.0181117518886924
1782811709833012200,4.98501220703125,2.459750529387593,-0.48810062006860966,0.9216564338706433
1782811709843084300,4.995084228515625,0.836097188398242,-1.1709855610907076,0.5896817566677928
1782811709853155300,5.0051552734375,-1.0791682781368492,-1.8252631240487098,0.2026798965089023
1782811709863227400,5.015227294921875,-2.946228224429488,-2.124247239667177,-0.09371858653053641
1782811709873298400,5.02529833984375,-4.680925526890158,-2.089078603391349,-0.15797127847149967
1782811709883370500,5.03537060546875,-6.779796917760372,-2.022815156149864,-0.04082943851649761
1782811709893442300,5.0454423828125,-8.659832665482163,-1.9264573071569204,-0.05050736744403839
1782811709903513300,5.055513427734375,-9.849588978016376,-1.8923668215066194,-0.5271788310036063
1782811709913585400,5.06558544921875,-10.14710711273551,-2.0622180689945817,-1.6183260084867477
1782811709923656400,5.075656494140625,-9.739255795162915,-2.3106708517715333,-2.975835427185893
1782811709933728500,5.085728515625,-8.859883528661728,-2.4999305640846488,-3.59174029712975
1782811709943800600,5.095800537109375,-7.725682514610886,-2.9379914342209696,-3.0472920591562986
1782811709953871600,5.10587158203125,-6.986749815413355,-3.520722933359444,-1.9504536842942237
1782811709963943400,5.115943359375,-7.048572942119836,-3.523548219913244,-1.237242870852351
1782811709974014200,5.12601416015625,-7.19961339841485,-2.87864609580487,-1.272347063589841
1782811709984086300,5.136086181640625,-6.729211224383115,-2.313701890030503,-1.739024810270965
1782811709994157300,5.1461572265625,-5.8864043092131615,-2.1990908837273717,-1.8012652856066822
1782811710004229400,5.1562294921875,-5.2232770848453045,-2.1779329448863862,-1.3035916582897304
1782811710014301200,5.16630126953125,-4.596165761232376,-2.1668898650854826,-0.7854500471573322
1782811710024372200,5.176372314453125,-4.166065786972641,-1.96202371057868,-0.5005108235042542
1782811710034444300,5.1864443359375,-3.995193087482452,-1.4098103915616869,-0.43098245618268843
1782811710044515300,5.196515380859375,-3.9067601862698793,-0.6057561086341738,-0.4608763669259846
1782811710054587400,5.20658740234375,-2.896393057158589,0.16346563810408116,-0.325911212445423
1782811710064659500,5.216659423828125,-1.3568173447817564,0.7736822332784533,-0.02015760269202292
1782811710074730500,5.22673046875,-0.13104922314584255,1.100551257905364,0.1943641227800399
1782811710084802300,5.23680224609375,0.6913900267779827,1.1577429254189133,0.32350013271570205
1782811710094873300,5.246873291015625,1.040630165427923,1.1153700568526983,0.2534749948531389
1782811710104945400,5.2569453125,1.3235352529048918,0.8525579093337059,-0.07599968222752213
1782811710115016400,5.267016357421875,1.7550316499590872,0.520323558281362,-0.3308268223419785
1782811710125088500,5.277088623046875,2.256808036419749,0.26656886970400806,-0.3425143375262618
1782811710135160300,5.287160400390625,2.9100463194578885,0.11030337223708629,-0.1515688640832901
1782811710145231400,5.2972314453125,3.73169061961174,0.07269348028898238,0.23770181779041885
1782811710155303400,5.307303466796875,4.6132963442534205,0.1424862707003951,0.7306675596773624
1782811710165372400,5.317372314453125,5.338700868836045,0.3601943711236119,1.251142070736736
1782811710175443500,5.327443359375,5.903403959330916,0.829750449720025,1.830512715139985
1782811710185515500,5.337515625,6.262360605353116,1.2667001437440515,2.294460306204855
1782811710195586600,5.347586669921875,6.314765330851078,1.5210887463107705,2.4230497151084243
1782811710205658400,5.357658447265625,6.134811499282717,1.7787816511198877,2.3846004497267304
1782811710215729400,5.3677294921875,5.754163245934247,2.2012936544686554,2.370821369090676
1782811710225801500,5.377801513671875,5.428180064231157,2.603308228711784,2.346646274385601
1782811710235873500,5.38787353515625,5.428683337578177,2.708288944621384,2.247578143520653
1782811710245944600,5.397944580078125,5.498300479161739,2.524171563632786,2.0281609010919928
1782811710256016400,5.408016357421875,5.626116711735725,2.2350337192460894,1.7227790472604334
1782811710266087200,5.418087158203125,5.73642242206037,1.8765414758652448,1.4593535901486874
1782811710276159200,5.4281591796875,5.578126295548677,1.5192401958346367,1.2539508445471526
1782811710286231300,5.438231201171875,5.436029024165869,1.2039219082698225,0.9266961085382849
1782811710296302300,5.44830224609375,5.670473155334592,1.1262181986033917,0.7487004253003746
1782811710306374400,5.45837451171875,5.731866073930263,1.1761933588668703,0.7406115191299468
1782811710316445400,5.468445556640625,5.246014986354112,1.4566966458991168,0.7916177029415965
1782811710326517200,5.478517333984375,4.283332568481565,1.7662044936195014,0.7474895882058888
1782811710336588300,5.48858837890625,3.3408792841672894,2.279732692672312,0.6177339120019227
1782811710346660400,5.498660400390625,2.0427455990225076,2.9148209865137935,0.3796067084062844
1782811710356732400,5.508732421875,1.4947206716060637,2.807446068944037,-0.08109108708240091
1782811710366803500,5.518803466796875,3.39341552709043,1.9212103464141488,-0.2580356538321823
1782811710376875500,5.52887548828125,5.072446471908688,1.1493103203773498,-0.28156368280537425
1782811710386946600,5.538946533203125,5.61674448775649,0.5574146870523691,0.0547483660146594
1782811710397018400,5.549018310546875,4.156200226518512,0.10562895068526268,0.3708964554671198
1782811710407089400,5.55908935546875,2.6151813295960427,-0.5709358474045991,0.43410672568306324
1782811710417161500,5.569161376953125,0.9696545949727297,-1.285629008358717,0.6455507242102175
1782811710427233500,5.579233642578125,-1.8626923987329005,-1.9204031216844915,0.9651323683079331
1782811710437304600,5.5893046875,-5.723157866817712,-2.667709681473672,1.092023887252435
1782811710447376400,5.59937646484375,-8.834747918361424,-3.2921985476285216,1.1457182872347533
