time,seconds_elapsed,z,y,x
1782811108202246400,0.071246337890625,0.09731704941391944,-0.0392766561165452,0.09289178031757474
1782811108212318500,0.081318359375,0.29245500611066816,-0.03168174400813877,0.20239728017523884
1782811108222389500,0.091389404296875,0.42401919304132457,-0.07605261799115687,0.22021248445957897
1782811108232461600,0.101461669921875,0.43664311229288577,-0.04026650740411132,0.20108897405564785
1782811108242532600,0.11153271484375,0.3650403498500585,-0.03370970617178827,0.23944033202081919
1782811108252603600,0.121603759765625,0.37913726426362987,-0.10665201012268662,0.20430778997167945
1782811108262675500,0.131675537109375,0.3237555687814951,-0.14538144415263085,0.13887085668221116
1782811108272746500,0.14174658203125,0.10551321535110474,-0.1203662818942219,0.10094853778406977
1782811108282817500,0.151817626953125,-0.1465922447144985,-0.11178769251070916,0.023984978960454463
1782811108292889600,0.1618896484375,-0.3843886089205742,-0.11981076690331101,-0.019314502931386233
1782811108302960400,0.17196044921875,-0.4951332951843738,-0.09619104105867445,-0.05677987184226513
1782811108313032400,0.182032470703125,-0.403995811188221,-0.1068138861535117,-0.0524307367220521
1782811108323103500,0.192103515625,-0.254690800383687,-0.12196345142517238,-0.04877192195355892
1782811108333174500,0.202174560546875,-0.12546177840232847,-0.12822291367873548,-0.07423106511980294
1782811108343246300,0.212246337890625,0.0005254851788282394,-0.12431279103029519,-0.04902954997643828
1782811108353317400,0.2223173828125,0.07200549802482127,-0.10888075555544346,0.00009440028518438338
1782811108363388400,0.232388427734375,0.16022680231332778,-0.0711772670397535,0.03266395997852087
1782811108373460500,0.24246044921875,0.2047159323811531,-0.03559771187547594,0.07517039179652929
1782811108383531500,0.252531494140625,0.1420224525809288,-0.04910166536457836,0.08060103854313493
1782811108393602600,0.2626025390625,0.04498246654272079,-0.04571585885118693,0.06769757169783115
1782811108403674600,0.272674560546875,0.001433247673511505,-0.10816763885002582,0.040381694748997686
1782811108413745400,0.282745361328125,0.07158171965479851,-0.1523433555871248,-0.054616410198062654
1782811108423817500,0.2928173828125,0.14616262112557887,-0.15071308750417084,-0.05730258054211736
1782811108433888500,0.302888427734375,0.1526005452185869,-0.09273472659233957,-0.06459609855115413
1782811108443959600,0.31295947265625,-0.006852934634685516,-0.05974610123671591,-0.08008008340895176
1782811108454031400,0.32303125,-0.16647475679218768,-0.05300809821859002,-0.09872472425475716
1782811108464102400,0.333102294921875,-0.17311550998091696,-0.055271841899491844,-0.12466785154566168
1782811108474173400,0.34317333984375,-0.08486790220737457,-0.06870722366441041,-0.12459084078669547
1782811108484245500,0.35324560546875,0.0004296235889196396,-0.10336918905973434,-0.14964944032803176
1782811108494316500,0.363316650390625,0.015059621965885162,-0.09816281605567782,-0.13330620829239487
1782811108504388600,0.373388671875,0.08013619751036166,-0.09490987867433577,-0.09453954752460121
1782811108514459600,0.383459716796875,0.14857318939864633,-0.09463814906086772,-0.052802492643892765
1782811108524530400,0.393530517578125,0.11027531518638134,-0.06072481007575988,-0.0461618855856359
1782811108534602500,0.4036025390625,-0.02833995929956436,-0.06233801742605865,-0.0016448445975780486
1782811108544673500,0.413673583984375,-0.09547463641762732,-0.04308814069610089,0.05430310646519065
1782811108554744600,0.42374462890625,-0.06005319442451,-0.04042988127227872,0.04983604405373335
1782811108564816400,0.43381640625,0.0003793547064065933,-0.056557643926329906,0.035911709728091955
1782811108574887400,0.443887451171875,-0.011827800437808036,-0.08089209391158074,0.009317717313021421
1782811108584958500,0.45395849609375,-0.05897416701614856,-0.07545527315251528,0.02168378934599459
1782811108595030500,0.464030517578125,-0.008542787417769431,-0.07160645223725587,0.0445383029717952
1782811108605101600,0.4741015625,0.04187631722092628,-0.13756901683602482,0.03967610376290977
1782811108615173600,0.484173583984375,0.10489654475748539,-0.20290694673042745,-0.0015586276188492773
1782811108625244400,0.494244384765625,0.08798340387940407,-0.2227496747869998,-0.02434073359556496
1782811108635315500,0.5043154296875,0.020551789641380307,-0.216059529498592,0.02061287217885256
1782811108645387500,0.514387451171875,-0.025404490369558334,-0.2129736192472279,0.03801043557301163
1782811108655458600,0.52445849609375,-0.001087210714817047,-0.22280999013949185,0.016266221276670694
1782811108665529600,0.534529541015625,0.07470423558950423,-0.24278657370880244,0.011797551430016755
1782811108675601400,0.544601318359375,0.15013152475655078,-0.26256759817339476,0.003771262167021632
1782811108685672400,0.55467236328125,0.17675065161287784,-0.21991770276408643,0.006976634079590439
1782811108695744500,0.56474462890625,0.1937842040002346,-0.1889161961050704,-0.008690817586332559
1782811108705815600,0.574815673828125,0.14442133041620253,-0.2048016013706103,-0.056434273274987935
1782811108715886600,0.584886474609375,-0.016760580664873122,-0.19145207125823943,-0.12243446647040546
1782811108725958700,0.594958740234375,-0.10500994200408457,-0.14225574988014994,-0.13356946233846245
1782811108736029400,0.605029541015625,-0.10768120703995228,-0.09577906272429973,-0.0997410616904497
1782811108746100500,0.6151005859375,-0.03532207327187061,-0.07586210038773715,-0.019682386395707727
1782811108756172500,0.625172607421875,0.09153437435925006,-0.0698629330381751,0.040327334213256835
1782811108766243600,0.63524365234375,0.13964227944612503,-0.09914857569001614,0.05205306251607835
1782811108776314600,0.645314697265625,0.11718611748814582,-0.12896302798893303,0.019713512186333534
1782811108786386400,0.655386474609375,0.14245441425740718,-0.14334613893274217,-0.009397066159546375
1782811108796457500,0.66545751953125,0.28132804741859435,-0.19541677363812923,-0.048988121987506746
1782811108806529500,0.675529541015625,0.3215495831698179,-0.24823809884665532,-0.07279920568577945
1782811108816600600,0.6856005859375,0.20110709423422812,-0.25987326278919354,-0.0843874982792884
1782811108826671600,0.695671630859375,-0.01483224295079708,-0.27108831988982857,-0.10521028688177465
1782811108836743700,0.70574365234375,-0.1568663859695196,-0.28977066239751875,-0.14293620642498134
1782811108846814500,0.715814453125,-0.23706103566884992,-0.31164829381518067,-0.11090674495771527
1782811108856885500,0.725885498046875,-0.22760347149372098,-0.2665774000703357,-0.07137691779769957
1782811108866957300,0.735957275390625,-0.22324878341555593,-0.19214268387090414,0.019976912362873554
1782811108877028400,0.7460283203125,-0.16178396862745284,-0.18400814846046268,0.05579933637231588
1782811108887099400,0.756099365234375,-0.14016308844983577,-0.16518542936770245,0.08450389120057225
1782811108897171500,0.76617138671875,-0.13032441600263117,-0.15734587658215313,0.06613485242575406
1782811108907242500,0.776242431640625,-0.11211012939810752,-0.1467373522736132,0.07969634478837251
1782811108917314600,0.786314453125,-0.005659925457835197,-0.15751867586579174,0.09003434505984187
1782811108927385600,0.796385498046875,0.025870938837528227,-0.1578711242989637,0.049787967128306625
1782811108937456600,0.80645654296875,-0.010898410633206367,-0.17047725216550752,0.026913579758256673
1782811108947528700,0.81652880859375,-0.07506137846410274,-0.10897442518826574,0.02215133379250765
1782811108957599700,0.826599853515625,-0.08603636146485805,-0.08129020811738445,0.014856646739691495
1782811108967670800,0.8366708984375,-0.10529986486136912,-0.05526046198895201,0.034978374400734896
1782811108977742600,0.84674267578125,-0.057692310512065886,-0.03949448185199871,0.056858928427845234
1782811108987813600,0.856813720703125,0.009354103800654412,-0.08284783108923584,0.10604396122694015
1782811108997885700,0.8668857421875,-0.004075871136784553,-0.07908707204991951,0.13853840985745192
1782811109007956500,0.87695654296875,-0.1254348903954029,-0.05565181766040623,0.1467123639628291
1782811109018027500,0.887027587890625,-0.21936989615559577,-0.0337348771456629,0.13296119424700736
1782811109028099600,0.897099609375,-0.2047504191726446,-0.028576434936560688,0.15132599523812532
1782811109038170600,0.907170654296875,-0.11652151609957218,-0.06682248763004317,0.16018398608490825
1782811109048241700,0.91724169921875,-0.07994622789621353,-0.08373356441520154,0.10418868874907493
1782811109058313700,0.927313720703125,-0.07257365330159664,-0.10002123033870011,0.07809373189732433
1782811109068384800,0.937384765625,-0.11646715556383132,-0.08138886445257812,0.06936565104052424
1782811109078455800,0.947455810546875,-0.20316987198293207,-0.07661880050655454,0.06476926316097378
1782811109088527600,0.957527587890625,-0.32537703250348565,-0.017803806107491254,0.03814312204197049
1782811109098598700,0.9675986328125,-0.3936754927039146,-0.0073141406719572834,0.05536430595591664
1782811109108670700,0.977670654296875,-0.28834640174806114,0.008505597212538123,0.02579816586226225
1782811109118741500,0.987741455078125,-0.08272036878466606,0.04167958907242864,0.052521191484481096
1782811109128812500,0.9978125,0.1163245322227478,0.05264711941909045,0.09987199459373951
1782811109138884600,1.007884521484375,0.29514380680322644,0.03885576382335275,0.13568258203491568
1782811109148955600,1.01795556640625,0.34193770668208595,0.029975049688108265,0.11667173822522163
1782811109159026700,1.028026611328125,0.3343716553419828,0.03253982214219868,0.0923541663095355
1782811109169098500,1.038098388671875,0.3080833678752184,0.042616139270178974,0.08927432047277689
1782811109179169500,1.04816943359375,0.22032032874822616,0.03270345173869282,0.04020400009453296
1782811109189240600,1.058240478515625,0.06985738008022307,0.015088080875389277,-0.021308745488524437
1782811109199312600,1.068312744140625,-0.049828153008222575,-0.0241715510411188,-0.11155249551534652
1782811109209383700,1.0783837890625,-0.10495791955590247,-0.046242184280231594,-0.162052264174819
1782811109219455700,1.088455810546875,-0.16072832209467888,-0.046682986850291486,-0.17712547627463937
1782811109229526500,1.098526611328125,-0.17944763561189173,-0.036453671117685736,-0.18652005821615456
1782811109239597600,1.10859765625,-0.15684008248448372,0.0006553221035748719,-0.19189824412316084
1782811109249669600,1.118669677734375,-0.11451251436471939,0.02845540237277746,-0.13798968993350863
1782811109259740700,1.12874072265625,-0.07677519664466381,0.05541351539250463,-0.1272792030878365
1782811109269811700,1.138811767578125,0.002485387074947357,0.06136767455656081,-0.1073857312247157
1782811109279883500,1.148883544921875,0.09333528630137443,0.059533335268869995,-0.04280439185127616
1782811109289954600,1.15895458984375,0.10846388185024261,0.0353038069628179,0.014550211139023304
1782811109300025600,1.169025634765625,0.15880582959949968,0.02524327192585915,0.07258475921750068
1782811109310097700,1.17909765625,0.12556406973302364,-0.015505137243680654,0.08960282177478074
1782811109320168700,1.189168701171875,0.03179857532083988,-0.030399704840965568,0.03159355426803231
1782811109330240800,1.19924072265625,-0.021346739411354065,-0.05762742858231067,-0.06604790479466319
1782811109340311600,1.2093115234375,-0.07708090159296989,-0.050735075252689416,-0.11642886938005685
1782811109350382600,1.219382568359375,-0.15979016446173192,-0.032184688561595974,-0.10759718201830983
1782811109360454700,1.22945458984375,-0.1611497623771429,-0.037386677651479835,-0.08796835244074463
1782811109370525700,1.239525634765625,-0.09649871876835822,-0.014731705185770988,-0.0628062925249338
1782811109380596700,1.2495966796875,-0.0016553659915924071,-0.0019178163200616835,-0.0107663086861372
1782811109390668500,1.25966845703125,0.008293781092762947,-0.018047661333344876,-0.033994477929919956
1782811109400739600,1.269739501953125,0.007168576455116271,-0.046219972448423505,-0.052185091397911304
1782811109410810600,1.279810546875,-0.018649755412340163,-0.06862363703418523,-0.0969265887916088
1782811109420882700,1.289882568359375,-0.003632219022512436,-0.05474186320863664,-0.09705269938930869
1782811109430953500,1.299953369140625,0.10607552540898323,-0.019369886380434034,-0.04274316318333149
1782811109441025800,1.31002587890625,0.2778402053028345,-0.014334997485764323,0.024254735812544823
1782811109451096600,1.3200966796875,0.41107495579421516,-0.0272823765380308,0.02403013327643275
1782811109461167600,1.330167724609375,0.4672323118239641,-0.06418444901034236,0.017585194920748472
1782811109471239700,1.34023974609375,0.3545382450580597,-0.1231179552225396,-0.05382292173281312
1782811109481310700,1.350310791015625,0.19553426253795622,-0.19099566926024852,-0.17143997798413038
1782811109491381800,1.3603818359375,0.03657645724713802,-0.24930326212644577,-0.3016805150955915
1782811109501453600,1.37045361328125,-0.108093879494071,-0.225851549792476,-0.33566125676110387
1782811109511524600,1.380524658203125,-0.08902619093060493,-0.1575616382246837,-0.27173224381655453
1782811109521596700,1.3905966796875,0.02206219420433044,-0.11612579478025435,-0.17471753835007547
1782811109531667700,1.400667724609375,0.04760170913040638,-0.09676463969554752,-0.07562763404473662
1782811109541738500,1.410738525390625,0.031097149053215978,-0.09115801532752811,-0.0366471843957901
1782811109551810600,1.420810546875,0.04863046765625476,-0.13649981670193373,-0.02245148578286171
1782811109561881600,1.430881591796875,0.08205167574286461,-0.17241609300728886,-0.013429828806966542
1782811109571952600,1.44095263671875,0.11206629025638103,-0.22734785276483743,0.009538082065433263
1782811109582024400,1.4510244140625,0.10540683236718178,-0.1863468205410987,0.1040324752740562
1782811109592095500,1.461095458984375,0.03353752794265747,-0.17037107011098412,0.14284414422735572
1782811109602166500,1.47116650390625,-0.05519757108688354,-0.1610951095804572,0.12761968708857893
1782811109612238600,1.481238525390625,-0.08473813834786414,-0.19011263934802264,0.09322042775005102
1782811109622309600,1.4913095703125,-0.13515490489900112,-0.19358086344785988,0.050784869211167094
1782811109632380700,1.501380615234375,-0.22856442548036573,-0.18856077026352286,0.024339199225604534
1782811109642452700,1.51145263671875,-0.3096510555833578,-0.19056918747648596,-0.03221796977669
1782811109652523500,1.5215234375,-0.3257821061730385,-0.1750686533426866,-0.08770049528479576
1782811109662595600,1.531595703125,-0.2717079861581325,-0.16128942657615988,-0.06772080644294619
1782811109672666600,1.54166650390625,-0.17173603832125664,-0.16316168672144413,-0.059400721865147346
1782811109682737700,1.551737548828125,-0.09602817864716053,-0.140181537421979,-0.07835895870476961
1782811109692809500,1.5618095703125,0.005583353090286254,-0.1451616273894906,-0.0538093315988779
1782811109702880500,1.571880615234375,0.15473755724728105,-0.11832074754126369,-0.011417027679830789
1782811109712951600,1.58195166015625,0.12674831108152865,-0.08604688285887241,-0.02636851309612393
1782811109723023600,1.592023681640625,0.21453473108410834,-0.06333630774840712,-0.01856149260699749
1782811109733094700,1.6020947265625,0.24861118820905684,-0.05692614844515919,-0.03446969422623515
1782811109743165700,1.612165771484375,0.16676526417136192,-0.08878288369402289,-0.09666077746227383
1782811109753237800,1.62223779296875,0.07981354142725468,-0.06692673345580696,-0.1717629263281822
1782811109763308500,1.63230859375,0.0049181671798229215,-0.09480126720070839,-0.22131182400360702
1782811109773380600,1.642380615234375,0.056660629376769064,-0.04169153523854911,-0.20210092757716774
1782811109783451600,1.65245166015625,0.14603168822228907,-0.048801440308988094,-0.1829578356899321
1782811109793522700,1.662522705078125,0.20056758053004742,-0.07831994186863303,-0.12745938196033238
1782811109803594500,1.672594482421875,0.17178689172565936,-0.03780957923866808,-0.10851342008039355
1782811109813665500,1.68266552734375,0.09407938266694545,-0.05902860061712563,-0.11114917541146278
1782811109823736600,1.692736572265625,0.05203063148856163,-0.06108414490744471,-0.0714392424441874
1782811109833808600,1.70280859375,0.039005730220675466,-0.08568009537309408,-0.023322715659439563
1782811109843879700,1.712879638671875,0.027823826470971105,-0.047533612330257886,0.052507893611490726
1782811109853950700,1.72295068359375,0.04836626376211643,-0.03641059916093945,0.10609437623992561
1782811109864022800,1.733022705078125,0.04536065220534801,-0.04971519415304065,0.09986775681003927
1782811109874093600,1.743093505859375,0.011501637223362922,-0.07528276612982153,0.06141001586094498
1782811109884165600,1.75316552734375,-0.07340016725361347,-0.10415843974128365,-0.0010483400091528892
1782811109894236700,1.763236572265625,-0.14775427423119544,-0.14092844679914415,-0.06142448277771473
1782811109904307700,1.7733076171875,-0.14813830511271953,-0.15010244479253887,-0.08866904805600642
1782811109914379300,1.783379150390625,-0.023602409383654592,-0.13753339753337204,-0.021454145308583975
1782811109924450300,1.7934501953125,0.08243395305871963,-0.11186346116065979,0.023262802165746686
1782811109934521300,1.803521240234375,0.14208850355446337,-0.10122713552974164,0.03314399858042598
1782811109944593400,1.813593505859375,0.11555997759103774,-0.10527348831109702,0.06008095921427011
1782811109954664400,1.82366455078125,0.10776771627962589,-0.08204707263298332,0.0837130330838263
1782811109964735200,1.8337353515625,0.0914759221702814,-0.1048682685110718,0.09213803934082389
1782811109974807300,1.843807373046875,0.05489478874802589,-0.13210969198420644,0.06658171941041946
1782811109984878300,1.85387841796875,0.014078794234991072,-0.1577616543088108,0.02678089328929782
1782811109994950400,1.863950439453125,0.012005495092272759,-0.14529818631596864,0.010004092141985893
1782811110005021400,1.874021484375,0.002869417956471443,-0.14707849386148153,0.012983838605135679
1782811110015092500,1.884092529296875,-0.07319675363600253,-0.09917502530552447,-0.009896832375228405
1782811110025164300,1.894164306640625,-0.17679507527649402,-0.055774786452949046,-0.012473258734494447
1782811110035235300,1.9042353515625,-0.21124445736706254,-0.05488748222440481,-0.001237140579521656
1782811110045306400,1.914306396484375,-0.17315233485996723,-0.09641228259392082,-0.06003785072490572
1782811110055378400,1.92437841796875,-0.10361644181907176,-0.09544928278066217,-0.057254795877635475
1782811110065449500,1.934449462890625,-0.05599602798819542,-0.07086290386095642,-0.025844781482964752
1782811110075520300,1.944520263671875,-0.017794015365839005,-0.061257382582500575,-0.010508242271840572
1782811110085592300,1.95459228515625,0.055852820125222205,-0.05229731960073113,-0.010827975745499133
1782811110095663400,1.964663330078125,0.1288239483118057,-0.061287558525055644,-0.03825096633061766
1782811110105735400,1.9747353515625,0.180482239356637,-0.09325849473811686,-0.08119491278305649
1782811110115806500,1.984806396484375,0.16037936252653598,-0.1341691817972809,-0.12836714445501565
1782811110125877500,1.99487744140625,0.12169336577951907,-0.14535276604741812,-0.1229796061977744
1782811110135949300,2.00494921875,0.07357143216729163,-0.1474691006142646,-0.13817878276482223
1782811110146020400,2.015020263671875,-0.019691373419761658,-0.14849778607487676,-0.14563289816305042
1782811110156091400,2.02509130859375,-0.1307639764636755,-0.13565211383141576,-0.14722177478969095
1782811110166163500,2.03516357421875,-0.18104454941451548,-0.1326123808093369,-0.1436770879201591
1782811110176234500,2.045234375,-0.13628244762420655,-0.11762019805647432,-0.10219020840823649
1782811110186305300,2.05530517578125,-0.030029227560758587,-0.12843736014701426,-0.08090557444766164
1782811110196377300,2.06537744140625,0.07046119119226932,-0.13909575147926806,-0.058170157156884665
1782811110206448400,2.075448486328125,0.08490180447697639,-0.13953187787421048,-0.07198416297584771
1782811110216520200,2.085520263671875,0.11602174988389015,-0.14117862216793,-0.06037935763895511
1782811110226591200,2.09559130859375,0.20742752942740916,-0.12552446837499737,-0.007182312719523906
1782811110236662300,2.105662353515625,0.31965748581290243,-0.12076960199810564,0.04111044741496443
1782811110246734300,2.115734375,0.3052525283634662,-0.09056209526099264,0.06581541121304035
1782811110256805400,2.125805419921875,0.3051239335477352,-0.10388612560592592,0.04022884227484464
1782811110266876400,2.13587646484375,0.28360300661325455,-0.14012429080940783,0.0016829846508800983
1782811110276948500,2.145948486328125,0.11310907730758189,-0.11270502655133605,0.008403671208024025
1782811110287019300,2.156019287109375,-0.02616670691370964,-0.06663154990151524,0.035183687714487315
1782811110297090300,2.16609033203125,-0.0270440742701292,-0.033391762796416875,0.09838438638448714
1782811110307162400,2.176162353515625,-0.0804530083745718,-0.06329173795431851,0.09010960225313902
1782811110317233400,2.1862333984375,-0.21275077027678488,-0.07203318974934518,0.04247545215785503
1782811110327304400,2.196304443359375,-0.2643558698296547,-0.10778927052430808,-0.0031887130387127397
1782811110337376300,2.206376220703125,-0.30531507220566273,-0.11896949377357958,-0.06241714707687497
1782811110347447300,2.216447265625,-0.3056020724534988,-0.08878324902020394,-0.06363704426065087
1782811110357519400,2.226519287109375,-0.15882511882185935,-0.1059572327915579,-0.027209055573493242
1782811110367590400,2.23659033203125,0.05996551614105701,-0.08689721607789397,0.02261252156347036
1782811110377661400,2.246661376953125,0.16666823353767393,-0.061634691462293265,0.035738837379217146
1782811110387733500,2.2567333984375,0.10467910261452197,-0.04037351144254207,0.06637289896532893
1782811110397804300,2.26680419921875,-0.024957915645837783,-0.058834904675930735,0.009904723420739173
1782811110407875300,2.276875244140625,-0.14662030176520346,-0.07412504746206104,-0.031095980009436607
1782811110417947400,2.286947509765625,-0.16941782450675963,-0.07908676152266561,-0.07255933251529932
1782811110428018400,2.297018310546875,-0.08874912755489349,-0.07431976631656288,-0.06424713898301124
1782811110438089500,2.30708935546875,0.04706219542622566,-0.09731186178214847,-0.005232201565057039
1782811110448161300,2.317161376953125,0.12926584686040876,-0.10731639231555164,0.023201281236857173
1782811110458232300,2.327232421875,0.17447160076498985,-0.08878003414981067,0.042243396967649456
1782811110468304400,2.337304443359375,0.18106091602742672,-0.06433825133256614,0.09872443199381231
1782811110478375400,2.34737548828125,0.05424596945047378,-0.05947415242753923,0.0887209243737161
1782811110488446500,2.357446533203125,-0.06207154850959778,-0.09070523005872964,0.02450593409463763
1782811110498518500,2.3675185546875,-0.11563888804614543,-0.08870645745694637,-0.012197218272089957
1782811110508589300,2.37758935546875,-0.09184534000456332,-0.13634367629215122,-0.035273557955026624
1782811110518660400,2.387660400390625,0.0059784898877143855,-0.12826536458097398,-0.016436463277041912
1782811110528732400,2.397732421875,0.043508302336931225,-0.09107589000202715,0.005071165784448385
1782811110538803500,2.407803466796875,0.03587736906707287,-0.08460895901024341,-0.001028612395375967
1782811110548874500,2.41787451171875,0.09569617021381854,-0.11327303569763898,-0.007312807231396436
1782811110558946300,2.4279462890625,0.18476386219859123,-0.09948328753709793,-0.025371611013263462
1782811110569017300,2.438017333984375,0.16331600050032138,-0.09548384263738989,-0.030163229203969237
1782811110579089400,2.44808935546875,0.05462941581010818,-0.08464636841118335,-0.012443155857175588
1782811110589160400,2.458160400390625,-0.03791267428696155,-0.08241765951104461,-0.031855127813667054
1782811110599231500,2.4682314453125,-0.005487491500377655,-0.07007379930987953,0.02335281853675842
1782811110609303600,2.478303466796875,0.09725509009361266,-0.07481755977086722,0.04467749224677681
1782811110619374300,2.488374267578125,0.07952420309185981,-0.07832359513044357,0.02384177109748125
1782811110629445400,2.4984453125,0.04794014730453491,-0.11106040114946662,-0.01158756194114685
1782811110639517200,2.50851708984375,0.018694179075956344,-0.11403890550360082,-0.020778730265051126
1782811110649588200,2.518588134765625,-0.024428923335671423,-0.10928871530182659,-0.0661499038644135
1782811110659659300,2.5286591796875,-0.008597147953510284,-0.10752433597780764,-0.06997881450280546
1782811110669731300,2.5387314453125,0.03788227914869785,-0.07739157497733831,-0.02993862666785717
1782811110679802400,2.54880224609375,0.029774376016855238,-0.06733049195110798,-0.0042979894548654555
1782811110689874400,2.55887451171875,0.043676060119271276,-0.0841383458238095,-0.007840045975893736
1782811110699945500,2.568945556640625,0.09367781612873077,-0.07924472856335342,-0.012667758393287657
1782811110710016500,2.5790166015625,0.0819821176379919,-0.05399623247310519,0.020966800183057785
1782811110720088600,2.589088623046875,-0.05470598817765712,-0.0013953998811542987,0.02509907768219709
1782811110730159400,2.599159423828125,-0.16216098524630068,-0.01679236404262483,0.008155103274434805
1782811110740230400,2.60923046875,-0.17423311583399773,-0.03370623557306826,-0.046877048117667436
1782811110750302200,2.61930224609375,-0.14169512032270432,-0.07449103123024106,-0.0908783946685493
1782811110760373200,2.629373291015625,-0.10257540833353995,-0.09333689373657107,-0.12010492754429578
1782811110770444300,2.6394443359375,0.013657938474416731,-0.06800766056030988,-0.12414864997714757
1782811110780516400,2.649516357421875,0.14174538920521734,-0.10041508849449456,-0.12635478171929718
1782811110790587400,2.65958740234375,0.2132557971894741,-0.10659859943501651,-0.10992255622595548
1782811110800658400,2.669658447265625,0.2042623433947563,-0.08857333259657024,-0.09941752882450819
1782811110810730500,2.67973046875,0.2118096900343895,-0.07826390083245932,-0.06867533068880438
1782811110820801300,2.68980126953125,0.21777064426541326,-0.07474054901190101,-0.028479952292144298
1782811110830873600,2.69987353515625,0.09420622391700743,-0.06303622882328927,-0.015505466037243603
1782811110840944400,2.7099443359375,-0.03806874163150787,-0.055045083938911554,-0.0326790114171803
1782811110851015400,2.720015380859375,-0.12016425651609897,-0.04999722596481442,-0.05138736514896154
1782811110861087200,2.730087158203125,-0.1121194817483425,-0.08442541913688183,-0.03673734689727425
1782811110871158300,2.740158203125,-0.08395721710324287,-0.1066457995776087,-0.03694178342819213
1782811110881229300,2.750229248046875,-0.04960194303691387,-0.11169197705127298,-0.06309753055647015
1782811110891301400,2.76030126953125,-0.04608429030478001,-0.12268464183919131,-0.07059416992217302
1782811110901372400,2.770372314453125,-0.0539139610171318,-0.11834602811299264,-0.06045812196359038
1782811110911445000,2.780445068359375,-0.013946692287921905,-0.07860847648642957,-0.06261778421550988
1782811110921516000,2.79051611328125,0.09578794015049934,-0.07403057411164045,-0.00038183892443776127
1782811110931587000,2.800587158203125,0.1868254709035158,-0.08128587900213896,0.04540405295565724
1782811110941659000,2.810658935546875,0.08213584689497948,-0.10053871487416327,0.03284764598235488
1782811110951729700,2.820729736328125,-0.04728372922241687,-0.06302548823356628,0.007912088298797608
1782811110961800700,2.83080078125,-0.030868600994348523,-0.08292078672759234,-0.00015825930163264275
1782811110971872800,2.840872802734375,-0.05115969387292862,-0.08665412803702056,-0.011224866108596325
1782811110981943800,2.85094384765625,-0.11877484798431395,-0.07156352641098201,-0.04366553872525692
1782811110992014800,2.861014892578125,-0.07065291437208653,-0.08020086024440824,-0.028475568377971647
1782811111002087000,2.8710869140625,0.08141162427365779,-0.0853690566625446,-0.0055607028670608995
1782811111012158000,2.881157958984375,0.15232815801799296,-0.08412643619030713,0.02804360670149326
1782811111022229000,2.89122900390625,0.10299217244088649,-0.08565437640994787,0.04151698238924145
1782811111032301000,2.901301025390625,0.05147182856202125,-0.07863463384099305,0.039595805068314074
1782811111042372000,2.9113720703125,-0.010825345396995544,-0.051519905487447976,0.014867022003233431
1782811111052444000,2.92144384765625,0.0055669864773750305,-0.05627323749437928,-0.029513240862637756
1782811111062514700,2.9315146484375,0.020678046369552613,-0.05191131595782935,-0.0048224517203867435
1782811111072585700,2.941585693359375,0.014294482812285422,-0.04356967713534832,-0.016960487151145932
1782811111082657800,2.95165771484375,-0.058680737027525895,-0.05763078958317637,-0.07037614325731992
1782811111092728800,2.961728759765625,-0.10847791037559508,-0.05656630215682089,-0.08538125855699182
1782811111102800000,2.9717998046875,-0.07794716303348541,-0.10171828004755079,-0.09979863709658383
1782811111112872000,2.981871826171875,-0.05318447769880295,-0.1158756924767047,-0.11448913348913192
1782811111122943000,2.99194287109375,-0.009213234025239945,-0.12975918333530426,-0.08395239479765296
1782811111133014000,3.002013916015625,0.09715922850370406,-0.1269727674871683,-0.054730099705606695
1782811111143086000,3.012086181640625,0.10587678796648979,-0.09174034526012838,-0.012019669748097657
1782811111153156900,3.022156982421875,0.10703881748318672,-0.07709529544450343,0.0013435235634446144
1782811111163229000,3.03222900390625,0.1554383989930153,-0.09411460011079907,0.011142448522150517
1782811111173299700,3.0422998046875,0.18795126006305216,-0.0709322427701205,0.056427259012311694
1782811111183370800,3.052370849609375,0.1376823775500059,-0.051193450012058016,0.10035919358879328
1782811111193442800,3.06244287109375,-0.04178805441558361,-0.049551016567274925,0.04141337588429451
1782811111203513900,3.072513916015625,-0.13091244502365587,-0.05881349656172096,-0.01729571045488119
1782811111213585000,3.0825849609375,-0.09443652554154396,-0.09243614550456404,-0.04038827062025666
1782811111223657000,3.092656982421875,-0.08200725207924843,-0.10465389510802924,-0.05838116955906152
1782811111233728000,3.10272802734375,-0.02145136882960796,-0.11382584727481007,-0.04393588009923696
1782811111243799000,3.112799072265625,0.04535129985511303,-0.11223127155974506,-0.007219429859519004
1782811111253870800,3.122870849609375,-0.007001987716555595,-0.08977357523180544,-0.0087957392655313
1782811111263942000,3.13294189453125,-0.04552198024690151,-0.09067914576940238,0.01095364795178175
1782811111274013700,3.143013671875,0.07231120297312736,-0.11106040114946662,0.014421616323292254
1782811111284084700,3.153084716796875,0.14987258155941963,-0.103257472313568,0.004240121787786483
1782811111294155800,3.16315576171875,0.07827507981359959,-0.11338197596482932,-0.019232523736357688
1782811111304227800,3.173227783203125,-0.011474164694547652,-0.08967376811914145,-0.040001170998811716
1782811111314299000,3.183298828125,-0.018513561812043187,-0.07394523391574621,-0.014237784188985823
1782811111324370000,3.193369873046875,-0.04699731349647045,-0.08224968253299593,-0.022715543546527623
1782811111334442000,3.20344189453125,-0.01306114162504673,-0.11144413977004587,-0.04312514823824167
1782811111344513000,3.213512939453125,-0.014819967991113661,-0.12394720912091434,-0.06478738333955407
1782811111354584000,3.223583984375,-0.06032850423455238,-0.14023162364140151,-0.030994711592048405
1782811111364655900,3.23365576171875,-0.05886895307600498,-0.14364683891236782,-0.03705445002242923
1782811111374726700,3.2437265625,-0.08323416352570057,-0.11803155533634126,-0.0373074018701911
1782811111384797700,3.253797607421875,-0.05755611691176891,-0.10088599394187331,-0.018169716810435055
1782811111394869800,3.263869873046875,0.04736790037453174,-0.08997969226315616,-0.006850304286181926
1782811111404940800,3.27394091796875,0.1344014561831951,-0.08524645319618285,0.027790362592786548
1782811111415012900,3.284012939453125,0.21729776605665682,-0.0791609227374196,0.03209595083221793
1782811111425084000,3.294083984375,0.22996377088427541,-0.07840798547826706,0.04650792254433036
1782811111435155000,3.304155029296875,0.13590543100535868,-0.0829677676744759,0.03801759596616029
1782811111445227000,3.31422705078125,0.02341127072572708,-0.07016746894270182,0.017015870600193737
1782811111455298000,3.324298095703125,-0.02930851207077503,-0.06583046265169978,-0.028782588500529525
1782811111465369000,3.334369140625,-0.010938742643594741,-0.08515811732560395,-0.04032660356089472
1782811111475441000,3.34444091796875,0.0521364299505949,-0.09496047635041177,-0.016850450905412435
1782811111485511700,3.35451171875,0.10257365476787089,-0.1097701421432197,-0.008419453299045563
1782811111495582700,3.364582763671875,0.11911620876789092,-0.0880923441465944,0.001056669446080923
1782811111505654800,3.37465478515625,0.08678630304932594,-0.0962778425592929,-0.022936785081773995
1782811111515725800,3.384725830078125,-0.023158172747492788,-0.08836633878238499,-0.0035683600060641765
1782811111525798000,3.3947978515625,-0.19931319655478,-0.08369140577390789,-0.04080941864177584
1782811111535869000,3.404868896484375,-0.2763601958781481,-0.10030446772687136,-0.04985065710097551
1782811111545940000,3.41493994140625,-0.24090602065920827,-0.10898176824450492,-0.01916004302203655
1782811111556012000,3.425011962890625,-0.12001871056556701,-0.123294152039662,0.004532236602157354
1782811111566083000,3.4350830078125,-0.03580547287464142,-0.11046060862541197,0.026141426341980693
1782811111576153900,3.44515380859375,-0.0431131655395031,-0.09136281718462705,0.07611234882175921
1782811111586226000,3.455225830078125,-0.02149286988377571,-0.10980579797849059,0.07119462003335356
1782811111596296700,3.465296630859375,-0.010609072297811507,-0.16429785114452242,0.04121113131046295
1782811111606367700,3.47536767578125,-0.026244448325037955,-0.18840360694043337,-0.01610635453984141
1782811111616439800,3.485439697265625,-0.062441550865769385,-0.16151647679768502,-0.044096769749373196
1782811111626510800,3.4955107421875,-0.05232698408663273,-0.14709551806151866,-0.041675826212763785
1782811111636583000,3.5055830078125,-0.04775193125605583,-0.11332001664452254,-0.0022977555483579635
1782811111646654000,3.515654052734375,0.04707973108291626,-0.09350355554036796,0.03105301765054464
1782811111656725000,3.52572509765625,0.09588906243741512,-0.0937442324284464,0.039806525209546084
1782811111666796800,3.535796875,0.010519055926799773,-0.07274089962728321,0.014784166025370358
1782811111676867800,3.545867919921875,-0.07343640761077404,-0.04076090332493186,0.018100304836034774
1782811111686939000,3.55593896484375,-0.13208090428113936,-0.02418020927160978,0.001735591620951891
1782811111697010700,3.5660107421875,-0.14989830052256584,-0.04802103052102029,-0.03702113227471709
1782811111707081700,3.576081787109375,-0.04425765939950943,-0.06820968593843281,-0.07910130150467157
1782811111717152800,3.58615283203125,0.08841361199021339,-0.06510982022695243,-0.04051891126260161
1782811111727224800,3.596224853515625,0.2229144368946552,-0.05116458924375474,-0.01831906215324998
1782811111737296000,3.6062958984375,0.41803894958794113,-0.03831993991360068,0.037868542884290216
1782811111747368000,3.616367919921875,0.5162479794055224,0.012638240037858486,0.12973682537302375
1782811111757439000,3.62643896484375,0.3836287304639816,-0.012791677033901213,0.11768281496390699
1782811111767510000,3.636510009765625,0.107732060444355,0.024629487409070134,0.0795700880602002
1782811111777581800,3.646581787109375,-0.24192542683482168,-0.0052339551307260986,-0.0010825345396995544
1782811111787652900,3.65665283203125,-0.38306992753744123,0.017957170038297773,-0.03023877865821123
1782811111797723600,3.6667236328125,-0.3778121531397104,-0.04405176156386733,-0.0517800177283585
1782811111807795700,3.676795654296875,-0.33423020104467865,-0.09759228615872562,-0.03326338717639446
1782811111817866800,3.68686669921875,-0.23156126920878886,-0.061386488854885096,-0.026141572472453117
1782811111827937800,3.696937744140625,-0.24788345845639703,-0.05829882503785193,-0.027386896358430383
1782811111838009900,3.707009765625,-0.1899018096089363,-0.09163067434057592,-0.07304726216271519
1782811111848081000,3.717080810546875,-0.043535190343856806,-0.10748188507556915,-0.05720715734362602
1782811111858152000,3.72715185546875,0.08184241690635681,-0.11244739852845669,-0.041732524836063385
1782811111868224000,3.73722412109375,0.11526128690540789,-0.09912395270541309,0.016190817952901122
1782811111878295000,3.747294921875,0.11568448075354099,-0.021141206901893018,0.07793547259569168
1782811111888366800,3.757366943359375,0.12735913645625113,0.053132893642038104,0.12254793678224087
1782811111898438000,3.76743798828125,0.06895604732632636,0.09474427631646394,0.18132716574817895
1782811111908509000,3.777509033203125,-0.04365384828746319,0.11290274108052253,0.17099954074025153
1782811111918581000,3.7875810546875,-0.08026128519475459,0.08392762568257749,0.1398885092921555
1782811111928652000,3.797652099609375,-0.0504851556122303,0.07572619904838503,0.0878121389657259
1782811111938723000,3.80772314453125,0.020110475614666938,0.02411437749378383,0.005441168140619993
1782811111948795100,3.817795166015625,0.08929857813119887,0.002902078117057681,-0.06816255886107683
1782811111958866200,3.8278662109375,0.15255144537985324,-0.04001899891644716,-0.14816548538058996
1782811111968937000,3.83793701171875,0.1451069745928049,-0.05693842340484261,-0.21156872088536618
1782811111979009000,3.848009033203125,0.18145079212784765,-0.09052636636048556,-0.22446926512122153
1782811111989080000,3.858080078125,0.23095804261863231,-0.08960632890611886,-0.21497633737176655
1782811111999151900,3.86815185546875,0.18549451456069946,-0.08503617144636809,-0.22251915396675467
1782811112009223000,3.878222900390625,0.07602116340696811,-0.07082315637245774,-0.19398250305131076
1782811112019294000,3.8882939453125,-0.012706921359896659,-0.0077884619191288945,-0.07689633880630135
1782811112029366000,3.898365966796875,-0.07719605240523815,0.028653263032436368,0.04472746886834502
1782811112039437000,3.90843701171875,-0.11555880854725838,0.04219853491261601,0.10989040752202271
1782811112049508000,3.918508056640625,-0.13419745804369448,0.03152684570737183,0.09748115393444895
1782811112059580200,3.928580078125,-0.12766834853589534,0.009077332685887812,0.0580063448973
1782811112069651200,3.938651123046875,-0.07176116787493228,-0.035534766174480314,0.043604602318257094
1782811112079722000,3.948721923828125,-0.050340778705477714,-0.059583311890438195,-0.04484714972525835
1782811112089794000,3.9587939453125,-0.009517769929766655,-0.09375380397439002,-0.10771803191900253
1782811112099864800,3.96886474609375,0.08044190245866775,-0.06546557486206293,-0.05400368512719869
1782811112109935900,3.978935791015625,0.20414310092926025,-0.04921367437168955,-0.0006076105043292046
1782811112120008000,3.989008056640625,0.25706746638715267,-0.025353856160864233,0.030460312454402446
1782811112130079000,3.999078857421875,0.24504502016007898,-0.013774769787117839,0.03703749888762831
1782811112140151000,4.009151123046875,0.15585340953469276,0.004605740229785442,0.02477759064286947
1782811112150222000,4.01922216796875,0.020399813950061796,0.011936521509289741,0.014323270515352487
1782811112160293000,4.029293212890625,-0.14200842405557632,0.0008124854266643523,-0.05584142194837331
1782811112170365200,4.039365234375,-0.26110651264488693,0.011235314437374471,-0.1054677687741816
1782811112180436200,4.049436279296875,-0.2556634448081255,0.004722498477250338,-0.13558292105272413
1782811112190507000,4.059507080078125,-0.2032780085325241,-0.030060864808037876,-0.1583008026868105
1782811112200578800,4.069578857421875,-0.045103462573885915,-0.055134588853269814,-0.1920825146488845
1782811112210649900,4.07964990234375,0.13113047168850897,-0.05475026571080088,-0.1742338464863598
1782811112220721000,4.089720947265625,0.25655016451478,-0.04245777037069201,-0.1410908708192408
1782811112230793000,4.09979296875,0.3034691520780325,-0.02538644325621426,-0.0709120036996901
1782811112240864000,4.109864013671875,0.30090485454797744,-0.017681421836838126,0.007404138776659965
1782811112250936000,4.11993603515625,0.28206279143393037,-0.01849222676306963,0.05968903728723526
1782811112261007000,4.130007080078125,0.18548925386369228,-0.04558452408909797,0.05800371454879641
1782811112271078100,4.140078125,0.09963350966274738,-0.10290018330849707,0.013475567644834518
1782811112281150200,4.150150146484375,0.03725800977051258,-0.11302549067735672,-0.010020897146314382
1782811112291221200,4.16022119140625,-0.0948702407836914,-0.13639138789139688,-0.06489245114922523
1782811112301292000,4.1702919921875,-0.21460370466709136,-0.12926891560032963,-0.05810980527177453
1782811112311363800,4.18036376953125,-0.303690101352334,-0.13589220619760453,-0.05538344904780387
1782811112321435000,4.190434814453125,-0.2877425906360149,-0.14292816924899815,-0.04586187972575426
1782811112331506000,4.200505859375,-0.2165145067244768,-0.14696948052905498,0.004465747237205505
1782811112341578000,4.210577880859375,-0.13710720801055432,-0.13889394529685378,0.023009265796095132
1782811112351649000,4.22064892578125,-0.06665712273418903,-0.1466576381009072,0.042815643897652626
1782811112361721000,4.23072119140625,-0.0027419921845197675,-0.12583207301944493,0.059808718144148586
1782811112371792100,4.240792236328125,0.054849196040630335,-0.09979396092146635,0.076822396787256
1782811112381863200,4.25086328125,0.09562310497760772,-0.10624890921451151,0.0945887934938073
1782811112391935200,4.260935302734375,0.0804658678561449,-0.12529752775132655,0.09273732040822505
1782811112402006300,4.27100634765625,0.04451894068419933,-0.11587865161877124,0.08313391802161932
1782811112412077000,4.2810771484375,-0.0001356090784072876,-0.11674893164727836,0.08583250945582985
1782811112422148900,4.29114892578125,-0.07821370501518249,-0.12741240101344883,0.0630297260172665
1782811112432220000,4.301219970703125,-0.09575929857790469,-0.11654906169362365,0.026373773793131113
1782811112442291000,4.311291015625,-0.12104688456952571,-0.10777199059594422,0.004576514135301113
1782811112452363000,4.321363037109375,-0.1352910984992981,-0.09125895495135336,0.02380538460984826
1782811112462434000,4.33143408203125,-0.10671966853141784,-0.07861578301005065,0.027124446029961106
1782811112472505000,4.341505126953125,0.005465864190459251,-0.07462948985286057,0.003001958294957876
1782811112482577200,4.3515771484375,0.053144730210304254,-0.06324329570271074,0.025684914746135473
1782811112492648200,4.361648193359375,0.08543196583092212,-0.02748670347109437,0.047248219517618414
1782811112502720000,4.371719970703125,0.08844225356280803,-0.017261588989570736,0.048289983655512334
1782811112512791000,4.381791015625,0.07585691275596618,-0.030883506302535533,0.006952595616877079
1782811112522862000,4.391862060546875,0.031412206351757045,-0.02413921967409551,-0.03170519794896245
1782811112532934000,4.401933837890625,-0.02823065370619297,-0.03393025358729064,-0.07880874829888343
1782811112543005000,4.4120048828125,-0.06818564747571945,-0.05566540779434144,-0.10001666376143693
1782811112553076000,4.422075927734375,-0.08994096768796443,-0.06403948758170008,-0.12604220863878726
1782811112563148000,4.43214794921875,-0.0690939944922924,-0.07160217792093754,-0.12061331545785069
1782811112573219000,4.442218994140625,0.05094926599264145,-0.08427578153312205,-0.07617942270860076
1782811112583290000,4.4522900390625,0.15430676461458206,-0.07302673083133995,-0.029576223096251485
1782811112593362200,4.462362060546875,0.16969897953569887,-0.03801810742281377,0.040668256605416536
1782811112603433200,4.47243310546875,0.1583995868861675,-0.009659078096598387,0.12320391647294163
1782811112613504000,4.48250390625,0.09052315149009227,0.0006567834082990884,0.1220803192704916
1782811112623575800,4.492575927734375,-0.011055647021532057,0.009484890573471783,0.11515373487770557
1782811112633646800,4.502646728515625,-0.057985155978798865,-0.015371829720214008,0.1140751458607614
1782811112643719000,4.512718994140625,-0.03942600145936012,-0.05188588925562799,0.06761237763240933
1782811112653790000,4.5227900390625,-0.06896890680789947,-0.02973828179016709,0.06997779158949852
1782811112663861000,4.532861083984375,-0.12411328640282153,-0.016557459308207033,0.05555515235289931
1782811112673933000,4.54293310546875,-0.06368833605647087,-0.029203152000159025,0.040081542758643625
1782811112684004000,4.553004150390625,-0.00883037218749523,-0.06238952841758728,0.0035394261725246903
1782811112694075100,4.5630751953125,0.028669045123457908,-0.10435966140180826,-0.028713176526129244
1782811112704147200,4.573147216796875,0.11595862151980399,-0.07028598075583577,-0.0294122647061944
1782811112714218200,4.58321826171875,0.1548667365849018,-0.04603109881281853,-0.004858107555657625
1782811112724290000,4.5932900390625,0.15725918467938899,-0.033197920724749565,0.020601912393420935
1782811112734360800,4.60336083984375,0.1318044254273176,-0.03200388863459229,0.014370470657944678
1782811112744431900,4.613431884765625,0.08261106319129466,-0.00200008777603507,0.009777882170677184
1782811112754504000,4.62350390625,0.012217676538228988,-0.03908928031828254,-0.029454642543196675
1782811112764575000,4.633574951171875,-0.02650339152216911,-0.05468472619391977,-0.07031739880740642
1782811112774646000,4.64364599609375,-0.02656184371113777,-0.057898464076034724,-0.10645794885531067
1782811112784718000,4.653718017578125,-0.053770168632268904,-0.04866999594904482,-0.10411576964333653
1782811112794789000,4.6637890625,-0.09420856200456619,-0.06710176122914999,-0.12493673161491751
1782811112804860200,4.673860107421875,-0.10413491273522377,-0.07977799518983811,-0.18560118980556725
1782811112814932200,4.68393212890625,-0.055686231386661525,-0.09910389629807323,-0.19743191285282372
1782811112825003300,4.694003173828125,-0.08307517357170581,-0.10285670949295163,-0.18165522865876554
1782811112835074000,4.704073974609375,-0.0903437032699585,-0.09292743615284561,-0.17765242275819182
1782811112845145900,4.714145751953125,0.027076222974061964,-0.07802037440016865,-0.13063874264881015
1782811112855217000,4.724216796875,0.17641338248252866,-0.07701192800998688,-0.05974617430195212
1782811112865289000,4.7342890625,0.31241233699023724,-0.08360350829474628,-0.0134065940618515
1782811112875360000,4.744360107421875,0.3842775497615337,-0.11776362511515617,-0.004009966293722391
1782811112885431000,4.75443115234375,0.467092611092329,-0.16637261159196495,0.049218935068696734
1782811112895503000,4.764503173828125,0.46628480184078214,-0.0827543441195041,0.1562858096025884
1782811112905574100,4.77457421875,0.31983576498925687,-0.056331178226694464,0.18645444563403724
1782811112915645000,4.78464501953125,0.12200959212183951,-0.04284614863377064,0.15199848767220972
1782811112925717000,4.794717041015625,0.06118833593428134,-0.0829953498011455,0.07533566536083817
1782811112935788000,4.8047880859375,-0.12627952452600003,-0.12844477626848966,-0.004686258120089769
1782811112945859000,4.814859130859375,-0.14752689521610737,-0.14056976955458522,-0.07560001538544893
1782811112955931000,4.824930908203125,-0.1327589496731758,-0.1680647659299895,-0.17621975960657
1782811112966002000,4.835001953125,-0.2758534153997898,-0.1899605540588498,-0.26483167064785956
1782811112976073000,4.845072998046875,-0.3113216191440821,-0.22133980798907577,-0.311783245306462
1782811112986145000,4.85514501953125,-0.22886194712221622,-0.14324534543938933,-0.23898235912024973
1782811112996216000,4.865216064453125,-0.11736381214261055,-0.1365143201513216,-0.10390504950210451
1782811113006288100,4.8752880859375,0.018382628908753394,-0.1336818366717547,0.039424686285108326
1782811113016359200,4.885359130859375,0.0006266074657440185,-0.1030051049876958,0.042393180701881646
1782811113026430000,4.895429931640625,0.048580783295631404,-0.12729969788659362,-0.007463613878935575
1782811113036501800,4.905501708984375,0.10999240659177302,-0.14437259590364993,-0.007624941920489073
1782811113046572800,4.91557275390625,0.10939444069862365,-0.1455511016311124,0.002342909864336252
1782811113056643800,4.925643798828125,0.12843173412382602,-0.13557017116900533,-0.04712576218172908
1782811113066716000,4.9357158203125,0.10909633453488349,-0.12774261934850364,-0.07109189031124115
1782811113076787000,4.945786865234375,0.018474398845434187,-0.09010569326300173,-0.02370323940962553
1782811113086858000,4.95585791015625,0.0011900865674018858,-0.07168949087820947,0.0204268480874598
1782811113096930000,4.965929931640625,-0.22150632366240022,-0.06379786084555089,0.010419687205553054
1782811113107001000,4.9760009765625,-0.24553426498174666,-0.11325750933494418,-0.061153118490427726
1782811113117072100,4.986072021484375,-0.23036358385682104,-0.12064137250855564,-0.14349515548199415
1782811113127144200,4.996144287109375,-0.15518413197100162,-0.11347173660751432,-0.11749050726220012
1782811113137215000,5.006215087890625,-0.0060059624165296555,-0.10613185870610177,-0.08299231759384273
1782811113147286800,5.016286865234375,0.12499883706569671,-0.09993059291318059,-0.042997430205345154
1782811113157357800,5.02635791015625,0.21902210563123226,-0.1153267168244347,-0.022749738077074286
1782811113167428900,5.036428955078125,0.22408055806457994,-0.11537154234685003,0.014414309799671171
1782811113177501000,5.0465009765625,0.24770050310492514,-0.12340195979569106,0.013631781119853257
1782811113187572000,5.056572021484375,0.22342180189490318,-0.14646405175756663,-0.02494710199087858
1782811113197643000,5.06664306640625,0.14790449635684488,-0.11784797893036156,-0.01706511656939983
1782811113207715000,5.076715087890625,0.09946750544607638,-0.03667264763060957,0.0736528268404305
1782811113217786000,5.0867861328125,0.08711129721999168,-0.021560637890361247,0.1869881141193211
1782811113227857200,5.096857177734375,0.13001228131353854,-0.05051675632689148,0.17503887925893066
1782811113237929200,5.10692919921875,0.08353168516755104,-0.11880944437365978,0.052349342048913235
1782811113248000000,5.117,-0.09084522305130958,-0.16413246798235923,-0.07504208924174309
1782811113258071800,5.12707177734375,-0.2248147175580263,-0.18633301121145485,-0.11783595969900489
1782811113268142800,5.137142822265625,-0.23731121103763578,-0.17218721615485846,-0.10742518645226955
1782811113278214000,5.1472138671875,-0.22633798160254953,-0.1573584072701633,-0.06984481285959482
1782811113288286000,5.157285888671875,-0.18941081122159956,-0.1575047386719845,-0.05364975712299347
1782811113298357000,5.16735693359375,-0.09874503639042377,-0.14153766473867,0.014451573070138692
1782811113308428000,5.177427978515625,0.020234394255280494,-0.11432482803920284,0.06598126929923892
1782811113318500000,5.1875,-0.04787468085289001,-0.04732400643387809,0.1384364107877016
1782811113328571100,5.197571044921875,-0.11091069048047066,-0.03340891486061737,0.15229294057413933
1782811113338642000,5.207641845703125,-0.1144727668762207,-0.04693783839419484,0.1314087041079998
1782811113348714200,5.21771435546875,-0.13683014463484286,-0.09071213472355157,0.09915946241021156
1782811113358785000,5.227784912109375,-0.15294190600216387,-0.13032332002408803,0.027001842563599346
1782811113368856000,5.23785595703125,-0.06228372995555401,-0.09804412157945334,-0.0019669161587953566
1782811113378927900,5.247927978515625,-0.07787702040672302,-0.0472075952462852,-0.005713993732631206
1782811113388999000,5.2579990234375,-0.18144845404028892,-0.050315059742331504,-0.021917525036633013
1782811113399071000,5.268071044921875,-0.17904197742044925,-0.027103585905022917,-0.041415860102325674
1782811113409142000,5.27814208984375,0.021923662516474724,-0.059396374483592806,-0.033374007944017646
1782811113419213000,5.288213134765625,0.22221067253947258,-0.11383041385207325,-0.011803835040330887
1782811113429285000,5.29828515625,0.3218611333370209,-0.15794588830191642,-0.025400398716330527
1782811113439356200,5.308356201171875,0.2661936066508293,-0.14473562052976338,-0.06170213067531585
1782811113449427000,5.318427001953125,0.18305413567125797,-0.06305182825122028,-0.01867240563556552
1782811113459499000,5.3284990234375,0.04905073889493942,-0.029332221739925442,0.05394552519917488
1782811113469570000,5.338570068359375,0.0027156886994838714,-0.026542189162597058,0.0663145929068327
1782811113479641000,5.34864111328125,-0.003921557357907295,-0.042985374441370364,-0.00016658873856067658
1782811113489713000,5.358712890625,-0.14468670335412023,-0.06291855726037174,-0.025674685613065955
1782811113499784000,5.368783935546875,-0.33328502914905545,-0.031942331173084676,-0.0770620507620275
1782811113509856000,5.37885595703125,-0.37516193089187144,-0.02986884936727583,-0.1504381064876914
1782811113519927000,5.388927001953125,-0.3545709782838821,-0.08550894005727022,-0.17543927675336599
1782811113529998000,5.398998046875,-0.23050562267601488,-0.09247055923081934,-0.14915171993896364
1782811113540070100,5.409070068359375,0.03959375924170017,-0.10579232455343007,-0.09697904963120818
1782811113550141200,5.41914111328125,0.27582126669585705,-0.12140614633597432,-0.03389394016489387
1782811113560212000,5.4292119140625,0.4738935232788324,-0.11504976304657756,0.034020196893066165
1782811113570283800,5.43928369140625,0.5421072278052568,-0.08605049958806485,0.12920768693238496
1782811113580354800,5.449354736328125,0.2615098327487707,-0.03283321559820324,0.10743439267203211
1782811113590425900,5.45942578125,-0.04738075985610485,0.017879355561733246,0.07732859274372458
1782811113600498000,5.469497802734375,-0.12210428466796874,-0.000890665229409933,0.0886351457864046
1782811113610569000,5.47956884765625,-0.11280044974982738,-0.044957259036228055,0.07688610967323184
1782811113620640000,5.489639892578125,-0.01147299565076828,-0.043018911384791136,0.09128902129605412
1782811113630712000,5.499712158203125,0.08706979616582393,-0.07052738829627633,0.09284721052348613
1782811113640783000,5.509783203125,0.1273170508801937,-0.07569890918266027,0.038567046542465684
1782811113650855200,5.519855224609375,0.032329321196675295,-0.017702939548902213,-0.011935790856927633
1782811113660926200,5.52992626953125,-0.138683663547039,-0.029204978631064294,-0.051317514783143996
1782811113670997000,5.5399970703125,-0.1818020897835493,-0.05828194696828723,-0.10092705660462378
1782811113681068800,5.55006884765625,-0.08023848884105682,-0.11006265881638973,-0.18082623048871754
1782811113691139800,5.560139892578125,0.07561842782497405,-0.14256160095892845,-0.21448899224624038
1782811113701211000,5.5702109375,0.27458324933350087,-0.1480874517083168,-0.1585446944452822
1782811113711283000,5.580282958984375,0.3911357450932264,-0.1353155022881925,-0.11906097144931554
1782811113721354000,5.59035400390625,0.3816612297832966,-0.09238580355681479,-0.10558964158818125
1782811113731425000,5.600425048828125,0.26333295652270317,-0.03381057273037731,-0.034428485433012246
1782811113741497000,5.6104970703125,0.14038286868035793,-0.0204909628322348,0.025615356641262767
1782811113751568100,5.620568115234375,-0.007746668604016304,0.00915514716245234,0.06089022977054119
1782811113761639000,5.630638916015625,-0.12941548446416853,-0.012475962148234248,0.06105871820524335
1782811113771711200,5.640711181640625,-0.16312895349562168,-0.0485024208297953,0.050329526659101245
1782811113781782000,5.650781982421875,-0.07475918064713477,-0.06928158948626369,0.010034048888832331
1782811113791853800,5.660853759765625,0.04444645996987819,-0.12892401115279645,-0.023458763129264114
1782811113801924900,5.6709248046875,-0.028609423890709876,-0.14141973744742573,-0.07184446224421262
1782811113811996000,5.680995849609375,-0.22145196312665938,-0.12605707741435618,-0.16451266293898223
1782811113822068000,5.69106787109375,-0.41552141380906105,-0.11340258036144077,-0.17881839779764414
1782811113832139000,5.701138916015625,-0.5110486571967602,-0.10707524050343781,-0.17609525644406676
1782811113842210000,5.7112099609375,-0.5815794064939022,-0.16177129180897026,-0.3077493136152625
1782811113852282000,5.7212822265625,-0.34163024816811083,-0.17225933154299855,-0.338063057205826
1782811113862353200,5.731353271484375,-0.10561433763802051,-0.17076836233288048,-0.21973171520531176
1782811113872424000,5.741423828125,0.32981238460242746,-0.20356252456232904,-0.0533880374468863
1782811113882496000,5.75149609375,0.7681441806346178,-0.17017412276677787,0.0897226487621665
1782811113892567000,5.761567138671875,0.9150608349978924,-0.10463822261486203,0.1972286453656852
1782811113902638000,5.77163818359375,0.8298544946163893,-0.08000668937917799,0.23430399204567073
1782811113912710000,5.7817099609375,0.8826742306560278,-0.14162559875044972,0.26968670946359635
