time,seconds_elapsed,z,y,x
1782811108202246400,0.071246337890625,-0.02391032502055168,0.030394401401281357,0.07336953282356262
1782811108212318500,0.081318359375,-0.007873835042119026,0.00661556888371706,0.036156121641397476
1782811108222389500,0.091389404296875,0.004753062501549721,-0.011648859828710556,-0.001998530002310872
1782811108232461600,0.101461669921875,0.02183031663298607,-0.017406880855560303,-0.03415912762284279
1782811108242532600,0.11153271484375,0.0417390801012516,-0.02845883183181286,-0.06357993185520172
1782811108252603600,0.121603759765625,0.05298720672726631,-0.04227558150887489,-0.09404116123914719
1782811108262675500,0.131675537109375,0.05688861384987831,-0.04520785063505173,-0.10191833972930908
1782811108272746500,0.14174658203125,0.05815361440181732,-0.0472254604101181,-0.08425012975931168
1782811108282817500,0.151817626953125,0.05106188356876373,-0.032077401876449585,-0.05584751442074776
1782811108292889600,0.1618896484375,0.049382492899894714,-0.010900476947426796,-0.005230142269283533
1782811108302960400,0.17196044921875,0.048335690051317215,-0.007245056331157684,0.031146373599767685
1782811108313032400,0.182032470703125,0.048337556421756744,-0.006906835362315178,0.05462346971035004
1782811108323103500,0.192103515625,0.05043819546699524,-0.005825126077979803,0.06865137070417404
1782811108333174500,0.202174560546875,0.04664452373981476,-0.006110616493970156,0.06868492066860199
1782811108343246300,0.212246337890625,0.04808340221643448,-0.00032959156669676304,0.05870569497346878
1782811108353317400,0.2223173828125,0.04977557435631752,0.0012110471725463867,0.044352591037750244
1782811108363388400,0.232388427734375,0.05573113635182381,-0.012150097638368607,0.02509496733546257
1782811108373460500,0.24246044921875,0.06262633204460144,-0.012583926320075989,0.013187175616621971
1782811108383531500,0.252531494140625,0.06854231655597687,0.00042685074731707573,0.014068624004721642
1782811108393602600,0.2626025390625,0.0714731216430664,0.018127817660570145,0.009233655408024788
1782811108403674600,0.272674560546875,0.07196589559316635,0.02937590517103672,-0.0023853154852986336
1782811108413745400,0.282745361328125,0.06334524601697922,0.024900196120142937,-0.01647423766553402
1782811108423817500,0.2928173828125,0.054796252399683,0.014435204677283764,-0.03496473655104637
1782811108433888500,0.302888427734375,0.04969177395105362,0.014349184930324554,-0.03080248087644577
1782811108443959600,0.31295947265625,0.04428735747933388,0.032173123210668564,-0.012430702336132526
1782811108454031400,0.32303125,0.040714994072914124,0.04300206899642944,0.011716977693140507
1782811108464102400,0.333102294921875,0.0368715338408947,0.04992459714412689,0.014394761994481087
1782811108474173400,0.34317333984375,0.026299849152565002,0.0472707562148571,0.014189166016876698
1782811108484245500,0.35324560546875,0.02239668183028698,0.05455416440963745,0.013662854209542274
1782811108494316500,0.363316650390625,0.019958823919296265,0.05880590155720711,0.006015854422003031
1782811108504388600,0.373388671875,0.019284967333078384,0.05273915082216263,-0.00816376693546772
1782811108514459600,0.383459716796875,0.01992599107325077,0.04108569025993347,-0.017280565574765205
1782811108524530400,0.393530517578125,0.018733466044068336,0.04445209354162216,-0.01822657883167267
1782811108534602500,0.4036025390625,0.023039797320961952,0.05828481912612915,-0.011181451380252838
1782811108544673500,0.413673583984375,0.029699169099330902,0.0634022131562233,-0.008347923867404461
1782811108554744600,0.42374462890625,0.03433386981487274,0.06680893152952194,-0.010440103709697723
1782811108564816400,0.43381640625,0.03798671439290047,0.06966497004032135,-0.006606826558709145
1782811108574887400,0.443887451171875,0.040862660855054855,0.08065690100193024,0.0007701296708546579
1782811108584958500,0.45395849609375,0.05194549262523651,0.08826339244842529,0.006707510910928249
1782811108595030500,0.464030517578125,0.06356779485940933,0.08854915201663971,0.00621482590213418
1782811108605101600,0.4741015625,0.06985174864530563,0.08290132135152817,-0.004560927860438824
1782811108615173600,0.484173583984375,0.07508406043052673,0.06486878544092178,-0.008569518104195595
1782811108625244400,0.494244384765625,0.07844392955303192,0.05546346679329872,-0.010098610073328018
1782811108635315500,0.5043154296875,0.08354388922452927,0.04822419583797455,-0.007494837511330843
1782811108645387500,0.514387451171875,0.08758662641048431,0.044293563812971115,-0.00985769648104906
1782811108655458600,0.52445849609375,0.08900822699069977,0.03524786978960037,-0.014171218499541283
1782811108665529600,0.534529541015625,0.0818953886628151,0.014013493433594704,-0.02803792990744114
1782811108675601400,0.544601318359375,0.07608197629451752,-0.00742841511964798,-0.040584344416856766
1782811108685672400,0.55467236328125,0.06871165335178375,-0.0262528657913208,-0.059487294405698776
1782811108695744500,0.56474462890625,0.0584544874727726,-0.039630189538002014,-0.07020252197980881
1782811108705815600,0.574815673828125,0.03967486321926117,-0.04453766718506813,-0.06335116177797318
1782811108715886600,0.584886474609375,0.02007133699953556,-0.03781744837760925,-0.047995638102293015
1782811108725958700,0.594958740234375,0.006360216066241264,-0.02664731629192829,-0.03891690447926521
1782811108736029400,0.605029541015625,-0.0016521699726581573,-0.016727041453123093,-0.03985433652997017
1782811108746100500,0.6151005859375,-0.0021227761171758175,-0.016258757561445236,-0.04285634681582451
1782811108756172500,0.625172607421875,0.0007949830032885075,-0.015829721465706825,-0.05670718103647232
1782811108766243600,0.63524365234375,0.003819966223090887,-0.005905419588088989,-0.07001577317714691
1782811108776314600,0.645314697265625,0.010786529630422592,0.01105518825352192,-0.08074511587619781
1782811108786386400,0.655386474609375,0.01637420803308487,0.005745345260947943,-0.10954403132200241
1782811108796457500,0.66545751953125,0.02030157297849655,-0.01597459800541401,-0.1292112171649933
1782811108806529500,0.675529541015625,0.025422336533665657,-0.029445761814713478,-0.13790862262248993
1782811108816600600,0.6856005859375,0.029382456094026566,-0.030924616381525993,-0.1320805549621582
1782811108826671600,0.695671630859375,0.026289386674761772,-0.026187455281615257,-0.11097542196512222
1782811108836743700,0.70574365234375,0.024017177522182465,-0.022812698036432266,-0.08981474488973618
1782811108846814500,0.715814453125,0.02718125283718109,-0.028220143169164658,-0.06408524513244629
1782811108856885500,0.725885498046875,0.0387691967189312,-0.037179283797740936,-0.046240996569395065
1782811108866957300,0.735957275390625,0.046561598777770996,-0.04883594438433647,-0.031138325110077858
1782811108877028400,0.7460283203125,0.06109766289591789,-0.06424206495285034,-0.017802013084292412
1782811108887099400,0.756099365234375,0.07436984032392502,-0.07177703827619553,-0.005326911341398954
1782811108897171500,0.76617138671875,0.09114216268062592,-0.07814785093069077,0.0036932153161615133
1782811108907242500,0.776242431640625,0.1044575572013855,-0.09408940374851227,0.003186644520610571
1782811108917314600,0.786314453125,0.11518476903438568,-0.10730161517858505,-0.0006650852737948298
1782811108927385600,0.796385498046875,0.12085811048746109,-0.10754396766424179,-0.0027227953542023897
1782811108937456600,0.80645654296875,0.12170020490884781,-0.09559223055839539,0.00175104895606637
1782811108947528700,0.81652880859375,0.11954023689031601,-0.0803002268075943,0.0048848665319383144
1782811108957599700,0.826599853515625,0.11674924194812775,-0.059683896601200104,0.012054629623889923
1782811108967670800,0.8366708984375,0.12320004403591156,-0.04453655332326889,0.013996336609125137
1782811108977742600,0.84674267578125,0.12498889118432999,-0.041424915194511414,0.007003674283623695
1782811108987813600,0.856813720703125,0.12979008257389069,-0.04399134963750839,0.0005121464491821826
1782811108997885700,0.8668857421875,0.1377769112586975,-0.03886369988322258,0.008553295396268368
1782811109007956500,0.87695654296875,0.14548084139823914,-0.026859402656555176,0.02048339881002903
1782811109018027500,0.887027587890625,0.16059748828411102,-0.02609880454838276,0.03774894028902054
1782811109028099600,0.897099609375,0.17164435982704163,-0.035367608070373535,0.04566480591893196
1782811109038170600,0.907170654296875,0.18249593675136566,-0.0452713705599308,0.04999031126499176
1782811109048241700,0.91724169921875,0.18653905391693115,-0.0609525591135025,0.05008472129702568
1782811109058313700,0.927313720703125,0.19131170213222504,-0.06722962856292725,0.05542995035648346
1782811109068384800,0.937384765625,0.191663458943367,-0.07157820463180542,0.07162031531333923
1782811109078455800,0.947455810546875,0.19889581203460693,-0.05932100862264633,0.10376492887735367
1782811109088527600,0.957527587890625,0.20372048020362854,-0.03821522369980812,0.14515763521194458
1782811109098598700,0.9675986328125,0.20862630009651184,-0.020844221115112305,0.17620450258255005
1782811109108670700,0.977670654296875,0.2145305722951889,-0.017198188230395317,0.18592017889022827
1782811109118741500,0.987741455078125,0.22187396883964539,-0.01618432253599167,0.17609179019927979
1782811109128812500,0.9978125,0.23132625222206116,-0.04104073718190193,0.14777836203575134
1782811109138884600,1.007884521484375,0.23534069955348969,-0.07021806389093399,0.11884177476167679
1782811109148955600,1.01795556640625,0.24467885494232178,-0.09919175505638123,0.0972067341208458
1782811109159026700,1.028026611328125,0.2517545819282532,-0.12752112746238708,0.07501833885908127
1782811109169098500,1.038098388671875,0.2551042437553406,-0.1516871452331543,0.05833083763718605
1782811109179169500,1.04816943359375,0.25444138050079346,-0.16500136256217957,0.06126803532242775
1782811109189240600,1.058240478515625,0.25146937370300293,-0.16540752351284027,0.06293812394142151
1782811109199312600,1.068312744140625,0.23979726433753967,-0.16706641018390656,0.06925380975008011
1782811109209383700,1.0783837890625,0.2294875830411911,-0.16573701798915863,0.08464135974645615
1782811109219455700,1.088455810546875,0.2155027836561203,-0.16427414119243622,0.10148106515407562
1782811109229526500,1.098526611328125,0.20427393913269043,-0.15909406542778015,0.12296290695667267
1782811109239597600,1.10859765625,0.1924108862876892,-0.14907951653003693,0.13191431760787964
1782811109249669600,1.118669677734375,0.18168923258781433,-0.13490714132785797,0.13668596744537354
1782811109259740700,1.12874072265625,0.17134764790534973,-0.11997373402118683,0.13985033333301544
1782811109269811700,1.138811767578125,0.16828638315200806,-0.11960285156965256,0.13324670493602753
1782811109279883500,1.148883544921875,0.1645459681749344,-0.11478332430124283,0.11788824945688248
1782811109289954600,1.15895458984375,0.16375873982906342,-0.12387988716363907,0.10395379364490509
1782811109300025600,1.169025634765625,0.1684187352657318,-0.12729007005691528,0.09242390096187592
1782811109310097700,1.17909765625,0.17104804515838623,-0.12195832282304764,0.0885368138551712
1782811109320168700,1.189168701171875,0.15830455720424652,-0.11697554588317871,0.08654290437698364
1782811109330240800,1.19924072265625,0.1434013694524765,-0.11223338544368744,0.08840516954660416
1782811109340311600,1.2093115234375,0.13034389913082123,-0.09749571979045868,0.09699120372533798
1782811109350382600,1.219382568359375,0.12021995335817337,-0.0908992737531662,0.11033980548381805
1782811109360454700,1.22945458984375,0.11217880249023438,-0.08188393712043762,0.11216805875301361
1782811109370525700,1.239525634765625,0.10666625946760178,-0.0841604694724083,0.1125352755188942
1782811109380596700,1.2495966796875,0.10083527117967606,-0.08286937326192856,0.11203859746456146
1782811109390668500,1.25966845703125,0.0922086238861084,-0.07447469234466553,0.10748227685689926
1782811109400739600,1.269739501953125,0.08123000711202621,-0.0601695217192173,0.1075587049126625
1782811109410810600,1.279810546875,0.06247985363006592,-0.039995040744543076,0.11188578605651855
1782811109420882700,1.289882568359375,0.053862132132053375,-0.0253473911434412,0.11012624204158783
1782811109430953500,1.299953369140625,0.04806354269385338,-0.03168327361345291,0.0897103101015091
1782811109441025800,1.31002587890625,0.051344823092222214,-0.04681961610913277,0.06606090813875198
1782811109451096600,1.3200966796875,0.044577352702617645,-0.07005780935287476,0.030953695997595787
1782811109461167600,1.330167724609375,0.042761076241731644,-0.08185108006000519,0.0052619134075939655
1782811109471239700,1.34023974609375,0.03192237764596939,-0.07721402496099472,-0.01405374612659216
1782811109481310700,1.350310791015625,0.006859900895506144,-0.05950159952044487,-0.019720688462257385
1782811109491381800,1.3603818359375,-0.018412191420793533,-0.03421291708946228,-0.007004988379776478
1782811109501453600,1.37045361328125,-0.04004025459289551,-0.012438112869858742,0.007919631898403168
1782811109511524600,1.380524658203125,-0.0514090359210968,-0.006442944053560495,0.016014588996767998
1782811109521596700,1.3905966796875,-0.06122438237071037,-0.00964566133916378,0.015472101978957653
1782811109531667700,1.400667724609375,-0.06649940460920334,-0.004038211423903704,0.013198190368711948
1782811109541738500,1.410738525390625,-0.06781341135501862,0.005596838891506195,0.009889479726552963
1782811109551810600,1.420810546875,-0.07191386818885803,0.01720103807747364,0.0012295249616727233
1782811109561881600,1.430881591796875,-0.07319990545511246,0.018140334635972977,-0.010773874819278717
1782811109571952600,1.44095263671875,-0.06990551203489304,0.014955524355173111,-0.019761471077799797
1782811109582024400,1.4510244140625,-0.06584339588880539,0.01428494043648243,-0.027102474123239517
1782811109592095500,1.461095458984375,-0.05617509037256241,0.015511423349380493,-0.020189383998513222
1782811109602166500,1.47116650390625,-0.047611165791749954,0.0078172842040658,-0.01226674672216177
1782811109612238600,1.481238525390625,-0.044033460319042206,0.0006991965929046273,-0.0001276799594052136
1782811109622309600,1.4913095703125,-0.03486846014857292,-0.006124620791524649,0.02156376652419567
1782811109632380700,1.501380615234375,-0.03718104586005211,-0.006713743321597576,0.0438312366604805
1782811109642452700,1.51145263671875,-0.040108125656843185,-0.0008409409783780575,0.07386024296283722
1782811109652523500,1.5215234375,-0.0431126169860363,0.006196952424943447,0.09429507702589035
1782811109662595600,1.531595703125,-0.042901694774627686,0.014155542477965355,0.10471895337104797
1782811109672666600,1.54166650390625,-0.04660209268331528,0.025647681206464767,0.1160787045955658
1782811109682737700,1.551737548828125,-0.049310795962810516,0.02829885669052601,0.11076170951128006
1782811109692809500,1.5618095703125,-0.04980006814002991,0.01613081991672516,0.09824226051568985
1782811109702880500,1.571880615234375,-0.05085201933979988,0.02607612870633602,0.07975059747695923
1782811109712951600,1.58195166015625,-0.049477506428956985,0.010136098600924015,0.06605229526758194
1782811109723023600,1.592023681640625,-0.04901624843478203,0.007301696576178074,0.045869261026382446
1782811109733094700,1.6020947265625,-0.05150069668889046,0.0002224907511845231,0.029485339298844337
1782811109743165700,1.612165771484375,-0.056185465306043625,0.008965648710727692,0.026153990998864174
1782811109753237800,1.62223779296875,-0.06424042582511902,0.010466777719557285,0.02935371920466423
1782811109763308500,1.63230859375,-0.07625127583742142,0.022964993491768837,0.028233595192432404
1782811109773380600,1.642380615234375,-0.0758020207285881,0.02501055598258972,0.01686018891632557
1782811109783451600,1.65245166015625,-0.07666328549385071,0.017807770520448685,-0.003987835254520178
1782811109793522700,1.662522705078125,-0.07928849011659622,0.022663116455078125,-0.012120407074689865
1782811109803594500,1.672594482421875,-0.07714464515447617,0.031030502170324326,-0.015846436843276024
1782811109813665500,1.68266552734375,-0.07660340517759323,0.036939751356840134,-0.017631683498620987
1782811109823736600,1.692736572265625,-0.07164619117975235,0.033989764750003815,-0.021642936393618584
1782811109833808600,1.70280859375,-0.06478957831859589,0.033996060490608215,-0.025600984692573547
1782811109843879700,1.712879638671875,-0.05315529555082321,0.01994548924267292,-0.02790595032274723
1782811109853950700,1.72295068359375,-0.04118116572499275,0.013487886637449265,-0.03462621942162514
1782811109864022800,1.733022705078125,-0.02956872060894966,0.010946964845061302,-0.03251779451966286
1782811109874093600,1.743093505859375,-0.023596161976456642,0.013028504326939583,-0.026460789144039154
1782811109884165600,1.75316552734375,-0.02453838847577572,0.022249964997172356,-0.008735854178667068
1782811109894236700,1.763236572265625,-0.02148754708468914,0.02961699105799198,0.0045446474105119705
1782811109904307700,1.7733076171875,-0.020564762875437737,0.033550214022397995,0.006988896522670984
1782811109914379300,1.783379150390625,-0.011534222401678562,0.02772977389395237,0.0036597747821360826
1782811109924450300,1.7934501953125,-0.0053138770163059235,0.014818767085671425,-0.0027635034639388323
1782811109934521300,1.803521240234375,-0.00003469304647296667,0.00774967297911644,-0.011137813329696655
1782811109944593400,1.813593505859375,0.00743360910564661,-0.00473442766815424,-0.013318675570189953
1782811109954664400,1.82366455078125,0.013725630939006805,-0.01012502983212471,-0.02093803696334362
1782811109964735200,1.8337353515625,0.02150845341384411,-0.01993478275835514,-0.02570056915283203
1782811109974807300,1.843807373046875,0.02671830728650093,-0.023343587294220924,-0.021192239597439766
1782811109984878300,1.85387841796875,0.025971289724111557,-0.027536999434232712,-0.02578485943377018
1782811109994950400,1.863950439453125,0.02536112070083618,-0.03819221258163452,-0.023316849023103714
1782811110005021400,1.874021484375,0.02235494554042816,-0.04891436547040939,-0.016339100897312164
1782811110015092500,1.884092529296875,0.021734971553087234,-0.047923389822244644,0.0027795752976089716
1782811110025164300,1.894164306640625,0.025906281545758247,-0.03659483417868614,0.02211039699614048
1782811110035235300,1.9042353515625,0.02802065573632717,-0.033655550330877304,0.03770973160862923
1782811110045306400,1.914306396484375,0.020924663171172142,-0.034208156168460846,0.04723000153899193
1782811110055378400,1.92437841796875,0.02133595570921898,-0.03731875866651535,0.05646049976348877
1782811110065449500,1.934449462890625,0.023854773491621017,-0.03748174384236336,0.05704959109425545
1782811110075520300,1.944520263671875,0.024274170398712158,-0.03417414426803589,0.05438543111085892
1782811110085592300,1.95459228515625,0.02278652787208557,-0.030884338542819023,0.042879510670900345
1782811110095663400,1.964663330078125,0.021570073440670967,-0.032680440694093704,0.029465995728969574
1782811110105735400,1.9747353515625,0.0151438657194376,-0.03113820217549801,0.01982268877327442
1782811110115806500,1.984806396484375,0.0068634008057415485,-0.030484694987535477,0.010301070287823677
1782811110125877500,1.99487744140625,-0.004855040460824966,-0.03659691661596298,0.005464236717671156
1782811110135949300,2.00494921875,-0.011845647357404232,-0.03604544326663017,0.006791138555854559
1782811110146020400,2.015020263671875,-0.022892972454428673,-0.027355285361409187,0.021516287699341774
1782811110156091400,2.02509130859375,-0.031965844333171844,-0.018447959795594215,0.04128015413880348
1782811110166163500,2.03516357421875,-0.04314605891704559,-0.009549806825816631,0.057309187948703766
1782811110176234500,2.045234375,-0.052967265248298645,-0.00876284297555685,0.06480306386947632
1782811110186305300,2.05530517578125,-0.05810190364718437,-0.008330673910677433,0.058057766407728195
1782811110196377300,2.06537744140625,-0.06469494104385376,-0.007097612135112286,0.050734780728816986
1782811110206448400,2.075448486328125,-0.06836264580488205,0.0028058846946805716,0.0478614941239357
1782811110216520200,2.085520263671875,-0.06983470916748047,0.010124647058546543,0.032800063490867615
1782811110226591200,2.09559130859375,-0.06514009088277817,0.003792449366301298,0.005917317233979702
1782811110236662300,2.105662353515625,-0.05717946216464043,0.008359012193977833,-0.02280767261981964
1782811110246734300,2.115734375,-0.05128162354230881,0.013944726437330246,-0.04968162998557091
1782811110256805400,2.125805419921875,-0.05184634029865265,0.010683558881282806,-0.07667071372270584
1782811110266876400,2.13587646484375,-0.04968811571598053,0.01618804596364498,-0.08770232647657394
1782811110276948500,2.145948486328125,-0.04608313366770744,0.028865618631243706,-0.08119721710681915
1782811110287019300,2.156019287109375,-0.037917617708444595,0.027482906356453896,-0.08271974325180054
1782811110297090300,2.16609033203125,-0.026078633964061737,0.018111806362867355,-0.07554170489311218
1782811110307162400,2.176162353515625,-0.020454304292798042,0.01861833967268467,-0.05781357362866402
1782811110317233400,2.1862333984375,-0.015429526567459106,0.013343343511223793,-0.030802879482507706
1782811110327304400,2.196304443359375,-0.013908861204981804,0.01614711992442608,0.0014181729638949037
1782811110337376300,2.206376220703125,-0.019753005355596542,0.018366364762187004,0.02693020924925804
1782811110347447300,2.216447265625,-0.017079191282391548,0.013548439368605614,0.047715649008750916
1782811110357519400,2.226519287109375,-0.013229947537183762,-0.0024800212122499943,0.0371163971722126
1782811110367590400,2.23659033203125,-0.007826926186680794,-0.02518213726580143,0.020344877615571022
1782811110377661400,2.246661376953125,-0.0034907925873994827,-0.0433967188000679,0.015241098590195179
1782811110387733500,2.2567333984375,-0.0028106216341257095,-0.050519343465566635,0.0181689765304327
1782811110397804300,2.26680419921875,-0.009152432903647423,-0.05315230041742325,0.034621886909008026
1782811110407875300,2.276875244140625,-0.010769238695502281,-0.048139166086912155,0.05036596581339836
1782811110417947400,2.286947509765625,-0.015291488729417324,-0.049008361995220184,0.060042597353458405
1782811110428018400,2.297018310546875,-0.013856576755642891,-0.053162626922130585,0.05819036811590195
1782811110438089500,2.30708935546875,-0.010846811346709728,-0.05879268795251846,0.05209660157561302
1782811110448161300,2.317161376953125,-0.00721505843102932,-0.06722665578126907,0.03735334053635597
1782811110458232300,2.327232421875,0.00029402796644717455,-0.07272244989871979,0.025333905592560768
1782811110468304400,2.337304443359375,0.0014008376747369766,-0.07394270598888397,0.018934596329927444
1782811110478375400,2.34737548828125,0.0029506697319447994,-0.06403639912605286,0.023083988577127457
1782811110488446500,2.357446533203125,0.0028646497521549463,-0.049717653542757034,0.03496940806508064
1782811110498518500,2.3675185546875,-0.0004569459706544876,-0.03512270003557205,0.04308195039629936
1782811110508589300,2.37758935546875,-0.0015485755866393447,-0.02813349850475788,0.03880384936928749
1782811110518660400,2.387660400390625,-0.0010357374558225274,-0.024179330095648766,0.03544560819864273
1782811110528732400,2.397732421875,0.0034655374474823475,-0.014110982418060303,0.033862628042697906
1782811110538803500,2.407803466796875,0.007406606804579496,-0.008873345330357552,0.03125505894422531
1782811110548874500,2.41787451171875,0.005827618762850761,-0.00922514870762825,0.016075043007731438
1782811110558946300,2.4279462890625,0.008785644546151161,-0.011895988136529922,0.00032077686046250165
1782811110569017300,2.438017333984375,0.009714288637042046,-0.007183258421719074,-0.0047685238532722
1782811110579089400,2.44808935546875,0.010614144615828991,0.005466333590447903,0.0013113748282194138
1782811110589160400,2.458160400390625,0.01630372181534767,0.008172371424734592,0.005949802231043577
1782811110599231500,2.4682314453125,0.019333982840180397,0.005647808313369751,-0.004019507672637701
1782811110609303600,2.478303466796875,0.022461865097284317,-0.00017439434304833412,-0.009743173606693745
1782811110619374300,2.488374267578125,0.023049408569931984,0.0017492705956101418,-0.009390913881361485
1782811110629445400,2.4984453125,0.018834425136446953,0.0049722278490662575,-0.00837252102792263
1782811110639517200,2.50851708984375,0.019462917000055313,0.01654084026813507,-0.006340510677546263
1782811110649588200,2.518588134765625,0.015430359169840813,0.024675197899341583,-0.0025806594640016556
1782811110659659300,2.5286591796875,0.012564594857394695,0.021661097183823586,-0.0025744957383722067
1782811110669731300,2.5387314453125,0.016914602369070053,0.019962800666689873,-0.005276538897305727
1782811110679802400,2.54880224609375,0.015184474177658558,0.02105695754289627,-0.005926806014031172
1782811110689874400,2.55887451171875,0.019584814086556435,0.014386270195245743,-0.015153594315052032
1782811110699945500,2.568945556640625,0.021139899268746376,0.005902836099267006,-0.023214146494865417
1782811110710016500,2.5790166015625,0.022743120789527893,0.007075159810483456,-0.01877492293715477
1782811110720088600,2.589088623046875,0.02599097043275833,0.008833900094032288,-0.0023992075584828854
1782811110730159400,2.599159423828125,0.025005865842103958,0.008204063400626183,0.012958177365362644
1782811110740230400,2.60923046875,0.015501059591770172,0.014154243282973766,0.02591683715581894
1782811110750302200,2.61930224609375,0.011539074592292309,0.016819801181554794,0.03296276181936264
1782811110760373200,2.629373291015625,0.0049058240838348866,0.0197446346282959,0.03576337918639183
1782811110770444300,2.6394443359375,0.0021558438893407583,0.0177062526345253,0.02371230721473694
1782811110780516400,2.649516357421875,-0.00043028814252465963,0.011956550180912018,0.003354078158736229
1782811110790587400,2.65958740234375,-0.005050872452557087,0.016755299642682076,-0.014748225919902325
1782811110800658400,2.669658447265625,-0.007189747411757708,0.013736923225224018,-0.026271330192685127
1782811110810730500,2.67973046875,-0.009617218747735023,0.010307304561138153,-0.04805705323815346
1782811110820801300,2.68980126953125,-0.009487305767834187,0.012912219390273094,-0.05337170884013176
1782811110830873600,2.69987353515625,-0.011439668945968151,0.018858525902032852,-0.04727493226528168
1782811110840944400,2.7099443359375,-0.01742645353078842,0.03100094199180603,-0.037572771310806274
1782811110851015400,2.720015380859375,-0.01892474852502346,0.03406091406941414,-0.02286040410399437
1782811110861087200,2.730087158203125,-0.02075864002108574,0.033003468066453934,-0.013603197410702705
1782811110871158300,2.740158203125,-0.023256419226527214,0.02996453456580639,-0.009908061474561691
1782811110881229300,2.750229248046875,-0.02587592974305153,0.02868099883198738,-0.005039900075644255
1782811110891301400,2.76030126953125,-0.030187051743268967,0.03101472742855549,0.0021623526699841022
1782811110901372400,2.770372314453125,-0.031781528145074844,0.037671659141778946,0.010176128707826138
1782811110911445000,2.780445068359375,-0.028942598029971123,0.035022079944610596,0.0002973993250634521
1782811110921516000,2.79051611328125,-0.022679273039102554,0.017559168860316277,-0.013072753325104713
1782811110931587000,2.800587158203125,-0.01664002239704132,0.012847237288951874,-0.016400374472141266
1782811110941659000,2.810658935546875,-0.009150516241788864,0.016608718782663345,-0.0065461257472634315
1782811110951729700,2.820729736328125,-0.006887361872941256,0.014500826597213745,-0.004638503305613995
1782811110961800700,2.83080078125,-0.006627944298088551,0.011540616862475872,-0.0009872133377939463
1782811110971872800,2.840872802734375,-0.004991698078811169,0.01842089556157589,0.009050507098436356
1782811110981943800,2.85094384765625,-0.006903468631207943,0.029279645532369614,0.017335694283246994
1782811110992014800,2.861014892578125,-0.004647504538297653,0.02541113831102848,0.011374207213521004
1782811111002087000,2.8710869140625,0.0012598058674484491,0.016714340075850487,-0.005388353019952774
1782811111012158000,2.881157958984375,0.005160005297511816,0.007195403799414635,-0.015101433731615543
1782811111022229000,2.89122900390625,0.009894585236907005,0.005805776454508305,-0.014937271364033222
1782811111032301000,2.901301025390625,0.010650656186044216,0.010810655541718006,-0.015776168555021286
1782811111042372000,2.9113720703125,0.012979920022189617,0.00884930044412613,-0.012504967860877514
1782811111052444000,2.92144384765625,0.011531692929565907,0.005123537965118885,-0.01429035048931837
1782811111062514700,2.9315146484375,0.01289595477283001,0.0007401678012683988,-0.015342184342443943
1782811111072585700,2.941585693359375,0.012110589072108269,-0.001109663862735033,-0.008470162749290466
1782811111082657800,2.95165771484375,0.00821822602301836,0.0048491377383470535,0.004871833603829145
1782811111092728800,2.961728759765625,0.003488984890282154,0.0038179615512490273,0.01249193586409092
1782811111102800000,2.9717998046875,-0.0019145315745845437,0.007218724582344294,0.018444307148456573
1782811111112872000,2.981871826171875,-0.008558585308492184,0.014386089518666267,0.01831088401377201
1782811111122943000,2.99194287109375,-0.00848298892378807,0.01153846550732851,0.01002531684935093
1782811111133014000,3.002013916015625,-0.008375397883355618,0.00891684927046299,0.0017197158886119723
1782811111143086000,3.012086181640625,-0.006800137460231781,0.012360051274299622,-0.0028492030687630177
1782811111153156900,3.022156982421875,-0.005724753253161907,0.011435667984187603,-0.015604945831000805
1782811111163229000,3.03222900390625,-0.0016766850603744388,0.009640759788453579,-0.0307319276034832
1782811111173299700,3.0422998046875,0.0031755943782627583,0.00021769700106233358,-0.042907100170850754
1782811111183370800,3.052370849609375,0.006181136704981327,0.006054845172911882,-0.03768276050686836
1782811111193442800,3.06244287109375,0.008503412827849388,0.016290970146656036,-0.01955542154610157
1782811111203513900,3.072513916015625,0.005638867616653442,0.012956518679857254,-0.00919364858418703
1782811111213585000,3.0825849609375,0.003930449485778809,0.017053790390491486,-0.0013746080221608281
1782811111223657000,3.092656982421875,0.0036439429968595505,0.01842229999601841,-0.0019695027731359005
1782811111233728000,3.10272802734375,0.003017567563802004,0.008169394917786121,-0.005553585011512041
1782811111243799000,3.112799072265625,0.0022885440848767757,0.013962728902697563,-0.00323846866376698
1782811111253870800,3.122870849609375,0.005460901651531458,0.02261267602443695,0.0025805383920669556
1782811111263942000,3.13294189453125,0.007418553810566664,0.01863453909754753,-0.004280770197510719
1782811111274013700,3.143013671875,0.006891247816383839,0.01290794275701046,-0.016419723629951477
1782811111284084700,3.153084716796875,0.007901400327682495,0.011497410014271736,-0.024268604815006256
1782811111294155800,3.16315576171875,0.003315170295536518,0.013999981805682182,-0.02026401087641716
1782811111304227800,3.173227783203125,0.003252027090638876,0.010527858510613441,-0.017224375158548355
1782811111314299000,3.183298828125,0.0035697421990334988,0.011067681014537811,-0.009030893445014954
1782811111324370000,3.193369873046875,0.0022932630963623524,0.008086915127933025,-0.010188667103648186
1782811111334442000,3.20344189453125,0.002140397671610117,0.0006423145532608032,-0.004990443587303162
1782811111344513000,3.213512939453125,0.001310050138272345,0.0008667093934491277,0.0014406555565074086
1782811111354584000,3.223583984375,-0.0005451078759506345,0.0012182466452941298,0.00491954293102026
1782811111364655900,3.23365576171875,-0.003385102842003107,0.004810851067304611,0.015321584418416023
1782811111374726700,3.2437265625,-0.0017773524159565568,0.013434965163469315,0.024976074695587158
1782811111384797700,3.253797607421875,-0.0019569131545722485,0.01740407757461071,0.024154983460903168
1782811111394869800,3.263869873046875,0.00008732930291444063,0.021542897447943687,0.013629638589918613
1782811111404940800,3.27394091796875,0.0009960257448256016,0.023553475737571716,-0.009148813784122467
1782811111415012900,3.284012939453125,0.005960690788924694,0.0182212945073843,-0.026915293186903
1782811111425084000,3.294083984375,0.010143972001969814,0.02180643565952778,-0.03730759397149086
1782811111435155000,3.304155029296875,0.016483360901474953,0.027209989726543427,-0.0370737686753273
1782811111445227000,3.31422705078125,0.016843635588884354,0.035710740834474564,-0.03635916858911514
1782811111455298000,3.324298095703125,0.015136814676225185,0.036627400666475296,-0.03245044872164726
1782811111465369000,3.334369140625,0.017697773873806,0.035338230431079865,-0.036682434380054474
1782811111475441000,3.34444091796875,0.022176679223775864,0.02989845536649227,-0.04570788890123367
1782811111485511700,3.35451171875,0.025380373001098633,0.018724676221609116,-0.058152444660663605
1782811111495582700,3.364582763671875,0.025270117446780205,0.011205773800611496,-0.06596136838197708
1782811111505654800,3.37465478515625,0.029161300510168076,0.005216639488935471,-0.06578445434570312
1782811111515725800,3.384725830078125,0.02821960672736168,0.00936185009777546,-0.04557745158672333
1782811111525798000,3.3947978515625,0.025865763425827026,0.013675088062882423,-0.01848650723695755
1782811111535869000,3.404868896484375,0.02535177394747734,0.01744985207915306,0.00459564384073019
1782811111545940000,3.41493994140625,0.025121498852968216,0.01210271380841732,0.014354134909808636
1782811111556012000,3.425011962890625,0.027096234261989594,-0.0013859309256076813,0.013464106246829033
1782811111566083000,3.4350830078125,0.03340299427509308,-0.010150530375540257,0.01712922565639019
1782811111576153900,3.44515380859375,0.04566551744937897,-0.024625344201922417,0.02303212322294712
1782811111586226000,3.455225830078125,0.051109448075294495,-0.038269881159067154,0.02314864471554756
1782811111596296700,3.465296630859375,0.05422507971525192,-0.049519073218107224,0.026404092088341713
1782811111606367700,3.47536767578125,0.052956681698560715,-0.05687452852725983,0.03519723191857338
1782811111616439800,3.485439697265625,0.05154866725206375,-0.06511994451284409,0.040586140006780624
1782811111626510800,3.4955107421875,0.05231857672333717,-0.06264122575521469,0.04811357706785202
1782811111636583000,3.5055830078125,0.0534895695745945,-0.06690308451652527,0.04624829813838005
1782811111646654000,3.515654052734375,0.05269316956400871,-0.07653172314167023,0.03916792944073677
1782811111656725000,3.52572509765625,0.048978060483932495,-0.07591759413480759,0.04020443186163902
1782811111666796800,3.535796875,0.04245009273290634,-0.07118025422096252,0.045323994010686874
1782811111676867800,3.545867919921875,0.041686031967401505,-0.05844954773783684,0.06001851707696915
1782811111686939000,3.55593896484375,0.035905513912439346,-0.037710040807724,0.07308950275182724
1782811111697010700,3.5660107421875,0.027716826647520065,-0.020464474335312843,0.07550232857465744
1782811111707081700,3.576081787109375,0.02229778841137886,-0.006326989736407995,0.06773128360509872
1782811111717152800,3.58615283203125,0.020295891910791397,0.009403770789504051,0.04670003056526184
1782811111727224800,3.596224853515625,0.029077118262648582,0.009572606533765793,0.008223101496696472
1782811111737296000,3.6062958984375,0.041804634034633636,-0.0030268083792179823,-0.03512490540742874
1782811111747368000,3.616367919921875,0.04826018586754799,-0.019565392285585403,-0.07182773947715759
1782811111757439000,3.62643896484375,0.054914891719818115,-0.031052403151988983,-0.08211872726678848
1782811111767510000,3.636510009765625,0.05491498112678528,-0.020641351118683815,-0.061743009835481644
1782811111777581800,3.646581787109375,0.06150604039430618,-0.012296603992581367,-0.027397019788622856
1782811111787652900,3.65665283203125,0.05706052482128143,-0.011602083221077919,0.003936381544917822
1782811111797723600,3.6667236328125,0.057431504130363464,-0.009437198750674725,0.03053789772093296
1782811111807795700,3.676795654296875,0.06288769841194153,-0.02209223061800003,0.05312083289027214
1782811111817866800,3.68686669921875,0.0689605101943016,-0.02515380084514618,0.07562295347452164
1782811111827937800,3.696937744140625,0.06962648779153824,-0.025003409013152122,0.09613659232854843
1782811111838009900,3.707009765625,0.07416584342718124,-0.036393746733665466,0.10368026047945023
1782811111848081000,3.717080810546875,0.07466347515583038,-0.04879939556121826,0.100548155605793
1782811111858152000,3.72715185546875,0.07863717526197433,-0.06068747863173485,0.08883983641862869
1782811111868224000,3.73722412109375,0.08186767995357513,-0.06588681787252426,0.07394570857286453
1782811111878295000,3.747294921875,0.08811599016189575,-0.07832325249910355,0.06568244844675064
1782811111888366800,3.757366943359375,0.09335765987634659,-0.08695092052221298,0.055528294295072556
1782811111898438000,3.76743798828125,0.10181479156017303,-0.08397296816110611,0.05561405047774315
1782811111908509000,3.777509033203125,0.10592635720968246,-0.0718587338924408,0.0596800222992897
1782811111918581000,3.7875810546875,0.10932029038667679,-0.06419122219085693,0.06350938230752945
1782811111928652000,3.797652099609375,0.11359306424856186,-0.0639980137348175,0.05904819816350937
1782811111938723000,3.80772314453125,0.11436858028173447,-0.06894376873970032,0.049147628247737885
1782811111948795100,3.817795166015625,0.1128750890493393,-0.08045181632041931,0.040770236402750015
1782811111958866200,3.8278662109375,0.10399211943149567,-0.08670838177204132,0.032164230942726135
1782811111968937000,3.83793701171875,0.09911036491394043,-0.09462573379278183,0.014321453869342804
1782811111979009000,3.848009033203125,0.08832696080207825,-0.10796736925840378,-0.00919825304299593
1782811111989080000,3.858080078125,0.07822505384683609,-0.10917071253061295,-0.028889277949929237
1782811111999151900,3.86815185546875,0.06181678920984268,-0.10106804966926575,-0.04179761931300163
1782811112009223000,3.878222900390625,0.05231419950723648,-0.09443721920251846,-0.043001510202884674
1782811112019294000,3.8882939453125,0.05033041164278984,-0.08897720277309418,-0.03346686065196991
1782811112029366000,3.898365966796875,0.05391877889633179,-0.08563090860843658,-0.022484561428427696
1782811112039437000,3.90843701171875,0.05509749427437782,-0.08266201615333557,-0.010169039480388165
1782811112049508000,3.918508056640625,0.05807569622993469,-0.07751201838254929,0.004116048105061054
1782811112059580200,3.928580078125,0.05383621156215668,-0.06931374222040176,0.010340920649468899
1782811112069651200,3.938651123046875,0.0517122745513916,-0.060271572321653366,0.017488006502389908
1782811112079722000,3.948721923828125,0.0402633436024189,-0.0439397394657135,0.020968224853277206
1782811112089794000,3.9587939453125,0.03485153615474701,-0.03134565055370331,0.015827259048819542
1782811112099864800,3.96886474609375,0.037108298391103745,-0.034100957214832306,0.0018677680054679513
1782811112109935900,3.978935791015625,0.037069808691740036,-0.040997084230184555,-0.027763815596699715
1782811112120008000,3.989008056640625,0.038559313863515854,-0.048575907945632935,-0.0500483475625515
1782811112130079000,3.999078857421875,0.03893016651272774,-0.057497624307870865,-0.06299325078725815
1782811112140151000,4.009151123046875,0.03304751217365265,-0.06256774812936783,-0.06981866806745529
1782811112150222000,4.01922216796875,0.024040281772613525,-0.0606837160885334,-0.05942518636584282
1782811112160293000,4.029293212890625,0.013716539368033409,-0.05079459771513939,-0.03841950371861458
1782811112170365200,4.039365234375,0.0011550916824489832,-0.037051472812891006,-0.01490322221070528
1782811112180436200,4.049436279296875,-0.009667462669312954,-0.018910018727183342,0.0018866764148697257
1782811112190507000,4.059507080078125,-0.020348284393548965,-0.005042353644967079,0.0036892977077513933
1782811112200578800,4.069578857421875,-0.033410556614398956,0.0071695707738399506,-0.007164681330323219
1782811112210649900,4.07964990234375,-0.044153496623039246,0.009722864255309105,-0.02693810500204563
1782811112220721000,4.089720947265625,-0.04795542359352112,0.01204167865216732,-0.05212788283824921
1782811112230793000,4.09979296875,-0.05023307353258133,0.010869904421269894,-0.07718272507190704
1782811112240864000,4.109864013671875,-0.04832145571708679,0.00031979172490537167,-0.1033962219953537
1782811112250936000,4.11993603515625,-0.04149855300784111,0.003622800577431917,-0.11495031416416168
1782811112261007000,4.130007080078125,-0.043275415897369385,-0.0016201646067202091,-0.1234990581870079
1782811112271078100,4.140078125,-0.043906647711992264,-0.0015366021543741226,-0.12883341312408447
1782811112281150200,4.150150146484375,-0.04979036748409271,0.0004458549665287137,-0.11915548890829086
1782811112291221200,4.16022119140625,-0.055294934660196304,0.005324151366949081,-0.10069460421800613
1782811112301292000,4.1702919921875,-0.05887528881430626,0.014051596634089947,-0.06925226002931595
1782811112311363800,4.18036376953125,-0.058341167867183685,0.01840907894074917,-0.042538706213235855
1782811112321435000,4.190434814453125,-0.06174894794821739,0.01324600912630558,-0.025211118161678314
1782811112331506000,4.200505859375,-0.058149877935647964,0.005647020414471626,-0.010408319532871246
1782811112341578000,4.210577880859375,-0.053887490183115005,0.0010812971740961075,-0.006486282218247652
1782811112351649000,4.22064892578125,-0.04869060963392258,-0.0052996473386883736,-0.0028863325715065002
1782811112361721000,4.23072119140625,-0.04029392823576927,-0.008505028672516346,-0.005394231528043747
1782811112371792100,4.240792236328125,-0.03219768777489662,-0.013064262457191944,-0.014808714389801025
1782811112381863200,4.25086328125,-0.026042325422167778,-0.016109585762023926,-0.02170496992766857
1782811112391935200,4.260935302734375,-0.0213115643709898,-0.01755935698747635,-0.023633921518921852
1782811112402006300,4.27100634765625,-0.016602562740445137,-0.01829199306666851,-0.02295907773077488
1782811112412077000,4.2810771484375,-0.013532456010580063,-0.01392692606896162,-0.016642872244119644
1782811112422148900,4.29114892578125,-0.01857754774391651,-0.005756880156695843,-0.010510943830013275
1782811112432220000,4.301219970703125,-0.021714601665735245,0.00007080007344484329,0.001511664129793644
1782811112442291000,4.311291015625,-0.021049875766038895,0.007177711930125952,0.014238910749554634
1782811112452363000,4.321363037109375,-0.016694312915205956,0.014660756103694439,0.02500320039689541
1782811112462434000,4.33143408203125,-0.021022217348217964,0.012325962074100971,0.022076120600104332
1782811112472505000,4.341505126953125,-0.017140520736575127,0.010272007435560226,0.01825600303709507
1782811112482577200,4.3515771484375,-0.01465792115777731,0.006984069012105465,0.008080331608653069
1782811112492648200,4.361648193359375,-0.011410640552639961,0.0038888962008059025,-0.0015234232414513826
1782811112502720000,4.371719970703125,-0.012175500392913818,-0.0044028558768332005,-0.007807151880115271
1782811112512791000,4.381791015625,-0.011746086180210114,-0.003830557456240058,-0.008388163521885872
1782811112522862000,4.391862060546875,-0.016437776386737823,-0.0011365036480128765,-0.0029643697198480368
1782811112532934000,4.401933837890625,-0.021896548569202423,0.005187759175896645,0.0035764805506914854
1782811112543005000,4.4120048828125,-0.030890844762325287,0.016153324395418167,0.01865183748304844
1782811112553076000,4.422075927734375,-0.036595672369003296,0.02562703937292099,0.02754492312669754
1782811112563148000,4.43214794921875,-0.0408996045589447,0.022710878401994705,0.02599363401532173
1782811112573219000,4.442218994140625,-0.04399031773209572,0.02568311057984829,0.016760755330324173
1782811112583290000,4.4522900390625,-0.04130877926945686,0.01803770661354065,0.0007032263092696667
1782811112593362200,4.462362060546875,-0.03540638089179993,0.008969549089670181,-0.009622972458600998
1782811112603433200,4.47243310546875,-0.024011781439185143,0.003909009974449873,-0.01812032237648964
1782811112613504000,4.48250390625,-0.013109267689287663,0.007419119589030743,-0.019546406343579292
1782811112623575800,4.492575927734375,-0.004875572863966227,0.012893247418105602,-0.015237675979733467
1782811112633646800,4.502646728515625,0.001461291452869773,0.015010867267847061,-0.008963613770902157
1782811112643719000,4.512718994140625,0.005131926387548447,0.011924796737730503,-0.00195603771135211
1782811112653790000,4.5227900390625,0.011372384615242481,0.01493670791387558,0.011854237876832485
1782811112663861000,4.532861083984375,0.01801776885986328,0.016783077269792557,0.016337402164936066
1782811112673933000,4.54293310546875,0.024774502962827682,0.02049061842262745,0.018568698316812515
1782811112684004000,4.553004150390625,0.025319119915366173,0.028782369568943977,0.01528954692184925
1782811112694075100,4.5630751953125,0.02334708534181118,0.03181322291493416,0.004821934271603823
1782811112704147200,4.573147216796875,0.02611624076962471,0.03146807476878166,-0.00823501218110323
1782811112714218200,4.58321826171875,0.0291979368776083,0.030787387862801552,-0.021589523181319237
1782811112724290000,4.5932900390625,0.030203547328710556,0.02523869089782238,-0.03660336136817932
1782811112734360800,4.60336083984375,0.03167419508099556,0.023875074461102486,-0.04259542375802994
1782811112744431900,4.613431884765625,0.031171919777989388,0.02770017273724079,-0.041794344782829285
1782811112754504000,4.62350390625,0.02414809912443161,0.030615802854299545,-0.035472799092531204
1782811112764575000,4.633574951171875,0.013747075572609901,0.02674098126590252,-0.03279610723257065
1782811112774646000,4.64364599609375,0.003017083741724491,0.02534271404147148,-0.02730836533010006
1782811112784718000,4.653718017578125,-0.0069543239660561085,0.02678268402814865,-0.016282079741358757
1782811112794789000,4.6637890625,-0.01821252889931202,0.02421756274998188,-0.005165161099284887
1782811112804860200,4.673860107421875,-0.03441094234585762,0.0165865421295166,0.0038328610826283693
1782811112814932200,4.68393212890625,-0.04744035750627518,0.017920220270752907,0.0148841617628932
1782811112825003300,4.694003173828125,-0.05636727064847946,0.024968808516860008,0.023070983588695526
1782811112835074000,4.704073974609375,-0.06482483446598053,0.02645508572459221,0.023068834096193314
1782811112845145900,4.714145751953125,-0.06613324582576752,0.027083059772849083,0.008221978321671486
1782811112855217000,4.724216796875,-0.0646192654967308,0.018613247200846672,-0.014196340925991535
1782811112865289000,4.7342890625,-0.0654725432395935,0.003269178792834282,-0.051954638212919235
1782811112875360000,4.744360107421875,-0.07318958640098572,-0.03376234322786331,-0.09683503210544586
1782811112885431000,4.75443115234375,-0.0645790547132492,-0.07008706033229828,-0.14480096101760864
1782811112895503000,4.764503173828125,-0.05106097459793091,-0.09084998816251755,-0.17767561972141266
1782811112905574100,4.77457421875,-0.033348824828863144,-0.09059512615203857,-0.1968490481376648
1782811112915645000,4.78464501953125,-0.02802383340895176,-0.10950649529695511,-0.1942436844110489
1782811112925717000,4.794717041015625,-0.019444992765784264,-0.09173975139856339,-0.1836344450712204
1782811112935788000,4.8047880859375,-0.018696680665016174,-0.09094177931547165,-0.1679409146308899
1782811112945859000,4.814859130859375,-0.020133189857006073,-0.09039236605167389,-0.14991530776023865
1782811112955931000,4.824930908203125,-0.029330380260944366,-0.07247205078601837,-0.1259772777557373
1782811112966002000,4.835001953125,-0.04920155555009842,-0.04416317865252495,-0.09255220741033554
1782811112976073000,4.845072998046875,-0.055980607867240906,-0.03284778073430061,-0.0631638616323471
1782811112986145000,4.85514501953125,-0.0671195387840271,-0.040374141186475754,-0.05081958323717117
1782811112996216000,4.865216064453125,-0.06891930103302002,-0.05395093560218811,-0.05188377946615219
1782811113006288100,4.8752880859375,-0.06514027714729309,-0.04005136340856552,-0.057391196489334106
1782811113016359200,4.885359130859375,-0.06534376740455627,-0.04267045482993126,-0.06392818689346313
1782811113026430000,4.895429931640625,-0.0666753426194191,-0.05644858628511429,-0.0700361430644989
1782811113036501800,4.905501708984375,-0.06303457170724869,-0.0567755289375782,-0.07973025739192963
1782811113046572800,4.91557275390625,-0.06744103878736496,-0.07018428295850754,-0.08432500809431076
1782811113056643800,4.925643798828125,-0.06676959991455078,-0.07671244442462921,-0.0939638540148735
1782811113066716000,4.9357158203125,-0.07497213780879974,-0.08327074348926544,-0.09629358351230621
1782811113076787000,4.945786865234375,-0.0730600357055664,-0.08675207197666168,-0.09052564948797226
1782811113086858000,4.95585791015625,-0.06997290253639221,-0.06538819521665573,-0.07300551235675812
1782811113096930000,4.965929931640625,-0.06891592592000961,-0.04637577384710312,-0.045233629643917084
1782811113107001000,4.9760009765625,-0.07304755598306656,-0.020000623539090157,-0.025023432448506355
1782811113117072100,4.986072021484375,-0.07579340785741806,0.003682721871882677,-0.006646476220339537
1782811113127144200,4.996144287109375,-0.07809065282344818,0.012513764202594757,-0.0024386816658079624
1782811113137215000,5.006215087890625,-0.07784149050712585,0.013620320707559586,-0.008120891638100147
1782811113147286800,5.016286865234375,-0.07829662412405014,-0.0013205448631197214,-0.03288456052541733
1782811113157357800,5.02635791015625,-0.07684769481420517,-0.007334713824093342,-0.050054896622896194
1782811113167428900,5.036428955078125,-0.077141173183918,-0.017742879688739777,-0.07501670718193054
1782811113177501000,5.0465009765625,-0.07616566866636276,-0.025422919541597366,-0.09827553480863571
1782811113187572000,5.056572021484375,-0.08287443965673447,-0.03439830616116524,-0.11082727462053299
1782811113197643000,5.06664306640625,-0.08219362795352936,-0.025685539469122887,-0.11432483047246933
1782811113207715000,5.076715087890625,-0.07072632759809494,-0.026329491287469864,-0.11874248087406158
1782811113217786000,5.0867861328125,-0.05768563598394394,-0.03856246545910835,-0.13134200870990753
1782811113227857200,5.096857177734375,-0.052496735006570816,-0.0530436709523201,-0.13634900748729706
1782811113237929200,5.10692919921875,-0.05433104559779167,-0.040503568947315216,-0.12833274900913239
1782811113248000000,5.117,-0.056145455688238144,-0.02836648002266884,-0.09953518211841583
1782811113258071800,5.12707177734375,-0.06384947150945663,-0.016206644475460052,-0.07654660940170288
1782811113268142800,5.137142822265625,-0.06557147204875946,0.0010711455252021551,-0.05352598428726196
1782811113278214000,5.1472138671875,-0.06592518091201782,0.017932245507836342,-0.034910429269075394
1782811113288286000,5.157285888671875,-0.06531265377998352,0.023539531975984573,-0.028184348717331886
1782811113298357000,5.16735693359375,-0.061025843024253845,0.008976638317108154,-0.030795874074101448
1782811113308428000,5.177427978515625,-0.05117987096309662,0.0020521534606814384,-0.019938698038458824
1782811113318500000,5.1875,-0.03802589327096939,0.005976000800728798,-0.0026336051523685455
1782811113328571100,5.197571044921875,-0.029551714658737183,0.004545883275568485,0.006527935154736042
1782811113338642000,5.207641845703125,-0.02285679429769516,0.00037936773151159286,0.014187186025083065
1782811113348714200,5.21771435546875,-0.02063784748315811,0.003357847221195698,0.02687714993953705
1782811113358785000,5.227784912109375,-0.020557228475809097,-0.007941758260130882,0.03309095278382301
1782811113368856000,5.23785595703125,-0.02219880186021328,-0.025513295084238052,0.03891262412071228
1782811113378927900,5.247927978515625,-0.01981087401509285,-0.014568360522389412,0.05846760421991348
1782811113388999000,5.2579990234375,-0.017902452498674393,0.005794434808194637,0.07422979176044464
1782811113399071000,5.268071044921875,-0.01403131801635027,0.007327177561819553,0.08089308440685272
1782811113409142000,5.27814208984375,-0.012384419329464436,-0.0013083887752145529,0.05788469687104225
1782811113419213000,5.288213134765625,-0.01044632401317358,-0.004781694151461124,0.0244048573076725
1782811113429285000,5.29828515625,-0.014254111796617508,-0.006737253628671169,0.0037906586658209562
1782811113439356200,5.308356201171875,-0.021020939573645592,-0.004975039511919022,-0.00751978624612093
1782811113449427000,5.318427001953125,-0.0174284465610981,0.009396719746291637,-0.00906370859593153
1782811113459499000,5.3284990234375,-0.013260788284242153,0.019115079194307327,-0.008897239342331886
1782811113469570000,5.338570068359375,-0.014546828344464302,0.007013407535851002,-0.004597032908350229
1782811113479641000,5.34864111328125,-0.021541574969887733,0.0010213622590526938,0.004516208544373512
1782811113489713000,5.358712890625,-0.02958512119948864,0.009108050726354122,0.02617117017507553
1782811113499784000,5.368783935546875,-0.0414460152387619,0.012925307266414165,0.05958595126867294
1782811113509856000,5.37885595703125,-0.04942697659134865,0.02068842202425003,0.09513889253139496
1782811113519927000,5.388927001953125,-0.05204521492123604,0.04047134518623352,0.12289303541183472
1782811113529998000,5.398998046875,-0.0519525371491909,0.046762265264987946,0.12437694519758224
1782811113540070100,5.409070068359375,-0.044470515102148056,0.04105871170759201,0.10681278258562088
1782811113550141200,5.41914111328125,-0.03683682903647423,0.02601930871605873,0.06574896723031998
1782811113560212000,5.4292119140625,-0.026185734197497368,-0.015233921818435192,0.009270831942558289
1782811113570283800,5.43928369140625,-0.019961927086114883,-0.02349185198545456,-0.009513774886727333
1782811113580354800,5.449354736328125,-0.017176460474729538,-0.011011829599738121,-0.006415267940610647
1782811113590425900,5.45942578125,-0.008535034954547882,0.00638606958091259,0.006346866022795439
1782811113600498000,5.469497802734375,-0.0007122793467715383,0.02166847325861454,0.01945602335035801
1782811113610569000,5.47956884765625,0.00961332954466343,0.030016152188181877,0.024799389764666557
1782811113620640000,5.489639892578125,0.012297198176383972,0.025259684771299362,0.013907820917665958
1782811113630712000,5.499712158203125,0.013895361684262753,0.01447388157248497,0.0016540840733796358
1782811113640783000,5.509783203125,0.011246304027736187,-0.0007727325428277254,-0.007123005576431751
1782811113650855200,5.519855224609375,0.009326430968940258,0.0060425628907978535,0.005051103420555592
1782811113660926200,5.52992626953125,0.008141223341226578,0.016151420772075653,0.02510099671781063
1782811113670997000,5.5399970703125,0.004277509171515703,0.023389095440506935,0.03567880764603615
1782811113681068800,5.55006884765625,-0.0022715600207448006,0.028086692094802856,0.028085997328162193
1782811113691139800,5.560139892578125,-0.0068777636624872684,0.02941880375146866,0.006098406855016947
1782811113701211000,5.5702109375,-0.009600100107491016,0.03260150924324989,-0.03243080899119377
1782811113711283000,5.580282958984375,-0.013313611969351768,0.03251655399799347,-0.0679701641201973
1782811113721354000,5.59035400390625,-0.017553918063640594,0.03026374615728855,-0.09113695472478867
1782811113731425000,5.600425048828125,-0.017309973016381264,0.025401614606380463,-0.09852109849452972
1782811113741497000,5.6104970703125,-0.014144704677164555,0.03113856352865696,-0.09679964929819107
1782811113751568100,5.620568115234375,-0.009099080227315426,0.03908117488026619,-0.08554726094007492
1782811113761639000,5.630638916015625,-0.0010257972171530128,0.06298922002315521,-0.06409217417240143
1782811113771711200,5.640711181640625,0.0005438699736259878,0.07017442584037781,-0.04996703192591667
1782811113781782000,5.650781982421875,-0.004691739566624165,0.051175203174352646,-0.05249222368001938
1782811113791853800,5.660853759765625,-0.01146149542182684,0.04486856982111931,-0.056677911430597305
1782811113801924900,5.6709248046875,-0.028667796403169632,0.06344929337501526,-0.016850637272000313
1782811113811996000,5.680995849609375,-0.04799116030335426,0.05796264484524727,0.010140500962734222
1782811113822068000,5.69106787109375,-0.053630683571100235,0.05239090323448181,0.05005490779876709
1782811113832139000,5.701138916015625,-0.06719815731048584,0.05191419646143913,0.10527847707271576
1782811113842210000,5.7112099609375,-0.08602447807788849,0.0367562510073185,0.1350371539592743
1782811113852282000,5.7212822265625,-0.0866929292678833,0.04498382285237312,0.14022712409496307
1782811113862353200,5.731353271484375,-0.08603638410568237,0.038585253059864044,0.11086846143007278
1782811113872424000,5.741423828125,-0.07844743877649307,0.005881367716938257,0.044146157801151276
1782811113882496000,5.75149609375,-0.06387665867805481,-0.0025365271139889956,-0.030678289011120796
1782811113892567000,5.761567138671875,-0.044423606246709824,0.02910662069916725,-0.09902379661798477
1782811113902638000,5.77163818359375,-0.030990557745099068,-0.009775737300515175,-0.18124884366989136
1782811113912710000,5.7817099609375,-0.017555441707372665,-0.03669364005327225,-0.23921388387680054
