time,seconds_elapsed,z,y,x
1782811007405307600,0.0763076171875,0.28098259498178957,-0.008266381629183889,0.15843421980813144
1782811007415378700,0.086378662109375,0.25866321114599705,-0.04729439674690365,0.17640023074001074
1782811007425449700,0.09644970703125,0.18015315353274344,-0.05865216852016747,0.12544110094048083
1782811007435521500,0.106521484375,0.12405541873574256,-0.056791196953877805,0.08086918796002865
1782811007445592600,0.116592529296875,0.03690262046158314,-0.07828845075182617,0.035082930753752586
1782811007455663600,0.12666357421875,0.006560673689842224,-0.09709083944261074,-0.02415273674279451
1782811007465734700,0.136734619140625,0.06968319255709647,-0.10070508441701531,-0.03563778815753758
1782811007475806700,0.146806640625,0.1856365533798933,-0.10312668554075062,0.02603986566364765
1782811007485877500,0.15687744140625,0.1907031891196966,-0.07324921447560191,0.0394670641221106
1782811007495948500,0.166948486328125,0.14727496628165243,-0.03405526820644736,0.020108283657580613
1782811007506020600,0.1770205078125,0.03145838358104229,-0.07156630288995802,-0.002452873044833541
1782811007516091600,0.187091552734375,-0.08121054874360562,-0.09732092187143862,-0.019858838941156864
1782811007526162700,0.19716259765625,-0.017387772652506826,-0.0782684308771044,-0.020274653200432657
1782811007536233700,0.207233642578125,0.10648469073176384,-0.09419256071783602,-0.0020537176594138144
1782811007546305500,0.217305419921875,0.08404021921157837,-0.09732742467746137,-0.007300386141240596
1782811007556376600,0.22737646484375,-0.012532733836770057,-0.05365516395047307,-0.0572036502122879
1782811007566447600,0.237447509765625,-0.03736205466687679,-0.07251666241735219,-0.05457658964432776
1782811007576519400,0.24751953125,-0.0026040450185537338,-0.07567286142595112,-0.025767040071636438
1782811007586590500,0.257590576171875,0.029050737917423245,-0.09113814158327876,-0.044835167026519775
1782811007596661500,0.26766162109375,0.07821545858085155,-0.06469605179429054,-0.05154007149264216
1782811007606732500,0.277732666015625,0.175092363011837,-0.0608181143824011,-0.041947701956704254
1782811007616804600,0.2878046875,0.18304127618968485,-0.05512377519831061,-0.02327346969023347
1782811007626875600,0.297875732421875,0.14806465535461902,-0.0379737568244338,-0.006584127630665898
1782811007636946700,0.30794677734375,0.06161854404509067,-0.012039543492347001,0.059819385668635365
1782811007647017700,0.318017822265625,-0.07309913848042487,0.031222090607136484,0.06179784613475203
1782811007657089800,0.32808984375,-0.1544745223969221,0.03248100462704897,0.014648191620782017
1782811007667160600,0.33816064453125,-0.15686287883818148,-0.005313815433904528,-0.05215155445449054
1782811007677231600,0.348231689453125,-0.07768938888013363,-0.04981339383050799,-0.07098411908783019
1782811007687303400,0.358303466796875,0.05870587146878242,-0.07200257541537285,-0.09927147141732275
1782811007697374500,0.36837451171875,0.20817864005565642,-0.09361293419897555,-0.07187646481767296
1782811007707445500,0.378445556640625,0.2811094362318516,-0.10510836087726055,-0.05218392235413193
1782811007717517600,0.388517578125,0.33672669403553007,-0.10535064520053565,-0.011672609876096248
1782811007727588600,0.398588623046875,0.3834288239777088,-0.09560578851662575,0.053963937638700006
1782811007737659600,0.40865966796875,0.31518297074735163,-0.10104651826582849,0.03593077975474298
1782811007747730400,0.41873046875,0.17299042229652403,-0.13186287761628626,0.015573782033100723
1782811007757802800,0.428802734375,0.10378419960141182,-0.14367416531071067,0.0033396658167243
1782811007767873500,0.43887353515625,-0.057657823720574375,-0.17387436552420257,-0.0025016806226223704
1782811007777944600,0.448944580078125,-0.2585936530411243,-0.18605945496708154,-0.01681092261262238
1782811007788016600,0.4590166015625,-0.37609599687159057,-0.22097791587412355,-0.06709734078235924
1782811007798087700,0.469087646484375,-0.3697077571392059,-0.23215258616544304,-0.08529635675251483
1782811007808158000,0.479157958984375,-0.20707973890304565,-0.23338695026598869,-0.04718596793636679
1782811007818229000,0.48922900390625,-0.039002807611227035,-0.18827508518993855,0.027767054782435296
1782811007828301000,0.499301025390625,0.12188041278421878,-0.1161220684532076,0.12182166833430529
1782811007838372000,0.5093720703125,0.2264355967581272,-0.05827778224982321,0.19567060226872562
1782811007848443100,0.519443115234375,0.1797895809173584,-0.029096221026964485,0.16071129789464175
1782811007858515000,0.529514892578125,-0.029506664991378783,-0.018865151728689668,0.08964731850363314
1782811007868586000,0.5395859375,-0.20195991167128086,-0.023332396803237496,0.012681129331514239
1782811007878657000,0.549656982421875,-0.1647182685136795,-0.0285535655176267,-0.0317062208622694
1782811007888728000,0.55972802734375,-0.04894143330156803,-0.046319962224178016,-0.04588365316614508
1782811007898800000,0.569800048828125,0.11796411612331867,-0.056103433885425325,-0.0874861218817532
1782811007908871000,0.579870849609375,0.206523274064064,-0.05026654442548752,-0.12312391003929078
1782811007918942000,0.58994189453125,0.28190321695804593,-0.054687100814096626,-0.11653795577771961
1782811007929013000,0.600012939453125,0.26691139953136445,-0.08464998514037579,-0.12956059202328324
1782811007939085000,0.6100849609375,0.25716391249895093,-0.12701342829111964,-0.12779679722115397
1782811007949156000,0.620156005859375,0.22098376109302043,-0.18333247768860308,-0.12781798613965512
1782811007959227100,0.63022705078125,0.23404957889318465,-0.24598737904410808,-0.12983436746336519
1782811007969299200,0.64029931640625,0.2641232301175594,-0.2933524298744276,-0.15063143710270524
1782811007979370200,0.650370361328125,0.24575755234360694,-0.3204846573520452,-0.16365473093539476
1782811007989441000,0.66044091796875,0.11136427946686744,-0.32483558257054534,-0.17912497952878473
1782811007999512000,0.670511962890625,-0.08414251054227352,-0.2886168161872774,-0.15153130855187774
1782811008009583900,0.680583984375,-0.15152677850723265,-0.25359942495040594,-0.0885230637140572
1782811008019655000,0.690655029296875,-0.1837672523766756,-0.2033380681566894,-0.01185826864130795
1782811008029726000,0.700725830078125,-0.25239421387910843,-0.17319160742443054,0.07979132959544658
1782811008039798000,0.710798095703125,-0.2709633052706718,-0.1256656669439748,0.1643841411884874
1782811008049869000,0.720869140625,-0.26603052504360675,-0.1422135547062382,0.22327033766023813
1782811008059940000,0.730940185546875,-0.2867722842991352,-0.16559629345722496,0.21518574233874677
1782811008070011100,0.74101123046875,-0.295609086227417,-0.17568433755561708,0.19478980084620415
1782811008080083200,0.751083251953125,-0.2697732187032699,-0.19620671843942253,0.15723741123899818
1782811008090154000,0.761154052734375,-0.3191775933414697,-0.20249410987952723,0.11205357690528034
1782811008100225000,0.77122509765625,-0.33631460610330105,-0.1849467079522088,0.10240881959497929
1782811008110297000,0.781297119140625,-0.30307927597761153,-0.17835306357452646,0.12336005688272415
1782811008120368000,0.7913681640625,-0.22070435962975024,-0.15217431916315108,0.13077522851005197
1782811008130439200,0.801439208984375,-0.12300211029052734,-0.12196893131788819,0.13782244360782206
1782811008140510200,0.81151025390625,-0.06462006394863128,-0.09583464710274711,0.1517248583626002
1782811008150582000,0.82158203125,-0.021346739411354065,-0.03808251442853361,0.19294088504388926
1782811008160653000,0.831653076171875,-0.0854155992180109,-0.0182446269438602,0.1738570490632206
1782811008170723800,0.841723876953125,-0.08481529523730277,-0.015402224858477712,0.1362734606001526
1782811008180795000,0.851794921875,-0.08217208725214004,-0.037877383777871726,0.0966997212331742
1782811008190867000,0.861866943359375,-0.12698328888118265,-0.056006184056028724,0.024137685304135084
1782811008200938000,0.87193798828125,-0.1562999842584133,-0.06728573949392884,0.0033147505711764095
1782811008211009000,0.882009033203125,-0.20632278305590152,-0.06364679846968502,-0.031538097753748294
1782811008221081000,0.8920810546875,-0.20027882671654224,-0.01529474589601159,-0.031812165454775096
1782811008231152000,0.902152099609375,-0.11742109528779983,-0.014491685884818434,-0.058026218641549346
1782811008241223200,0.91222314453125,-0.005269464835524559,-0.025764884647168217,-0.11423019029200077
1782811008251294200,0.922294189453125,0.037818566262722016,-0.026353973114117978,-0.15235899154767393
1782811008261366000,0.932365966796875,0.08436696694791317,-0.03287986775152385,-0.19877799369953572
1782811008271437000,0.94243701171875,0.20166823524832725,-0.06456910094637423,-0.226656984423846
1782811008281508000,0.952508056640625,0.3266811008393764,-0.10344605368822812,-0.25211152448020874
1782811008291580000,0.962579833984375,0.35630934638381,-0.06402509373016656,-0.18459383939392865
1782811008301651000,0.97265087890625,0.3163444157421589,-0.031307576933503146,-0.13163330664411185
1782811008311722000,0.982721923828125,0.23676292950510977,-0.004068528080545366,-0.06413980615101754
1782811008321793000,0.99279296875,0.15144845257401465,0.016607947386428713,-0.02833184905834496
1782811008331865000,1.002864990234375,0.09689093295633792,0.00671396455541253,-0.005464841277152299
1782811008341936000,1.01293603515625,0.06988076095581054,0.012511837179213761,0.032304186755418775
1782811008352007000,1.0230068359375,-0.030293431454896925,0.02380012391284108,0.045058308257907624
1782811008362079200,1.033079345703125,-0.12910627238452435,0.03506188796572387,0.04763210426867008
1782811008372150000,1.04314990234375,-0.17565701115727422,0.026879714021272955,0.02981120089590549
1782811008382221000,1.053220947265625,-0.17830606436133384,0.020002996652200816,-0.0024359949752688404
1782811008392292000,1.0632919921875,-0.16855623924136162,-0.013914287855662405,-0.05867708376571536
1782811008402364000,1.073364013671875,-0.10668342817425727,-0.03807020293623209,-0.09845233705416322
1782811008412435000,1.08343505859375,-0.002454991936683655,-0.06939747095089405,-0.0919281959824264
1782811008422506000,1.093506103515625,0.14558920515179632,-0.07941124423667788,-0.03669569971263408
1782811008432578000,1.103578125,0.20487375329136848,-0.048758441417478024,0.02277019634321332
1782811008442649000,1.113649169921875,0.14358137246072292,0.006007971710525453,0.0751380969621241
1782811008452719900,1.123719970703125,0.07360708800256252,-0.003938289296999574,0.042051966048777104
1782811008462791000,1.133791015625,0.022892215287685393,-0.020081687911599873,0.010814824002981185
1782811008472863000,1.143863037109375,-0.040511458608508105,-0.025674064558558165,-0.020678192500025033
1782811008482934000,1.15393408203125,-0.05388999561965465,-0.04099628298338502,-0.03095715606063604
1782811008493005000,1.164005126953125,-0.03655716802477836,-0.06887479878365993,-0.0801473034262657
1782811008503076000,1.174076171875,-0.04555646703839302,-0.11724398515522479,-0.11297025335878133
1782811008513148200,1.184148193359375,-0.05044307003617286,-0.13653441309127956,-0.14783596116527914
1782811008523219200,1.19421923828125,0.07617080101072787,-0.14459149935133755,-0.13811156274750827
1782811008533290000,1.2042900390625,0.15968728860914705,-0.09481346909515559,-0.11259952035024762
1782811008543362000,1.214362060546875,0.11369243015348911,-0.05041841051895171,-0.0530558828830719
1782811008553432800,1.224432861328125,-0.02293430086374283,-0.058109695673920214,-0.031887568778544664
1782811008563503900,1.23450390625,-0.05211480264067649,-0.03769340551309287,-0.021175328367203473
1782811008573575000,1.244574951171875,-0.025152561435103415,-0.03532185407616198,-0.038229923542588945
1782811008583647000,1.25464697265625,0.026346739655733108,-0.010009572034701705,-0.03251578367948532
1782811008593718000,1.264718017578125,0.03484977958500385,-0.003526493625715375,0.0020863047547638415
1782811008603789000,1.2747890625,0.00979249521791935,-0.025042159863188862,-0.052381198491901156
1782811008613861000,1.284861083984375,-0.030623686322569846,-0.04391041686441749,-0.06533201161026954
1782811008623932200,1.29493212890625,-0.08105155878961086,-0.038490474174916744,-0.11501301123276352
1782811008634003000,1.3050029296875,-0.06631926908195018,-0.03681651308070868,-0.13190525545328854
1782811008644074000,1.315073974609375,-0.03893500307202339,-0.01894110304173082,-0.13822159899324177
1782811008654146000,1.32514599609375,-0.026820786908268928,-0.027266996305808422,-0.13750599806979297
1782811008664217000,1.335217041015625,0.07171908229887484,-0.022854038701765236,-0.139000766672194
1782811008674288000,1.3452880859375,0.20662673443853855,-0.050448732591979205,-0.1281217913918197
1782811008684359200,1.355359130859375,0.1996177324593067,-0.016434782776609064,-0.08133651321083307
1782811008694431000,1.365430908203125,0.035492169141769406,0.004891644499078393,-0.06791837484166026
1782811008704502000,1.375501953125,-0.08332944059371948,0.013994842278584838,-0.0725099404156208
1782811008714572800,1.38557275390625,-0.07216799511015415,-0.0031170725746080276,-0.11292889843508601
1782811008724645000,1.39564501953125,-0.004610708665847778,-0.017916436169110237,-0.09977803269997239
1782811008734716000,1.4057158203125,0.05969429798424244,-0.028988961260206995,-0.11756517993360757
1782811008744787000,1.415786865234375,0.12101999656260012,-0.0448556252926588,-0.10080138439834117
1782811008754858000,1.42585791015625,0.14282441661357878,-0.05497775432374328,-0.08022212222814559
1782811008764930000,1.435929931640625,0.0964648164987564,-0.059094395862333476,-0.07494783508703112
1782811008775001000,1.4460009765625,0.05813479358255863,-0.04567749960217625,-0.07923691058307886
1782811008785072000,1.456072021484375,0.08330781328380107,-0.060379174975864584,-0.03025675270631909
1782811008795144200,1.466144287109375,0.10430442408323287,-0.04401069890111685,0.017169161465764044
1782811008805215700,1.4762158203125,-0.02083236014842987,-0.018960501861944794,0.013212532794475554
1782811008815286500,1.48628662109375,-0.1049222637206316,-0.026801899544708428,-0.004843056116998195
1782811008825357600,1.496357666015625,-0.05647299785017967,-0.04307590226903558,-0.0034602234564721584
1782811008835429600,1.5064296875,-0.006142740538716316,-0.059145030071027574,0.03806859550103545
1782811008845500700,1.516500732421875,0.012077975806593894,-0.07906188280973583,0.05368994300290942
1782811008855571700,1.52657177734375,-0.031714404168725015,-0.08644501533098518,0.032060733388364314
1782811008865642800,1.536642822265625,-0.04533785585165023,-0.08357022707965224,0.04638078903332352
1782811008875714800,1.54671484375,-0.07529109556674957,-0.06266524008642882,0.06450374409258365
1782811008885785900,1.556785888671875,-0.03791676594018936,-0.05969663607180118,0.07127440727129578
1782811008895856600,1.566856689453125,0.04510638518333435,-0.07624660619329661,0.06598696838766337
1782811008905929000,1.576928955078125,0.09580839841663837,-0.09381517877280711,0.07862769264355302
1782811008915999700,1.586999755859375,0.10722001926898955,-0.09009075142219662,0.12346242127865552
1782811008926070800,1.59707080078125,0.08238660678565501,-0.08114197701942175,0.11269961972385645
1782811008936141800,1.607141845703125,0.07232873862981797,-0.10453841550219803,0.09892200039252638
1782811008946213600,1.617213623046875,0.10837211191356182,-0.11608864110764115,0.12676043991073965
1782811008956284700,1.62728466796875,0.10837386547923088,-0.08643602830693126,0.1366961429916322
1782811008966355700,1.637355712890625,0.10091595068871974,-0.06828505272958427,0.13183102117329834
1782811008976427800,1.647427734375,0.0650941112011671,-0.07083923072442412,0.07787731266766786
1782811008986498800,1.657498779296875,0.07879530429542064,-0.11881938124578445,0.03766030696108937
1782811008996569600,1.667569580078125,0.047487727361917496,-0.12427329927012323,0.016905688223987816
1782811009006640600,1.677640625,-0.11172434495091438,-0.12231562586370855,-0.025307898127287624
1782811009016712700,1.687712646484375,-0.2658569220423698,-0.12398914856649934,-0.06503624353408813
1782811009026783700,1.69778369140625,-0.2577525260418653,-0.1138732666131109,-0.05562222623974084
1782811009036854800,1.707854736328125,-0.15394903721809386,-0.11309033607449381,0.01722366813197732
1782811009046925800,1.71792578125,-0.09949497797489165,-0.10392952635623515,0.07604512880444526
1782811009056998000,1.727997802734375,-0.08328677049577236,-0.054887263028696176,0.06057078855782747
1782811009067069000,1.73806884765625,-0.07869652009606361,-0.06057067895997315,0.014943886631727217
1782811009077139700,1.7481396484375,0.0056885670304298395,-0.07414722276125103,-0.025769670420140025
1782811009087211800,1.758211669921875,0.13592472022771834,-0.07574526907503605,-0.04264394059255719
1782811009097282600,1.768282470703125,0.1305640699774027,-0.0719556675337255,-0.05496551589667797
1782811009107353600,1.778353515625,0.10952186647057532,-0.07167093230821192,-0.11399740444943308
1782811009117424600,1.788424560546875,0.11141864000260829,-0.06623352702725678,-0.11826105324327946
1782811009127496700,1.79849658203125,0.0879687908321619,-0.05952299653794616,-0.12007818566784262
1782811009137567700,1.808567626953125,0.0154021517932415,-0.05772705303188413,-0.13662337001636624
1782811009147638800,1.818638671875,-0.03493862691223621,-0.06508647588398307,-0.15274258403778077
1782811009157709800,1.828709716796875,-0.037810967478156085,-0.06634023880474268,-0.13130319790691136
1782811009167782000,1.838781982421875,-0.06773498109877109,-0.056040159390866755,-0.09547010637298226
1782811009177852700,1.848852783203125,-0.0464636450111866,-0.029461072283983227,-0.05151362187713384
1782811009187923700,1.858923828125,-0.01814063684642315,-0.04316065794304013,-0.05230068060159683
1782811009197995800,1.868995849609375,0.06402385162115097,-0.056346010469645255,-0.03620280162915587
1782811009208066800,1.87906689453125,0.0870668735563755,-0.06462769926581531,-0.02745645446330309
1782811009218137900,1.889137939453125,0.08294190258085728,-0.07495134221836924,0.005574877522885799
1782811009228209000,1.899208984375,0.031280104404687877,-0.09810801712851971,0.014382745617628097
1782811009238280700,1.90928076171875,-0.07616904744505881,-0.08913823647033423,0.042414808011800045
1782811009248351700,1.919351806640625,-0.13484744638502597,-0.07846073857881128,0.06363280647695065
1782811009258422800,1.9294228515625,-0.1588362247377634,-0.08506747990008443,0.056754591270536184
1782811009268493600,1.93949365234375,-0.172813312163949,-0.0911389818334952,0.059769701308012006
1782811009278565600,1.949565673828125,-0.1415863992512226,-0.11391491379775107,0.024171879834681748
1782811009288636700,1.95963671875,-0.12874854498803615,-0.133193614763394,0.01672755517810583
1782811009298707700,1.969707763671875,-0.07580956648290157,-0.14732527169678358,0.012766688723117113
1782811009308779800,1.97977978515625,-0.05186988796889782,-0.1267345017518848,0.03675838968530297
1782811009318850800,1.989850830078125,-0.015989596292376517,-0.08295143759418279,0.0742401252090931
1782811009328921900,1.999921875,0.032786417314410204,-0.07267839231770486,0.0768244426138699
1782811009338993000,2.009992919921875,0.1025298156261444,-0.06478990409020334,0.05251973017975688
1782811009349064700,2.020064697265625,0.11562369047701358,-0.020583426888659596,0.05496317780911922
1782811009359135700,2.0301357421875,0.1068698906570673,-0.027415063006989655,0.025676439178735015
1782811009369206800,2.040206787109375,0.1478834535688162,-0.022717808568850157,0.0034349428847432134
1782811009379278600,2.050278564453125,0.1419832896143198,-0.04047006715219468,-0.04447656284719705
1782811009389349600,2.060349609375,0.09413082059323787,-0.05006283854693174,-0.0684608111552894
1782811009399420700,2.070420654296875,0.04231470863819122,-0.03494881951268762,-0.0937590646713972
1782811009409491700,2.08049169921875,-0.015441314759850501,-0.02206223073694855,-0.10790040274858474
1782811009419563800,2.090563720703125,-0.06275193198919296,0.0018735387869179248,-0.08428352644816041
1782811009429634800,2.100634765625,-0.09426409158408641,0.009320128465816377,-0.10279460404217243
1782811009439705900,2.110705810546875,-0.12430325601696968,-0.009954517379216848,-0.1460777193211019
1782811009449776600,2.120776611328125,-0.1171697508752346,-0.021366247829422355,-0.17373758740201592
1782811009459848700,2.1308486328125,-0.019879589468240737,-0.01869012395534664,-0.16263897802159188
1782811009469919700,2.140919677734375,0.08893909716904162,-0.026624387553334235,-0.13378522398099302
1782811009479990800,2.15099072265625,0.18584347412884233,-0.013685118742287158,-0.07153203529417515
1782811009490061800,2.161061767578125,0.20204232925772667,-0.0046224356362596156,-0.012114654555171727
1782811009500133600,2.171133544921875,0.14026947143375873,0.003082768446207046,-0.03327142435237765
1782811009510204700,2.18120458984375,0.08530863171219825,-0.012734978410601614,-0.08793561921492218
1782811009520275700,2.191275634765625,-0.04479775762557983,-0.07430018483325838,-0.13961743726581335
1782811009530347800,2.20134765625,-0.039077626413106914,-0.09826711668036878,-0.1823664456680417
1782811009540418600,2.21141845703125,0.061191843065619464,-0.10501023426502942,-0.1406837513230741
1782811009550489600,2.221489501953125,0.07049743154942989,-0.07368775202333927,-0.06268252001479267
1782811009560560600,2.231560546875,-0.042054011875391005,-0.03737264912612736,-0.009711100544780492
1782811009570632700,2.2416328125,-0.07076397353112697,-0.04250445905663073,0.03750847740024328
1782811009580703700,2.251703857421875,-0.052011926788091654,-0.0807196964867413,0.046953620485216375
1782811009590774800,2.26177490234375,-0.08756196359694003,-0.08529321494735777,0.0671301470734179
1782811009600846800,2.271846923828125,-0.19652736522853373,-0.06339030295796692,0.06870879456698895
1782811009610918000,2.28191796875,-0.2024012256979942,-0.06125036831982433,0.08068024125918745
1782811009620989000,2.291989013671875,-0.1308159989118576,-0.061203314307704565,0.12508023173883556
1782811009631059700,2.302059814453125,-0.07060206096768379,-0.04381415341570973,0.1523182211458683
1782811009641131500,2.312131591796875,0.010914192724227905,-0.04600004608742893,0.11359569178074598
1782811009651202600,2.32220263671875,0.02229015774130821,-0.06139576813988387,0.05638093565255403
1782811009661273600,2.332273681640625,-0.01175181259214878,-0.08573810917064548,-0.016420096664130687
1782811009671344600,2.3423447265625,-0.020398644906282425,-0.11121106166653334,-0.06844955910891294
1782811009681416700,2.352416748046875,0.05257072971463203,-0.10879114104323089,-0.06509528024494647
1782811009691487700,2.36248779296875,0.12748890031576157,-0.07152575168386101,-0.03147767280340195
1782811009701558800,2.372558837890625,0.14330781621634958,-0.07961246589720249,0.005439706835895776
1782811009711630800,2.382630859375,0.10488836145102977,-0.04849821957871318,0.023518238231539725
1782811009721701600,2.39270166015625,0.09265607186555862,-0.07263985040560364,0.0019010113157331943
1782811009731772700,2.402772705078125,0.06391571507155895,-0.10495207433700561,-0.01676554910093546
1782811009741843700,2.41284375,0.0934194574534893,-0.1211898732367903,-0.02884162521138787
1782811009751915800,2.422915771484375,0.12855799085199832,-0.15401048508174717,-0.0188768421664834
1782811009761986800,2.43298681640625,0.09934767845869064,-0.1377180333852768,-0.01662994002252817
1782811009772057900,2.443057861328125,0.07606792515814303,-0.12506868743151425,0.001329202777147293
1782811009782129000,2.45312890625,-0.004054828348755837,-0.09150514826476573,-0.010031710801273583
1782811009792200700,2.46320068359375,-0.06995908688902855,-0.061280398131906985,-0.006376987686008214
1782811009802271700,2.473271728515625,-0.10891104109585284,-0.048306569464132185,-0.014735066186636685
1782811009812342500,2.483342529296875,-0.09305413127243518,-0.08902677545249461,-0.0469733480989933
1782811009822414600,2.49341455078125,-0.019624737924337388,-0.12864281959123908,-0.10253040014803409
1782811009832485400,2.5034853515625,0.04943126264512539,-0.14785568877905605,-0.12301701559871435
1782811009842556400,2.513556396484375,0.10683715743124485,-0.15811543618254362,-0.11662132321223616
1782811009852627500,2.52362744140625,0.14628653976619244,-0.10372260560728609,-0.06078326226472854
1782811009862699500,2.533699462890625,0.17947861527204512,-0.07852255176864564,0.01879047905728221
1782811009872770600,2.5437705078125,0.12429857984185218,-0.056679553272947665,0.06998612102642655
1782811009882841600,2.553841552734375,0.0823830996543169,-0.05494973380565643,0.10546864555701613
1782811009892912600,2.56391259765625,0.06309855346977711,-0.03189699419401586,0.11262407026961445
1782811009902984700,2.573984619140625,0.0373573784917593,-0.021148294229805468,0.12814488000646232
1782811009913055500,2.584055419921875,-0.0025251345634460447,-0.004340513422340154,0.11812778225243091
1782811009923126500,2.59412646484375,-0.07450900527834892,0.005121946123614907,0.08805953785553575
1782811009933198300,2.6041982421875,-0.12132745507657527,-0.018076704764738678,0.032706337815523144
1782811009943269400,2.614269287109375,-0.17575813344419,-0.030544702802225945,0.023727204807102678
1782811009953340400,2.62434033203125,-0.1713105063855648,-0.04997925191670656,-0.007784224135428667
1782811009963411500,2.634411376953125,-0.09227905524671078,-0.09062010905854403,-0.020810148316621778
1782811009973483500,2.6444833984375,-0.030102292796969413,-0.10320135821215808,-0.05519318717271089
1782811009983554600,2.654554443359375,0.010569909331202507,-0.0865768250171095,-0.06101882458627224
1782811009993625600,2.66462548828125,0.0093763156324625,-0.10047098340019583,-0.08764145857393742
1782811010003696400,2.6746962890625,0.013159341302514076,-0.07298274555914104,-0.07959946028515696
1782811010013768400,2.6847685546875,0.04463876767158508,-0.08306048745922744,-0.024442221208661793
1782811010023839500,2.694839599609375,0.09061901308000087,-0.044384281453862785,0.010822861178964376
1782811010033910500,2.70491064453125,0.12516367223858832,-0.028445027109235525,0.04262523589208722
1782811010043982600,2.714982666015625,0.11850713695883751,-0.03152428842410445,0.07864435151740908
1782811010054053600,2.7250537109375,0.0020037410378456115,-0.03761749073266983,0.06950418272837997
1782811010064124700,2.735124755859375,-0.17179916668534279,-0.06142945121377706,-0.005939911442995071
1782811010074195700,2.74519580078125,-0.22170096945166587,-0.09330138403177261,-0.051949821337312456
1782811010084267500,2.755267578125,-0.17146423564255237,-0.10465060717239975,-0.05901274546086788
1782811010094338300,2.76533837890625,-0.09637012395262717,-0.09170878107808529,-0.04347001615315675
1782811010104409300,2.775409423828125,-0.0043301381587982175,-0.07863762951567768,-0.016947189278155566
1782811010114480400,2.78548046875,0.09386077148020266,-0.04998918878883123,0.014899170707166193
1782811010124552400,2.795552490234375,0.1442886439472437,-0.04773739127404988,0.05125175607055425
1782811010134623500,2.80562353515625,0.10186872136890887,-0.023699001625925302,0.0620724252924323
1782811010144694500,2.815694580078125,0.024998832178115844,0.00400901644565165,0.06928922480344772
1782811010154765600,2.825765625,-0.007912088298797608,0.0012621288903057575,0.07771715366989373
1782811010164837600,2.835837646484375,0.0001765256106853485,-0.02908054853379726,0.056383712131530046
1782811010174908700,2.84590869140625,0.056658291289210315,-0.02702346987351775,0.05355068066269159
1782811010184979500,2.8559794921875,0.10679098020195961,-0.04221957770064473,0.01392404206469655
1782811010195051500,2.866051513671875,0.13036065635979174,-0.06080225922614336,-0.027373452354967593
1782811010205122600,2.87612255859375,0.14221885193586348,-0.08006269388273358,-0.04761179213300347
1782811010215193600,2.886193603515625,0.1289993048787117,-0.06782244018651544,-0.045078035871684546
1782811010225264600,2.8962646484375,0.0179553434073925,-0.02483596976660192,-0.0483525274977088
1782811010235336400,2.90633642578125,-0.08751344828009605,-0.02878821452371776,-0.07544877034649253
1782811010245407500,2.916407470703125,-0.11443594199717044,-0.035533816326409576,-0.070009501902014
1782811010255478500,2.926478515625,-0.06315232948362827,-0.05213387266732752,-0.0754728818744421
1782811010265549300,2.93654931640625,-0.03491524603664875,-0.05892630928643047,-0.04445215905830264
1782811010275621400,2.946621337890625,-0.031922493961453434,-0.03326243732832372,-0.011386632541567087
1782811010285692400,2.9566923828125,-0.012023615270853041,0.0009358195453882217,0.018921850351989268
1782811010295763500,2.966763427734375,0.0792325266689062,-0.021817644858732818,0.044378363169729707
1782811010305835500,2.97683544921875,0.14378361703455447,-0.009007263124361634,0.07537965063303709
1782811010315906600,2.986906494140625,0.11510989573597907,0.0004731704697012901,0.05724836613684892
1782811010325977600,2.9969775390625,0.012233458629250526,0.01115793835222721,0.022769173429906368
1782811010336048600,3.007048583984375,-0.08199614616334437,-0.016220117112621665,0.009687281277775763
1782811010346120700,3.01712060546875,-0.13310498663187026,-0.006699132312461734,-0.04407660374417901
1782811010356191700,3.027191650390625,-0.07991992441117764,-0.009730608962848782,-0.0411250604622066
1782811010366262500,3.037262451171875,0.016207622957229613,-0.007941241328045726,-0.025753596068173644
1782811010376333600,3.04733349609375,0.09135609518289566,-0.024576368982344863,-0.030535569647699594
1782811010386405400,3.0574052734375,0.11155950977802276,-0.02501446813866496,-0.037395810806006194
1782811010396476400,3.067476318359375,0.0746405227035284,-0.060670084213837974,-0.07611936308443545
1782811010406547500,3.07754736328125,0.04668459428548813,-0.08752082786895334,-0.09202274239808321
1782811010416618500,3.087618408203125,0.04385258572995662,-0.07172660801820456,-0.07853314622789621
1782811010426690600,3.097690673828125,0.02535012983381748,-0.062440162626281374,-0.04925605220869183
1782811010436761600,3.10776171875,-0.0036240357160568235,-0.023074293856322765,-0.015594897886365651
1782811010446832400,3.117832275390625,-0.009138415223360062,0.002817395508289337,0.03180938897579908
1782811010456904400,3.127904541015625,0.0394791929513216,-0.015064078945294022,0.03377367478609085
1782811010466975500,3.1379755859375,0.08593348561227321,-0.04684358423948288,0.01842749096378684
1782811010477046500,3.148046630859375,0.030568741264939307,-0.04705532729402184,-0.0011474164694547653
1782811010487117600,3.15811767578125,-0.09407412196993828,-0.04141980562508106,-0.0350479325056076
1782811010497189600,3.168189697265625,-0.12768997584581374,-0.05427168841361999,-0.056574996919929975
1782811010507260700,3.1782607421875,-0.04956804076731205,-0.077119406972453,-0.06088643037825822
1782811010517331700,3.188331787109375,0.03366846084594726,-0.0918991160184145,-0.06678206428810954
1782811010527402800,3.19840283203125,0.12250877381563186,-0.07420081611201167,-0.04069821335226297
1782811010537474600,3.208474609375,0.16476444574296473,-0.07129698442928492,-0.020079349824041127
1782811010547545300,3.21854541015625,0.009021510845422744,-0.0630120442301035,-0.012146657128632068
1782811010557616400,3.228616455078125,-0.09654431147575378,-0.03968852485306561,-0.03540405246689916
1782811010567688400,3.2386884765625,-0.09414484911859035,-0.04481280906423926,-0.0014880466006696224
1782811010577759500,3.248759521484375,-0.0395095880895853,-0.05803937038406729,-0.0013895546622574328
1782811010587830500,3.25883056640625,0.0700046795964241,-0.05622048439383506,-0.008723258551210164
1782811010597901600,3.268901611328125,0.07184767711460589,-0.0666960665050894,-0.04319499860405922
1782811010607973600,3.2789736328125,-0.07680617630481719,-0.06939158919937909,-0.05914966971352696
1782811010618044700,3.289044677734375,-0.12481295910477637,-0.06593874533176422,-0.09561915945485233
1782811010628115500,3.299115478515625,-0.013947861331701278,-0.08586268539838493,-0.07389569568559527
1782811010638186500,3.3091865234375,0.08252923012673855,-0.07116575926505028,-0.012988660910725593
1782811010648258600,3.319258544921875,0.11143500661551951,-0.07220226270593702,0.024617870036512612
1782811010658329600,3.32932958984375,0.06091653325557708,-0.07793123481199145,0.016323066030442715
1782811010668400600,3.339400634765625,-0.004338321465253829,-0.09175481217689811,0.019943594615161417
1782811010678471700,3.3494716796875,-0.040897243055701256,-0.07742291996367276,-0.0019793372489511967
1782811010688543500,3.35954345703125,-0.0077770637422800055,-0.08612798527106642,-0.005616524707525968
1782811010698614500,3.369614501953125,0.017684125250577925,-0.08864946657270192,-0.017482465198636055
1782811010708685600,3.379685546875,0.0435877973139286,-0.10017346175834536,-0.016048925264179704
1782811010718757600,3.389757568359375,0.020633038184046743,-0.08486205698847771,-0.042124885154515505
1782811010728828400,3.399828369140625,-0.03784779235720634,-0.07897687140740453,-0.030030396604537962
1782811010738899500,3.4098994140625,-0.07476385682225227,-0.08378083762302994,-0.04399272485300898
1782811010748970500,3.419970458984375,-0.030433716708421706,-0.10519866950921714,-0.011245616635680198
1782811010759042600,3.43004248046875,0.07152502103149891,-0.12113580496199429,-0.00991699838042259
1782811010769113600,3.440113525390625,0.07639876454770565,-0.08342793253213167,-0.006787468183040619
1782811010779184600,3.4501845703125,0.04767126723527908,-0.0746533091198653,0.006806903535872697
1782811010789255700,3.460255615234375,0.04127484419643879,-0.04999963711760938,0.030576486179977654
1782811010799327500,3.470327392578125,-0.004127893584966659,-0.027467779574915765,0.03833236100375652
1782811010809398500,3.4803984375,0.03164543058574199,-0.026549787947162985,0.052324499868601555
1782811010819469600,3.490469482421875,0.06487783810198307,-0.02357026067972183,0.057425330138951534
1782811010829540400,3.500540283203125,0.06990180374383927,-0.04485094911754131,0.02712313085570931
1782811010839612200,3.510612060546875,0.023471476480364798,-0.07656739911288023,-0.043282823017984626
1782811010849683200,3.52068310546875,0.00679740505516529,-0.07415032803378999,-0.08407719022110104
1782811010859754200,3.530754150390625,-0.01664426080882549,-0.08298420735262334,-0.09495075867399573
1782811010869826300,3.540826416015625,-0.049933951470255845,-0.07074205396026373,-0.11379136048331856
1782811010879897300,3.5508974609375,-0.043318332722783084,-0.04969692784398794,-0.08848448526933789
1782811010889968400,3.560968505859375,-0.015350129345059393,-0.06434329283386468,-0.05163052625507116
1782811010900039400,3.571039306640625,-0.009270517170429229,-0.05699548735432326,-0.025962124252319335
1782811010910111500,3.581111572265625,-0.0261596926510334,-0.05545885237157344,0.003450286584347486
1782811010920182500,3.5911826171875,-0.037273791861534115,-0.06192768305949867,-0.008100012086331845
1782811010930253300,3.60125341796875,-0.016880992174148558,-0.03588431026451289,-0.003167524120211601
1782811010940324400,3.611324462890625,-0.019281039053201676,-0.04189173398576677,0.015535130523145198
1782811010950396400,3.621396484375,-0.0077712185233831405,-0.02806304205432534,0.006918254955857992
1782811010960467500,3.631467529296875,0.029814123505353927,-0.05170125340372324,-0.030419395922124386
1782811010970538500,3.64153857421875,0.0707499450057745,-0.04700337791107595,-0.014954554156213998
1782811010980610300,3.6516103515625,0.0906575915247202,-0.05223623706325888,-0.025023235967010258
1782811010990681300,3.661681396484375,0.09864508314728736,-0.04939516841843724,-0.007864595895260573
1782811011000752400,3.67175244140625,0.06303191797435283,-0.05629946791417897,-0.0011563304282724857
1782811011010823200,3.6818232421875,0.03635024727582931,-0.05095014277547598,-0.013713614184409379
1782811011020895200,3.691895263671875,0.05575111331641674,-0.09015870209187268,0.012965718426555395
1782811011030966300,3.70196630859375,0.046771688047051424,-0.09391104036271572,0.022579642207175493
1782811011041037300,3.712037353515625,0.04414718476235866,-0.057817617392167446,0.031672756984084845
1782811011051108400,3.7221083984375,0.06564589986503123,-0.07620097695328294,0.04319850573539734
1782811011061180400,3.732180419921875,0.043538112953305244,-0.03624444881379604,0.05393675737082958
1782811011071251500,3.74225146484375,-0.007501753932237625,-0.023742767702415585,0.051858197531104086
1782811011081322500,3.752322509765625,-0.07690671406984328,-0.021087430888041853,0.003634557110071182
1782811011091393500,3.7623935546875,-0.11160919413864612,-0.03644311319105327,-0.037245442549884315
1782811011101465300,3.77246533203125,-0.0574783755004406,-0.061390069051459425,-0.020048224033415316
1782811011111536400,3.782536376953125,-0.007950666743516922,-0.0853886381458491,-0.06894421075806022
1782811011121607400,3.792607421875,0.025800796210765836,-0.08149601462148129,-0.10148995118439197
1782811011131679200,3.80267919921875,0.10814414837658405,-0.09214008516743778,-0.11547478352561592
1782811011141750300,3.812750244140625,0.16583704341053962,-0.09301168037019669,-0.09304872444495559
1782811011151821300,3.8228212890625,0.17540917387604713,-0.08070259922146797,-0.06343859907910228
1782811011161892400,3.832892333984375,0.09117021722197532,-0.04405051945485174,-0.027283874375373125
1782811011171964400,3.84296435546875,-0.011339724659919738,-0.03534998419210315,-0.03318929902687669
1782811011182035500,3.853035400390625,-0.07446107448339462,-0.047884033203124995,-0.02616948339268565
1782811011192106200,3.863106201171875,-0.07475976516902447,-0.06200922386310994,-0.020970745705813167
1782811011202177300,3.87317724609375,-0.05821136595010757,-0.07931735540814697,0.0019112404488027094
1782811011212249300,3.883249267578125,-0.017477789023518563,-0.08503339496739208,0.016327596075087786
1782811011222320400,3.8933203125,-0.05891454578340053,-0.10395787566788493,0.013117986378818749
1782811011232391400,3.903391357421875,-0.10967851833701132,-0.10765921440385282,0.0013311024732887745
1782811011242462500,3.91346240234375,-0.1166857667505741,-0.12586575609333814,-0.007536679115146398
1782811011252534300,3.9235341796875,-0.0647673634648323,-0.11786050961837172,0.005175795202702283
1782811011262605300,3.933605224609375,0.05519347943365573,-0.13028108831755816,0.006069967563450336
1782811011272676400,3.94367626953125,0.10108195490539074,-0.11411876580677927,0.005856909334659576
1782811011282747400,3.953747314453125,0.12016133390665054,-0.12650507691018284,0.032126638231426474
1782811011292819200,3.963819091796875,0.10524316623806952,-0.13939517281726002,0.04792334230020642
1782811011302890200,3.97389013671875,0.058787120011448854,-0.1398372174963355,0.06744242789298295
1782811011312961300,3.983961181640625,0.03370002502799034,-0.12053133626282214,0.08804287898167967
1782811011323033300,3.994033447265625,-0.04064472959935665,-0.07780527034476399,0.09889218977615237
1782811011333104400,4.0041044921875,-0.0997410616904497,-0.10858750822991133,0.07234715106934309
1782811011343175400,4.014175537109375,-0.10563304233849048,-0.14062873320020736,0.05102466931641102
1782811011353246500,4.02424658203125,-0.08970423632264136,-0.13630093312896788,0.038531244576722384
1782811011363318500,4.034318603515625,-0.09864040697216987,-0.12238434371836483,0.02699965060651302
1782811011373389300,4.044389404296875,-0.038834465306997294,-0.10943491883948445,0.03704991997778415
1782811011383460400,4.05446044921875,0.019150106149911878,-0.11188260425254702,0.04238514352589846
1782811011393531400,4.064531494140625,0.003102057668566704,-0.07317139999903738,0.0317082666888833
1782811011403603200,4.074603271484375,-0.050743514287471765,-0.028913009947165846,0.033835195714980365
1782811011413674200,4.08467431640625,-0.09113689947426319,-0.04133563447296619,0.08053016526401043
1782811011423745300,4.094745361328125,-0.05373042114377021,-0.014810542575642465,0.08866466414183377
1782811011433816300,4.10481640625,-0.01755143878161907,0.007208031682670116,0.1291080259501934
1782811011443888400,4.114888427734375,-0.05440963557958602,0.039361484855785965,0.15229220992177725
1782811011453959400,4.12495947265625,-0.15868074191510675,0.09302490517795085,0.13518603068962692
1782811011464030200,4.1350302734375,-0.28127894757986066,0.09367007121369242,0.052174423873424525
1782811011474102300,4.145102294921875,-0.25604338403642174,0.10745331656821071,-0.01852452159747481
1782811011484173300,4.15517333984375,-0.21178163298368452,0.02910181051753461,-0.02337999880462885
1782811011494244400,4.165244384765625,-0.27431904543936253,0.0014539982005953788,-0.047991585230827326
1782811011504315400,4.1753154296875,-0.20479601188004015,0.004334960464388132,-0.06672010496780276
1782811011514387500,4.185387451171875,-0.06807751092612743,0.019723741319403052,-0.042119039935618635
1782811011524458500,4.19545849609375,-0.006258475872874259,0.07825776335261762,-0.05987447685673832
1782811011534529500,4.205529541015625,0.028968904852867124,0.11197539710253476,-0.10497121742889284
1782811011544600300,4.215600341796875,0.07788578823506832,0.16948694422021507,-0.1140299915447831
1782811011554672000,4.225672119140625,0.19270459206998347,0.11989471885971724,-0.13003200892731548
1782811011564743200,4.2357431640625,0.31323300572335716,0.08368293020650744,-0.20727496921420097
1782811011574814200,4.245814208984375,0.44780221968889233,0.06297821502573787,-0.21850085823610424
1782811011584885200,4.25588525390625,0.54963586974442,0.011981018238142132,-0.188575383310765
1782811011594957300,4.265957275390625,0.5965174479067326,-0.019999562586098907,-0.18248568813353777
1782811011605028400,4.2760283203125,0.5068202258467674,-0.07192066928558051,-0.2311477199718356
1782811011615099400,4.286099365234375,0.4188900134593248,-0.07310644500404596,-0.23277444439083336
1782811011625170400,4.29617041015625,0.37799160135984416,-0.09796521112434566,-0.18190657307133076
1782811011635242500,4.306242431640625,0.291783974981308,-0.11957469312511383,-0.10782558394670486
1782811011645313300,4.316313232421875,0.23596271903812885,-0.10177410188801586,-0.01246463703662157
1782811011655384300,4.32638427734375,0.10642273141145706,-0.14974983196258543,0.009596972645819187
1782811011665456400,4.336456298828125,-0.00836158563196659,-0.19608590507134793,0.048464901831001043
1782811011675527400,4.34652734375,-0.030872108125686644,-0.2115323343977332,0.06084858258590102
1782811011685598500,4.356598388671875,-0.018164602243900298,-0.25838855892308055,0.07672565841451287
1782811011695669500,4.36666943359375,-0.030033319213986394,-0.25978140152096746,0.14022387872636316
1782811011705741300,4.3767412109375,-0.08527297587692736,-0.23483283822536466,0.18807342513799666
1782811011715812400,4.386812255859375,-0.1753326015084982,-0.193427718712762,0.20366116263121364
1782811011725883100,4.396883056640625,-0.22049334722757338,-0.17649674991704523,0.19565920409187673
1782811011735954200,4.4069541015625,-0.28615912083685396,-0.17368965660706162,0.19348741301074623
1782811011746026200,4.417026123046875,-0.3097574385672808,-0.18542634469531474,0.08371493277996778
1782811011756097300,4.42709716796875,-0.3106675391495228,-0.18827669262513516,-0.03991714597716927
1782811011766168300,4.437168212890625,-0.3447954342007637,-0.11364128448814154,-0.09970423681139945
1782811011776239400,4.4472392578125,-0.2909557074636221,-0.10741985269002616,-0.1562863941244781
1782811011786311400,4.4573115234375,-0.054854456737637516,-0.059016325657442206,-0.10705869122743605
1782811011796382500,4.467382568359375,0.16031623416244983,-0.020773396502807736,-0.05098828282877803
1782811011806453500,4.47745361328125,0.2441694063693285,-0.02749598275609314,-0.0383214012183249
1782811011816524500,4.487524658203125,0.21167934165298938,-0.03291347776018083,-0.07755202623605728
1782811011826596600,4.4975966796875,0.06836451117396354,-0.018334844244271516,-0.15951836178302764
1782811011836667400,4.50766748046875,-0.10014964249134063,-0.029698461236432192,-0.17580168032497168
1782811011846738400,4.517738525390625,-0.12545359509587287,-0.010036460041627287,-0.20490137195065616
1782811011856810200,4.527810302734375,-0.10133856001496315,0.017867372862994668,-0.1715840626299381
1782811011866881300,4.53788134765625,-0.013642156383395195,0.03769479375258088,-0.06595379677042365
1782811011876952300,4.547952392578125,0.0671896221756935,0.06294044029861688,0.030978491109609603
1782811011887023400,4.5580234375,0.15698212130367756,0.0211289319422096,0.11874708319455385
1782811011897095400,4.568095458984375,0.23447160369753836,-0.03149126293733716,0.1506527721516788
1782811011907166500,4.57816650390625,0.20981062517166135,-0.08219174180068076,0.1094366724051535
1782811011917237200,4.5882373046875,0.1406371357023716,-0.1185219692017883,0.06809241623431443
1782811011927308300,4.598308349609375,0.1867167498320341,-0.13653452268913388,0.11058452726602554
1782811011937380400,4.60838037109375,0.29084172569513317,-0.14584120715148746,0.2630209679640829
1782811011947451400,4.618451416015625,0.30758301713764663,-0.07997391962073742,0.4053714834555983
1782811011957522400,4.6285224609375,0.2615408124089241,-0.09200761789418757,0.558706334298104
1782811011967593500,4.638593505859375,0.20605799463987348,-0.08709712256416678,0.6066530574738979
1782811011977665500,4.64866552734375,0.196799167907238,-0.09127017046511172,0.5870116606757044
1782811011987736600,4.658736572265625,0.09767477681040763,-0.14324139991663395,0.4883855744898319
1782811011997807600,4.6688076171875,-0.022367899152636525,-0.14031630625016986,0.40740240476131434
1782811012007878400,4.67887841796875,0.008076338949799537,-0.12027633858844637,0.37394890184029933
1782811012017950200,4.6889501953125,-0.007877016985416412,-0.07765307545773685,0.2609473765604198
1782811012028021200,4.699021240234375,-0.2784837639033794,-0.03480214105099439,0.016551467958837746
1782811012038092300,4.70909228515625,-0.6166974816262721,0.04131700283773243,-0.14471505266577003
1782811012048163300,4.719163330078125,-0.8874941981583833,0.04701631045788526,-0.2886532757401466
1782811012058235400,4.7292353515625,-0.8412269525021314,0.054125338745489714,-0.2960508386455476
1782811012068306400,4.739306396484375,-0.5260550876706839,0.058684828680753705,-0.31569077413901686
1782811012078377500,4.74937744140625,-0.08171265304684638,0.059251157326623796,-0.30026421855688096
1782811012088449500,4.759449462890625,0.21868775911033153,0.02043305863253772,-0.33098552003502846
1782811012098520600,4.7695205078125,0.33044133015573024,-0.005467910017073154,-0.36835444283410906
1782811012108591400,4.77959130859375,0.2827379142165184,-0.010354732210561633,-0.4126077183194458
1782811012118662400,4.789662353515625,0.19547697939276695,0.0027787439983338116,-0.4125581800892949
1782811012128734500,4.799734375,0.1809784984409809,-0.009449673129618167,-0.391572967466712
1782811012138805500,4.809805419921875,0.2565677001714706,-0.047943946696817875,-0.3392778398230672
1782811012148876500,4.81987646484375,0.3136673054873943,-0.07213818449378014,-0.29108386388793583
1782811012158947600,4.829947509765625,0.3031155163347721,-0.048653337075188756,-0.29254136921986934
1782811012169019400,4.840019287109375,0.30799335150420665,-0.030136633457988497,-0.21086437200829386
1782811012179090400,4.85009033203125,0.24086685769259927,-0.05319627773445099,-0.12102964117377996
1782811012189161200,4.8601611328125,0.07008592813909054,-0.07678743507172912,-0.13748495528176427
1782811012199232300,4.870232177734375,0.0371744231402874,-0.07541895973011851,-0.13517054085955024
1782811012209304300,4.88030419921875,0.14623627088367938,-0.07275858141444623,-0.005297668016701936
1782811012219375400,4.890375244140625,0.16079145045876503,-0.1053941920813173,0.052532735791802405
1782811012229446400,4.9004462890625,0.15454232693612574,-0.14263612749986349,0.06772182935625315
1782811012239517400,4.910517333984375,0.047587680605053896,-0.1652409406809136,0.046443625136464835
1782811012249589500,4.920589599609375,-0.10661387006938457,-0.1901434363450855,-0.010131956305354833
1782811012259660500,4.93066064453125,-0.22548925581872462,-0.23664982451945543,-0.005174918419867754
1782811012269731300,4.9407314453125,-0.35263504178524013,-0.16791191345583648,-0.10733487782031297
1782811012279803400,4.950803466796875,-0.37386721490621566,-0.126907849024795,-0.10208046442344784
1782811012289874400,4.96087451171875,-0.24176351427137852,-0.10740030773933976,0.022407646641135214
1782811012299945500,4.970945556640625,-0.0728536392867565,-0.11442165774349122,0.10309490216299891
1782811012310016500,4.9810166015625,0.021026421415805817,-0.13844057550616562,0.08340279809087514
1782811012320088300,4.99108837890625,0.06752046156525611,-0.18545396335460246,-0.02189575159624219
1782811012330159400,5.001159423828125,0.08744330565333366,-0.17329550619032233,-0.09198913238942623
1782811012340230400,5.01123046875,0.13821604603528975,-0.07731025336943566,-0.07955152949020267
1782811012350301400,5.021301513671875,0.24092472535967827,0.04539250864833593,0.17406579644307493
1782811012360373500,5.03137353515625,0.23948154081404208,0.07289393476452678,0.4021180346176028
1782811012370444300,5.0414443359375,0.22356734784543514,-0.040493301897309715,0.2829147320881486
1782811012380515300,5.051515380859375,0.2554132694393396,-0.18791808844581245,0.01631385981068015
1782811012390586400,5.06158642578125,0.16705694059431553,-0.23705325422119347,-0.22211013477444647
1782811012400658400,5.071658447265625,-0.046404023778438566,-0.22578334339447317,-0.29526188022494315
1782811012410729500,5.0817294921875,-0.1642214249074459,-0.1456206962686032,-0.24563947892189025
1782811012420800500,5.091800537109375,-0.2703501418083906,-0.03834277279991656,-0.14220233919247985
1782811012430871600,5.10187158203125,-0.31194939565360547,-0.02087280175667256,-0.07703340918943286
1782811012440943400,5.111943359375,-0.2630705061942339,-0.01564206149633974,-0.056774318884313106
1782811012451014400,5.122014404296875,-0.19616905331015586,-0.01811769436225295,-0.034440029740333555
1782811012461085400,5.13208544921875,-0.12394377505481242,-0.03904807152505964,-0.0482040589377284
1782811012471156500,5.142156494140625,-0.06825812819004058,-0.0414794633904472,-0.0376753583997488
1782811012481228300,5.152228271484375,0.00003565583527088165,-0.06014511049166321,-0.014713000485301017
1782811012491299300,5.16229931640625,0.09670680856108665,-0.06579648731686175,0.0492902467392385
1782811012501370400,5.172370361328125,0.1734668076366186,-0.06124861475415527,0.10324439363628625
1782811012511441400,5.18244140625,0.1791308247476816,-0.05140296457689255,0.12228607097566127
1782811012521513500,5.192513427734375,0.1300233872294426,-0.039977863188460465,0.06023088907897472
1782811012531584500,5.20258447265625,-0.01269113926887512,-0.07647011275086552,0.0288708513058722
1782811012541655300,5.2126552734375,-0.1391898595035076,-0.048361624119617044,0.00033113165050745007
1782811012551727400,5.222727294921875,-0.20248715041577814,-0.06365958488602191,-0.026657266909629104
1782811012561798400,5.23279833984375,-0.17704174351394175,-0.04093644255492836,0.020463526836037634
1782811012571869400,5.242869384765625,-0.09509995788633822,-0.031216976040601727,0.05246960742771625
1782811012581940500,5.2529404296875,0.009487374791502952,-0.04002502679843455,0.06945055284500122
1782811012592012300,5.26301220703125,0.061114101654291146,-0.05075177065916359,0.03673895433247089
1782811012602083300,5.273083251953125,0.06835866595506668,-0.048445977934822436,-0.03099500385299325
1782811012612154400,5.283154296875,-0.016250293055176734,-0.05776281846500933,-0.07880275694951415
1782811012622225400,5.293225341796875,-0.041237434795498844,-0.03549319205507636,-0.062341451492160554
1782811012632297500,5.30329736328125,0.020536592072248457,-0.015090930419601498,-0.03060658905729651
1782811012642368300,5.3133681640625,0.04594458957314491,-0.04066189992986619,0.010541267758607864
1782811012652439300,5.323439208984375,0.07105272734463214,-0.05975698795691132,-0.00665171297416091
1782811012662510300,5.33351025390625,0.10814765550792217,-0.07650423421617597,-0.046137920188158744
1782811012672582400,5.34358251953125,0.1137193181604147,-0.05910626896321773,-0.07060454518571496
1782811012682653400,5.3536533203125,0.10761983224153518,-0.04403722158186137,-0.019890403123199937
1782811012692724500,5.363724365234375,0.04592413130700588,-0.025286161219514904,-0.004683773902058601
1782811012702795500,5.37379541015625,0.05655716900229454,-0.011106719621643424,0.01640431457310915
1782811012712867600,5.38386767578125,0.02052080998122692,-0.029254407263360916,-0.01923456956297159
1782811012722938400,5.3939384765625,-0.008099135303497314,-0.03919113325756043,-0.019186931028962136
1782811012733009400,5.404009521484375,-0.03418810080587864,-0.008911547664925456,-0.03095408732071519
1782811012743080400,5.41408056640625,-0.061546647852659224,-0.02172759195510298,-0.022673019579052923
1782811012753152300,5.42415234375,-0.0033376199901103973,-0.052720951840281485,-0.0007682078935205936
1782811012763223300,5.434223388671875,0.03288403246998787,-0.056155803393479434,-0.001875146222114563
1782811012773294300,5.44429443359375,0.023682488882541656,-0.04894194475822151,-0.02593611302822828
1782811012783365400,5.454365478515625,0.0012456161469221114,-0.0689059793732129,0.008002396930754184
1782811012793437400,5.4644375,-0.01751052224934101,-0.05351489696325734,0.006535831509530544
1782811012803508200,5.47450830078125,-0.07155424712598324,-0.02702076645977795,-0.050037265714257956
1782811012813579500,5.48457958984375,-0.08549860132634639,-0.019751597440708427,-0.05443213967233896
1782811012823650600,5.494650634765625,-0.11924071193039416,-0.0078313694790937,-0.05337663927003741
1782811012833722600,5.50472265625,-0.09717033441960811,-0.04010572735182941,-0.08372969195768237
1782811012843793700,5.514793701171875,-0.11075871478915214,-0.05629851806610822,-0.09083689361438155
1782811012853864700,5.52486474609375,-0.13081424534618855,-0.0484791678183712,-0.07000351055264473
1782811012863936800,5.534936767578125,-0.06506956128180026,-0.057104719882458445,-0.022234774292260406
1782811012874007800,5.5450078125,0.02717792978286743,-0.03580072363428771,0.016200608694553375
1782811012884078600,5.55507861328125,0.06496960803866386,-0.009348952701501548,0.04133797256052494
1782811012894149600,5.565149658203125,0.10525427215397358,-0.019990246768482028,0.04182400251179933
1782811012904221400,5.575221435546875,0.20995500207841394,-0.05453897931398823,0.04533376419842243
1782811012914292500,5.58529248046875,0.2062573166042566,-0.041432244981545956,0.019774375528097153
1782811012924363500,5.595363525390625,0.08600070562958717,-0.05057758313603699,-0.018596856181323528
1782811012934434600,5.6054345703125,0.006464227578043938,-0.047727509200852364,-0.005374971036612987
1782811012944506600,5.615506591796875,-0.038943770900368685,-0.046156478758156295,0.024582652592658995
1782811012954577700,5.62557763671875,-0.0332575419574976,-0.05766850951137021,0.013611615114659071
1782811012964648700,5.635648681640625,-0.05116729265749454,-0.05144174395101145,-0.015258797799795866
1782811012974719500,5.645719482421875,0.025140870997309682,-0.0597534442929551,0.021960195134580134
1782811012984791600,5.65579150390625,0.08114391324818133,-0.045653461139462885,0.0541927779585123
1782811012994862600,5.665862548828125,-0.04556991104185581,-0.04845480056209489,0.05097805369570851
1782811013004933600,5.67593359375,-0.07158581130802631,-0.03771466749683022,0.023349311405420303
1782811013015004700,5.686004638671875,-0.11553893480300903,-0.06347158803325147,0.007691577415913343
1782811013025076700,5.69607666015625,-0.20029577785134314,-0.09135728249298408,-0.09483721529692411
1782811013035147800,5.706147705078125,-0.30638533178567884,-0.08183675435055046,-0.12984364674836396
1782811013045221600,5.7162216796875,-0.39741175662279127,0.0006327814782038331,-0.05197217929959297
1782811013055292700,5.726292724609375,-0.4111117806732654,0.03951581690097227,0.03072641604468226
1782811013065363700,5.73636376953125,-0.184229024669528,-0.009495448500104248,0.028117694851011035
1782811013075435500,5.746435546875,0.1953442929238081,-0.07762973111476748,-0.011328472613543271
1782811013085506600,5.756506591796875,0.1762514699190855,-0.05012640530243516,-0.037845454269647597
1782811013095577600,5.76657763671875,0.380951620209217,-0.0034710736440494655,0.05063698517307639
1782811013105648600,5.776648681640625,0.046536125725507735,0.009645250500645488,-0.04526435222402215
1782811013115720400,5.786720458984375,-0.029261165797710417,-0.05974213744765147,-0.13450053264349698
1782811013125791500,5.79679150390625,-0.2127946094185114,-0.09558825285993516,-0.18220467923507094
1782811013135862500,5.806862548828125,-0.15658523094058036,-0.11108012876324355,-0.17909721473902462
1782811013145933600,5.81693359375,-0.060111646613478655,-0.11113319239104166,-0.1331470722079277
1782811013156005600,5.827005615234375,-0.043910453397035594,-0.07184384118970483,0.029744711530953642
1782811013166076700,5.83707666015625,0.1835229222267866,0.01027856170181185,0.2015140675999224
1782811013176147700,5.847147705078125,0.39480303542912004,0.027168394769541918,0.21229732742086052
1782811013186218500,5.857218505859375,0.4311398387014866,-0.0754769369950518,0.06595204320475459
1782811013196290600,5.86729052734375,0.6450082148313522,-0.10329173990935087,0.07408376560360193
