time,seconds_elapsed,z,y,x
1782811007405307600,0.0763076171875,0.006452902220189571,-0.03507169708609581,0.08387243002653122
1782811007415378700,0.086378662109375,0.021623490378260612,-0.04202555865049362,0.060305748134851456
1782811007425449700,0.09644970703125,0.026383625343441963,-0.052925609052181244,0.047176629304885864
1782811007435521500,0.106521484375,0.031208958476781845,-0.0585673563182354,0.03966299816966057
1782811007445592600,0.116592529296875,0.03604179620742798,-0.04930514842271805,0.03579794988036156
1782811007455663600,0.12666357421875,0.03929820656776428,-0.03969287872314453,0.03661542758345604
1782811007465734700,0.136734619140625,0.04115762561559677,-0.045291103422641754,0.024843990802764893
1782811007475806700,0.146806640625,0.04855721816420555,-0.058489732444286346,0.007055673282593489
1782811007485877500,0.15687744140625,0.057483598589897156,-0.06847978383302689,-0.005281420424580574
1782811007495948500,0.166948486328125,0.06409835815429688,-0.07880859076976776,-0.01681716926395893
1782811007506020600,0.1770205078125,0.06269300729036331,-0.06807711720466614,-0.0110921710729599
1782811007516091600,0.187091552734375,0.06553076952695847,-0.04290499910712242,-0.008090891875326633
1782811007526162700,0.19716259765625,0.06271873414516449,-0.03616933152079582,-0.011499471962451935
1782811007536233700,0.207233642578125,0.06233954802155495,-0.04178460314869881,-0.02163766697049141
1782811007546305500,0.217305419921875,0.05814240500330925,-0.036354683339595795,-0.02014709636569023
1782811007556376600,0.22737646484375,0.050995174795389175,-0.024037709459662437,-0.01632450334727764
1782811007566447600,0.237447509765625,0.046664342284202576,-0.021074144169688225,-0.01691306196153164
1782811007576519400,0.24751953125,0.04250837862491608,-0.021283242851495743,-0.017264580354094505
1782811007586590500,0.257590576171875,0.0422401987016201,-0.015989944338798523,-0.021912595257163048
1782811007596661500,0.26766162109375,0.039530374109745026,-0.01092991791665554,-0.037710245698690414
1782811007606732500,0.277732666015625,0.04008191451430321,-0.014928653836250305,-0.05416112393140793
1782811007616804600,0.2878046875,0.03629058972001076,-0.018244555220007896,-0.06819245219230652
1782811007626875600,0.297875732421875,0.032600246369838715,-0.0264566782861948,-0.07775000482797623
1782811007636946700,0.30794677734375,0.030761277303099632,-0.022400932386517525,-0.079569511115551
1782811007647017700,0.318017822265625,0.036671362817287445,-0.012218334712088108,-0.07072142511606216
1782811007657089800,0.32808984375,0.033105067908763885,0.005618581548333168,-0.06050093472003937
1782811007667160600,0.33816064453125,0.03270452842116356,0.02313392609357834,-0.04733533039689064
1782811007677231600,0.348231689453125,0.03118562325835228,0.0402253121137619,-0.04822693020105362
1782811007687303400,0.358303466796875,0.02570750005543232,0.05278052017092705,-0.05646701902151108
1782811007697374500,0.36837451171875,0.024261942133307457,0.054577820003032684,-0.0754401758313179
1782811007707445500,0.378445556640625,0.023768991231918335,0.06069296970963478,-0.1044827476143837
1782811007717517600,0.388517578125,0.030753400176763535,0.05688219517469406,-0.1301252692937851
1782811007727588600,0.398588623046875,0.035865601152181625,0.04134291782975197,-0.15239915251731873
1782811007737659600,0.40865966796875,0.04590369388461113,0.0343492291867733,-0.1657743602991104
1782811007747730400,0.41873046875,0.047632087022066116,0.02417542040348053,-0.17450101673603058
1782811007757802800,0.428802734375,0.05473297834396362,0.008453530259430408,-0.17187848687171936
1782811007767873500,0.43887353515625,0.05828696861863136,0.0034395968541502953,-0.1567285656929016
1782811007777944600,0.448944580078125,0.05816781893372536,0.01699041947722435,-0.1255984604358673
1782811007788016600,0.4590166015625,0.05523408204317093,0.034830402582883835,-0.08814828842878342
1782811007798087700,0.469087646484375,0.04955989494919777,0.05002481862902641,-0.06596606224775314
1782811007808158000,0.479157958984375,0.05195380747318268,0.05766170099377632,-0.054014332592487335
1782811007818229000,0.48922900390625,0.05435118451714516,0.06389100104570389,-0.05759374797344208
1782811007828301000,0.499301025390625,0.06839162856340408,0.05024443194270134,-0.07272663712501526
1782811007838372000,0.5093720703125,0.08479111641645432,0.0319608636200428,-0.09606803953647614
1782811007848443100,0.519443115234375,0.09335743635892868,0.020658941939473152,-0.10675343871116638
1782811007858515000,0.529514892578125,0.09892243891954422,0.03892986476421356,-0.09732766449451447
1782811007868586000,0.5395859375,0.09513115882873535,0.06143437325954437,-0.0835798904299736
1782811007878657000,0.549656982421875,0.08964638411998749,0.0888870358467102,-0.07798539102077484
1782811007888728000,0.55972802734375,0.08179431408643723,0.11035158485174179,-0.0818384513258934
1782811007898800000,0.569800048828125,0.06934994459152222,0.12767662107944489,-0.09612252563238144
1782811007908871000,0.579870849609375,0.05860462039709091,0.13683097064495087,-0.11573351174592972
1782811007918942000,0.58994189453125,0.05150751769542694,0.13939586281776428,-0.13172705471515656
1782811007929013000,0.600012939453125,0.04915701225399971,0.13114646077156067,-0.1505313664674759
1782811007939085000,0.6100849609375,0.041630588471889496,0.1253640204668045,-0.16614632308483124
1782811007949156000,0.620156005859375,0.036680303514003754,0.11092223227024078,-0.18143047392368317
1782811007959227100,0.63022705078125,0.03415211662650108,0.09314818680286407,-0.20156748592853546
1782811007969299200,0.64029931640625,0.02842126227915287,0.0623449943959713,-0.22620518505573273
1782811007979370200,0.650370361328125,0.02035555988550186,0.03469265252351761,-0.24263042211532593
1782811007989441000,0.66044091796875,0.01125766895711422,0.030112816020846367,-0.24487893283367157
1782811007999512000,0.670511962890625,0.0044191498309373856,0.03593364730477333,-0.2274688333272934
1782811008009583900,0.680583984375,-0.0036531577352434397,0.030623838305473328,-0.21189066767692566
1782811008019655000,0.690655029296875,-0.008534036576747894,0.025973545387387276,-0.18866027891635895
1782811008029726000,0.700725830078125,-0.008384100161492825,0.021196899935603142,-0.15805257856845856
1782811008039798000,0.710798095703125,0.00111113372258842,0.005413675215095282,-0.13004064559936523
1782811008049869000,0.720869140625,0.015299391001462936,-0.011592738330364227,-0.10040633380413055
1782811008059940000,0.730940185546875,0.03173946216702461,-0.02622651681303978,-0.07671289145946503
1782811008070011100,0.74101123046875,0.048611387610435486,-0.03951728716492653,-0.0572209469974041
1782811008080083200,0.751083251953125,0.056423235684633255,-0.04865799844264984,-0.033119332045316696
1782811008090154000,0.761154052734375,0.06541113555431366,-0.048990894109010696,-0.004406460095196962
1782811008100225000,0.77122509765625,0.08139931410551071,-0.045076560229063034,0.028947528451681137
1782811008110297000,0.781297119140625,0.09316995739936829,-0.045686423778533936,0.05469470098614693
1782811008120368000,0.7913681640625,0.10825415700674057,-0.04778984934091568,0.07593759149312973
1782811008130439200,0.801439208984375,0.12712158262729645,-0.05351831018924713,0.08571246266365051
1782811008140510200,0.81151025390625,0.13923779129981995,-0.0636533796787262,0.0873163715004921
1782811008150582000,0.82158203125,0.15099377930164337,-0.0761055201292038,0.08886793255805969
1782811008160653000,0.831653076171875,0.16779865324497223,-0.06798001378774643,0.09313876181840897
1782811008170723800,0.841723876953125,0.17655673623085022,-0.06807322055101395,0.09972875565290451
1782811008180795000,0.851794921875,0.18452788889408112,-0.06806379556655884,0.10848741978406906
1782811008190867000,0.861866943359375,0.18814419209957123,-0.06716977804899216,0.1215939000248909
1782811008200938000,0.87193798828125,0.18941058218479156,-0.06937998533248901,0.13416872918605804
1782811008211009000,0.882009033203125,0.19177626073360443,-0.06484170258045197,0.15204733610153198
1782811008221081000,0.8920810546875,0.19805637001991272,-0.06198900192975998,0.1663053333759308
1782811008231152000,0.902152099609375,0.20122472941875458,-0.07214417308568954,0.17129316926002502
1782811008241223200,0.91222314453125,0.1981172412633896,-0.08345480263233185,0.17194834351539612
1782811008251294200,0.922294189453125,0.19349506497383118,-0.08307848870754242,0.16875840723514557
1782811008261366000,0.932365966796875,0.18491441011428833,-0.07966923713684082,0.15899862349033356
1782811008271437000,0.94243701171875,0.17095066606998444,-0.0913807600736618,0.13999778032302856
1782811008281508000,0.952508056640625,0.15175965428352356,-0.10811323672533035,0.1107255145907402
1782811008291580000,0.962579833984375,0.13933761417865753,-0.12228471040725708,0.07607991993427277
1782811008301651000,0.97265087890625,0.128665953874588,-0.13077057898044586,0.05198952183127403
1782811008311722000,0.982721923828125,0.1201464980840683,-0.13002809882164001,0.03182646259665489
1782811008321793000,0.99279296875,0.11892319470643997,-0.12112292647361755,0.019520556554198265
1782811008331865000,1.002864990234375,0.11362430453300476,-0.12270910292863846,0.011756910011172295
1782811008341936000,1.01293603515625,0.11204883456230164,-0.12314582616090775,0.007367540616542101
1782811008352007000,1.0230068359375,0.10989700257778168,-0.11752362549304962,0.013337282463908195
1782811008362079200,1.033079345703125,0.10858427733182907,-0.11049149185419083,0.024912524968385696
1782811008372150000,1.04314990234375,0.11191003024578094,-0.09979783743619919,0.04369420185685158
1782811008382221000,1.053220947265625,0.10675089806318283,-0.08632750809192657,0.058969106525182724
1782811008392292000,1.0632919921875,0.0995318666100502,-0.06732425838708878,0.06881960481405258
1782811008402364000,1.073364013671875,0.08860630542039871,-0.04794785752892494,0.07629355788230896
1782811008412435000,1.08343505859375,0.08006554841995239,-0.04334910959005356,0.07182636857032776
1782811008422506000,1.093506103515625,0.07284875214099884,-0.04298357293009758,0.05123145505785942
1782811008432578000,1.103578125,0.07045057415962219,-0.05363328754901886,0.029237471520900726
1782811008442649000,1.113649169921875,0.0723147839307785,-0.05267314240336418,0.023395560681819916
1782811008452719900,1.123719970703125,0.07024949789047241,-0.05514455586671829,0.023324187844991684
1782811008462791000,1.133791015625,0.06676513701677322,-0.05567309260368347,0.0256365817040205
1782811008472863000,1.143863037109375,0.06134241074323654,-0.04652220383286476,0.035595737397670746
1782811008482934000,1.15393408203125,0.05635175108909607,-0.04201545566320419,0.04379705339670181
1782811008493005000,1.164005126953125,0.04342343285679817,-0.037991687655448914,0.044772569090127945
1782811008503076000,1.174076171875,0.030222617089748383,-0.016531631350517273,0.04888656735420227
1782811008513148200,1.184148193359375,0.01595446467399597,-0.004549535922706127,0.04610089957714081
1782811008523219200,1.19421923828125,0.0009220917709171772,-0.004772460553795099,0.03635530173778534
1782811008533290000,1.2042900390625,-0.005665769800543785,-0.01336301863193512,0.024854440242052078
1782811008543362000,1.214362060546875,-0.013150148093700409,-0.016358772292733192,0.02201460488140583
1782811008553432800,1.224432861328125,-0.014766953885555267,-0.009698206558823586,0.0326150506734848
1782811008563503900,1.23450390625,-0.01875130832195282,-0.008410034701228142,0.034436918795108795
1782811008573575000,1.244574951171875,-0.02188611589372158,-0.0071165370754897594,0.02959396131336689
1782811008583647000,1.25464697265625,-0.02001257799565792,-0.010909310542047024,0.026174059137701988
1782811008593718000,1.264718017578125,-0.020898079499602318,-0.016320321708917618,0.02269064448773861
1782811008603789000,1.2747890625,-0.02260815165936947,-0.021259993314743042,0.020849283784627914
1782811008613861000,1.284861083984375,-0.025659866631031036,-0.02293485403060913,0.02858789637684822
1782811008623932200,1.29493212890625,-0.029397454112768173,-0.0155134042724967,0.036450907588005066
1782811008634003000,1.3050029296875,-0.034269969910383224,-0.008283187635242939,0.03891672566533089
1782811008644074000,1.315073974609375,-0.03678853437304497,0.0002159985015168786,0.046299148350954056
1782811008654146000,1.32514599609375,-0.03937845677137375,0.012304886244237423,0.04694070294499397
1782811008664217000,1.335217041015625,-0.04507260397076607,0.011869976297020912,0.03786312788724899
1782811008674288000,1.3452880859375,-0.04961995407938957,-0.0009600680787116289,0.017831895500421524
1782811008684359200,1.355359130859375,-0.048992834985256195,-0.00815686583518982,0.0023382401559501886
1782811008694431000,1.365430908203125,-0.0465637668967247,-0.007116901688277721,0.010055814869701862
1782811008704502000,1.375501953125,-0.045127034187316895,-0.0015773188788443804,0.023733340203762054
1782811008714572800,1.38557275390625,-0.04382608085870743,-0.005605083890259266,0.028205852955579758
1782811008724645000,1.39564501953125,-0.04286937415599823,-0.003749361028894782,0.02301187440752983
1782811008734716000,1.4057158203125,-0.04111861065030098,-0.006048201583325863,0.014433033764362335
1782811008744787000,1.415786865234375,-0.04221993684768677,-0.012581117451190948,0.0021343212574720383
1782811008754858000,1.42585791015625,-0.042372267693281174,-0.015699146315455437,-0.009889052249491215
1782811008764930000,1.435929931640625,-0.04383604973554611,-0.010089177638292313,-0.015826543793082237
1782811008775001000,1.4460009765625,-0.04393565282225609,-0.0044557927176356316,-0.0179568063467741
1782811008785072000,1.456072021484375,-0.04469827190041542,-0.007245739921927452,-0.02493085153400898
1782811008795144200,1.466144287109375,-0.043642595410346985,-0.008021519519388676,-0.03151312097907066
1782811008805215700,1.4762158203125,-0.044968534260988235,0.0023618212435394526,-0.022193200886249542
1782811008815286500,1.48628662109375,-0.04377969726920128,0.006865493021905422,-0.012523530051112175
1782811008825357600,1.496357666015625,-0.04343226179480553,0.003384060226380825,-0.010052225552499294
1782811008835429600,1.5064296875,-0.041676703840494156,-0.00403444143012166,-0.011665568687021732
1782811008845500700,1.516500732421875,-0.04101395979523659,-0.010416176170110703,-0.014682234264910221
1782811008855571700,1.52657177734375,-0.04107973724603653,-0.012520872056484222,-0.010573776438832283
1782811008865642800,1.536642822265625,-0.0350179485976696,-0.012499092146754265,-0.003671902697533369
1782811008875714800,1.54671484375,-0.030306553468108177,-0.012096954509615898,0.002469080500304699
1782811008885785900,1.556785888671875,-0.02246040105819702,-0.011805376969277859,0.004913809709250927
1782811008895856600,1.566856689453125,-0.014858141541481018,-0.01636204682290554,-0.0038490556180477142
1782811008905929000,1.576928955078125,-0.012008671648800373,-0.016873544082045555,-0.014267580583691597
1782811008915999700,1.586999755859375,-0.0019477818859741092,-0.015913207083940506,-0.026936504989862442
1782811008926070800,1.59707080078125,0.005870463326573372,-0.009010999463498592,-0.03467338904738426
1782811008936141800,1.607141845703125,0.015023748390376568,-0.005375518463551998,-0.04102369397878647
1782811008946213600,1.617213623046875,0.024184545502066612,-0.01191167626529932,-0.054042503237724304
1782811008956284700,1.62728466796875,0.03678582236170769,-0.01392502710223198,-0.06383627653121948
1782811008966355700,1.637355712890625,0.04595236852765083,-0.01119505800306797,-0.06675168871879578
1782811008976427800,1.647427734375,0.053304292261600494,-0.010508761741220951,-0.07355447113513947
1782811008986498800,1.657498779296875,0.0523037426173687,-0.018144309520721436,-0.07816652953624725
1782811008996569600,1.667569580078125,0.05443267151713371,-0.02063383162021637,-0.07609592378139496
1782811009006640600,1.677640625,0.04845302179455757,-0.0028713855426758528,-0.05315631255507469
1782811009016712700,1.687712646484375,0.042513906955718994,0.01507432572543621,-0.02757025696337223
1782811009026783700,1.69778369140625,0.041085436940193176,0.01848551258444786,-0.0056852782145142555
1782811009036854800,1.707854736328125,0.04033922031521797,0.01969325542449951,0.008057432249188423
1782811009046925800,1.71792578125,0.045504048466682434,0.011960694566369057,0.01649129018187523
1782811009056998000,1.727997802734375,0.04435222968459129,0.012781747616827488,0.02383815310895443
1782811009067069000,1.73806884765625,0.0432623028755188,0.02011500857770443,0.02605174481868744
1782811009077139700,1.7481396484375,0.035836078226566315,0.013801188208162785,0.02142823114991188
1782811009087211800,1.758211669921875,0.03170621022582054,0.003202890045940876,0.008735098876059055
1782811009097282600,1.768282470703125,0.02434683032333851,0.0030516223050653934,0.0009994151769205928
1782811009107353600,1.778353515625,0.01363160740584135,0.004029986914247274,-0.006972756702452898
1782811009117424600,1.788424560546875,0.007001135498285294,0.004141040612012148,-0.017517542466521263
1782811009127496700,1.79849658203125,-0.0002203949261456728,0.010090924799442291,-0.020735016092658043
1782811009137567700,1.808567626953125,-0.005511296913027763,0.017142442986369133,-0.01825401559472084
1782811009147638800,1.818638671875,-0.01589522883296013,0.02362244762480259,-0.013176964595913887
1782811009157709800,1.828709716796875,-0.022791484370827675,0.027854476124048233,-0.012418230064213276
1782811009167782000,1.838781982421875,-0.02451113611459732,0.03064083680510521,-0.002961402991786599
1782811009177852700,1.848852783203125,-0.024492228403687477,0.03643454611301422,0.0050382004119455814
1782811009187923700,1.858923828125,-0.024288661777973175,0.038121435791254044,0.005437120795249939
1782811009197995800,1.868995849609375,-0.02167636714875698,0.0334521159529686,0.0006255876505747437
1782811009208066800,1.87906689453125,-0.01999831199645996,0.029269257560372353,-0.004482754040509462
1782811009218137900,1.889137939453125,-0.016782013699412346,0.019645126536488533,-0.008563515730202198
1782811009228209000,1.899208984375,-0.014825921505689621,0.012247132137417793,-0.006735788192600012
1782811009238280700,1.90928076171875,-0.009634887799620628,0.00674956850707531,0.0043221889063715935
1782811009248351700,1.919351806640625,-0.0014160543214529753,0.00027909642085433006,0.01864192634820938
1782811009258422800,1.9294228515625,0.007747616618871689,-0.009729063138365746,0.032807014882564545
1782811009268493600,1.93949365234375,0.017609242349863052,-0.011712712235748768,0.048755429685115814
1782811009278565600,1.949565673828125,0.023475654423236847,-0.020014584064483643,0.0558471605181694
1782811009288636700,1.95963671875,0.02955097146332264,-0.02404351718723774,0.0648435652256012
1782811009298707700,1.969707763671875,0.034876227378845215,-0.033941421657800674,0.07522936165332794
1782811009308779800,1.97977978515625,0.03825141489505768,-0.03555873781442642,0.0774211660027504
1782811009318850800,1.989850830078125,0.044788673520088196,-0.03465166687965393,0.07765339314937592
1782811009328921900,1.999921875,0.04877143353223801,-0.03370038419961929,0.07116833329200745
1782811009338993000,2.009992919921875,0.05108731612563133,-0.03806823492050171,0.06186005100607872
1782811009349064700,2.020064697265625,0.05569959431886673,-0.030846120789647102,0.05378449335694313
1782811009359135700,2.0301357421875,0.05199087783694267,-0.024723513051867485,0.04282958060503006
1782811009369206800,2.040206787109375,0.047643110156059265,-0.027663396671414375,0.030954785645008087
1782811009379278600,2.050278564453125,0.04422440752387047,-0.024124322459101677,0.0216414425522089
1782811009389349600,2.060349609375,0.03794754669070244,-0.01833917759358883,0.016417866572737694
1782811009399420700,2.070420654296875,0.03434082865715027,-0.014978000894188881,0.017281264066696167
1782811009409491700,2.08049169921875,0.026091258972883224,-0.010880841873586178,0.020166106522083282
1782811009419563800,2.090563720703125,0.018322018906474113,-0.012416953220963478,0.029310602694749832
1782811009429634800,2.100634765625,0.012986214831471443,-0.012119763530790806,0.0382542684674263
1782811009439705900,2.110705810546875,0.0006880032597109675,-0.004424293525516987,0.05159697309136391
1782811009449776600,2.120776611328125,-0.004445775877684355,0.0056663318537175655,0.06123588606715202
1782811009459848700,2.1308486328125,-0.014774046838283539,0.0069473120383918285,0.058481112122535706
1782811009469919700,2.140919677734375,-0.022771203890442848,0.0006536763394251466,0.04421394318342209
1782811009479990800,2.15099072265625,-0.02505992352962494,-0.020494485273957253,0.02569991536438465
1782811009490061800,2.161061767578125,-0.025822224095463753,-0.021082494407892227,0.010469854809343815
1782811009500133600,2.171133544921875,-0.024340974166989326,-0.03355221077799797,0.0005226823268458247
1782811009510204700,2.18120458984375,-0.028975512832403183,-0.030777446925640106,0.0004635870864149183
1782811009520275700,2.191275634765625,-0.03703530505299568,-0.017772965133190155,0.0065339962020516396
1782811009530347800,2.20134765625,-0.04392042011022568,-0.012435843236744404,0.008043424226343632
1782811009540418600,2.21141845703125,-0.046131376177072525,-0.02729788050055504,-0.001125573180615902
1782811009550489600,2.221489501953125,-0.04514813795685768,-0.03300822898745537,-0.005535235162824392
1782811009560560600,2.231560546875,-0.03724867105484009,-0.034609586000442505,0.005016474984586239
1782811009570632700,2.2416328125,-0.032534241676330566,-0.03888913244009018,0.009280301630496979
1782811009580703700,2.251703857421875,-0.025607360526919365,-0.04907252639532089,0.008293600752949715
1782811009590774800,2.26177490234375,-0.02020401693880558,-0.051473863422870636,0.019208086654543877
1782811009600846800,2.271846923828125,-0.01647505909204483,-0.04993721842765808,0.04040046036243439
1782811009610918000,2.28191796875,-0.00975387915968895,-0.05303099751472473,0.06285838782787323
1782811009620989000,2.291989013671875,-0.00011802965309470892,-0.0661206990480423,0.0672542005777359
1782811009631059700,2.302059814453125,0.00926188938319683,-0.07125074416399002,0.06799562275409698
1782811009641131500,2.312131591796875,0.017679549753665924,-0.08152588456869125,0.06514718383550644
1782811009651202600,2.32220263671875,0.017174294218420982,-0.08136053383350372,0.06284350156784058
1782811009661273600,2.332273681640625,0.015731660649180412,-0.07241977006196976,0.06772667169570923
1782811009671344600,2.3423447265625,0.009952396154403687,-0.06306067109107971,0.06815922260284424
1782811009681416700,2.352416748046875,0.007030642591416836,-0.06376028805971146,0.06364037096500397
1782811009691487700,2.36248779296875,0.004575835075229406,-0.06949888169765472,0.05024690181016922
1782811009701558800,2.372558837890625,0.007391328923404217,-0.06966852396726608,0.04159855470061302
1782811009711630800,2.382630859375,0.005586512852460146,-0.06765872985124588,0.035249851644039154
1782811009721701600,2.39270166015625,0.003659182693809271,-0.06992827355861664,0.03453638777136803
1782811009731772700,2.402772705078125,-0.0005021573742851615,-0.0551498644053936,0.03228692337870598
1782811009741843700,2.41284375,-0.003693156875669956,-0.05388885736465454,0.018790822476148605
1782811009751915800,2.422915771484375,-0.010112443938851357,-0.050607938319444656,0.0066293650306761265
1782811009761986800,2.43298681640625,-0.012187845073640347,-0.04685048386454582,0.0002990313514601439
1782811009772057900,2.443057861328125,-0.020770257338881493,-0.03885149210691452,-0.0022316104732453823
1782811009782129000,2.45312890625,-0.030039921402931213,-0.029511254280805588,0.005569054279476404
1782811009792200700,2.46320068359375,-0.03791563957929611,-0.02538376674056053,0.017348267138004303
1782811009802271700,2.473271728515625,-0.04300840198993683,-0.01689014583826065,0.026743100956082344
1782811009812342500,2.483342529296875,-0.05191827565431595,-0.010321458801627159,0.0318869985640049
1782811009822414600,2.49341455078125,-0.06041828542947769,-0.003827074309810996,0.032766640186309814
1782811009832485400,2.5034853515625,-0.06904133409261703,0.0011790478602051735,0.022752484306693077
1782811009842556400,2.513556396484375,-0.0770699679851532,0.005867542698979378,0.011955230496823788
1782811009852627500,2.52362744140625,-0.07770709693431854,0.009368731640279293,-0.002835668856278062
1782811009862699500,2.533699462890625,-0.07529720664024353,0.003566502593457699,-0.01527449581772089
1782811009872770600,2.5437705078125,-0.07443252950906754,0.006368819624185562,-0.024095337837934494
1782811009882841600,2.553841552734375,-0.0671469196677208,0.007054051384329796,-0.028264783322811127
1782811009892912600,2.56391259765625,-0.060138605535030365,0.008858839981257915,-0.02824832685291767
1782811009902984700,2.573984619140625,-0.05095522478222847,0.0014472630573436618,-0.03340021148324013
1782811009913055500,2.584055419921875,-0.04434887319803238,-0.0004631264600902796,-0.030934413895010948
1782811009923126500,2.59412646484375,-0.03825955465435982,-0.0012524875346571207,-0.019681492820382118
1782811009933198300,2.6041982421875,-0.033063407987356186,-0.008347110822796822,-0.006197589915245771
1782811009943269400,2.614269287109375,-0.02888171188533306,-0.005424824543297291,0.007206898648291826
1782811009953340400,2.62434033203125,-0.025277018547058105,-0.006055212579667568,0.01917751505970955
1782811009963411500,2.634411376953125,-0.024415485560894012,-0.010741843841969967,0.02147236093878746
1782811009973483500,2.6444833984375,-0.029135363176465034,-0.015746422111988068,0.023595081642270088
1782811009983554600,2.654554443359375,-0.028836289420723915,-0.01948949508368969,0.023688292130827904
1782811009993625600,2.66462548828125,-0.03161017596721649,-0.016987508162856102,0.02309366688132286
1782811010003696400,2.6746962890625,-0.035172417759895325,-0.013283317908644676,0.02573099546134472
1782811010013768400,2.6847685546875,-0.04017117992043495,-0.01558286976069212,0.02049015648663044
1782811010023839500,2.694839599609375,-0.03624941036105156,-0.01880503073334694,0.013051947578787804
1782811010033910500,2.70491064453125,-0.030622782185673714,-0.03354835510253906,0.0014906630385667086
1782811010043982600,2.714982666015625,-0.02638888731598854,-0.05116197094321251,-0.00259302812628448
1782811010054053600,2.7250537109375,-0.021721268072724342,-0.05129368603229523,0.004502324853092432
1782811010064124700,2.735124755859375,-0.019632017239928246,-0.037926480174064636,0.027330942451953888
1782811010074195700,2.74519580078125,-0.024489788338541985,-0.029797295108437538,0.04366208612918854
1782811010084267500,2.755267578125,-0.02609061449766159,-0.024439547210931778,0.055500634014606476
1782811010094338300,2.76533837890625,-0.02617279812693596,-0.019039113074541092,0.05814020335674286
1782811010104409300,2.775409423828125,-0.025944296270608902,-0.019012214615941048,0.05520220100879669
1782811010114480400,2.78548046875,-0.02382085472345352,-0.02568594366312027,0.042970944195985794
1782811010124552400,2.795552490234375,-0.018254848197102547,-0.03246128931641579,0.028631947934627533
1782811010134623500,2.80562353515625,-0.012649319134652615,-0.026247795671224594,0.02521548792719841
1782811010144694500,2.815694580078125,-0.010031165555119514,-0.015018311329185963,0.03027389571070671
1782811010154765600,2.825765625,-0.007252535782754421,-0.008647129870951176,0.031807370483875275
1782811010164837600,2.835837646484375,-0.005990996491163969,0.002122693695127964,0.03038337640464306
1782811010174908700,2.84590869140625,-0.0075783939100801945,0.008676898665726185,0.018924035131931305
1782811010184979500,2.8559794921875,-0.010809075087308884,0.010880930349230766,0.010950264520943165
1782811010195051500,2.866051513671875,-0.013557406142354012,0.008942625485360622,0.0017044881824404001
1782811010205122600,2.87612255859375,-0.01529325358569622,0.009930125437676907,-0.01331600733101368
1782811010215193600,2.886193603515625,-0.01746436394751072,0.007624039426445961,-0.023858103901147842
1782811010225264600,2.8962646484375,-0.01656208373606205,0.010835811495780945,-0.015683531761169434
1782811010235336400,2.90633642578125,-0.02271047979593277,0.0195118747651577,-0.00422642519697547
1782811010245407500,2.916407470703125,-0.024723563343286514,0.02012067474424839,0.005592117551714182
1782811010255478500,2.926478515625,-0.02639693021774292,0.019574306905269623,0.012167089618742466
1782811010265549300,2.93654931640625,-0.026485079899430275,0.022769834846258163,0.010926056653261185
1782811010275621400,2.946621337890625,-0.027334580197930336,0.027155645191669464,0.016707299277186394
1782811010285692400,2.9566923828125,-0.026122575625777245,0.026440586894750595,0.014355993829667568
1782811010295763500,2.966763427734375,-0.02078917622566223,0.01735026016831398,0.006083971355110407
1782811010305835500,2.97683544921875,-0.01296241208910942,0.009056910872459412,-0.008105883374810219
1782811010315906600,2.986906494140625,-0.005962821654975414,0.009402941912412643,-0.014572435058653355
1782811010325977600,2.9969775390625,-0.006835007108747959,0.007827416062355042,-0.008450626395642757
1782811010336048600,3.007048583984375,-0.006057309452444315,0.01500573568046093,0.0032175348605960608
1782811010346120700,3.01712060546875,-0.008285842835903168,0.022811992093920708,0.013912256807088852
1782811010356191700,3.027191650390625,-0.011783063411712646,0.024516727775335312,0.020395100116729736
1782811010366262500,3.037262451171875,-0.013171102851629257,0.018440991640090942,0.01474014576524496
1782811010376333600,3.04733349609375,-0.011512857861816883,0.013984473422169685,0.003864089259877801
1782811010386405400,3.0574052734375,-0.010763444006443024,0.007665591314435005,-0.002693412359803915
1782811010396476400,3.067476318359375,-0.013700205832719803,0.01217726431787014,-0.008849672973155975
1782811010406547500,3.07754736328125,-0.013636290095746517,0.017068957909941673,-0.01513233594596386
1782811010416618500,3.087618408203125,-0.018098684027791023,0.02529333159327507,-0.016320904716849327
1782811010426690600,3.097690673828125,-0.022685712203383446,0.02313404157757759,-0.016788022592663765
1782811010436761600,3.10776171875,-0.020678168162703514,0.025836562737822533,-0.011778964661061764
1782811010446832400,3.117832275390625,-0.015167823061347008,0.023972351104021072,-0.010393587872385979
1782811010456904400,3.127904541015625,-0.01039080135524273,0.018511876463890076,-0.014699544757604599
1782811010466975500,3.1379755859375,-0.009231260977685452,0.010877926833927631,-0.02265254408121109
1782811010477046500,3.148046630859375,-0.010648701339960098,0.008237420581281185,-0.01982157491147518
1782811010487117600,3.15811767578125,-0.010511549189686775,0.01756753958761692,-0.00901393685489893
1782811010497189600,3.168189697265625,-0.014666776172816753,0.022673508152365685,0.004571485798805952
1782811010507260700,3.1782607421875,-0.015656672418117523,0.0218063835054636,0.007369935512542725
1782811010517331700,3.188331787109375,-0.018069176003336906,0.02484908141195774,-0.0007340094889514148
1782811010527402800,3.19840283203125,-0.018221775069832802,0.020253265276551247,-0.01530070137232542
1782811010537474600,3.208474609375,-0.01758032664656639,0.008256273344159126,-0.022764716297388077
1782811010547545300,3.21854541015625,-0.01721866801381111,0.015460923314094543,-0.016630392521619797
1782811010557616400,3.228616455078125,-0.020308421924710274,0.021427860483527184,-0.003984054550528526
1782811010567688400,3.2386884765625,-0.018378695473074913,0.02171122096478939,0.0047340695746243
1782811010577759500,3.248759521484375,-0.015597977675497532,0.023516647517681122,0.006531545426696539
1782811010587830500,3.25883056640625,-0.0143883703276515,0.01433220412582159,-0.0039431992918252945
1782811010597901600,3.268901611328125,-0.013809035532176495,0.011233427561819553,-0.0031165885739028454
1782811010607973600,3.2789736328125,-0.016719872131943703,0.0273029413074255,0.012119888328015804
1782811010618044700,3.289044677734375,-0.02174993045628071,0.034144312143325806,0.021583013236522675
1782811010628115500,3.299115478515625,-0.022517453879117966,0.02641475386917591,0.014787426218390465
1782811010638186500,3.3091865234375,-0.017966385930776596,0.02067386731505394,0.006557720247656107
1782811010648258600,3.319258544921875,-0.014625451527535915,0.007209724746644497,0.0038162623532116413
1782811010658329600,3.32932958984375,-0.012821637094020844,0.002074118936434388,-0.0017001548549160361
1782811010668400600,3.339400634765625,-0.011706571094691753,0.0007452014833688736,0.005047230049967766
1782811010678471700,3.3494716796875,-0.008821466937661171,0.0005719950422644615,0.01067778654396534
1782811010688543500,3.35954345703125,-0.00900282897055149,-0.0027004971634596586,0.010055139660835266
1782811010698614500,3.369614501953125,-0.00752540398389101,-0.0034521191846579313,0.007349402643740177
1782811010708685600,3.379685546875,-0.007365347817540169,-0.0065821316093206406,0.006426084320992231
1782811010718757600,3.389757568359375,-0.00799844041466713,-0.014224194921553135,0.006369168404489756
1782811010728828400,3.399828369140625,-0.006618923507630825,-0.011573816649615765,0.014008978381752968
1782811010738899500,3.4098994140625,-0.00297427736222744,-0.004582949914038181,0.019801463931798935
1782811010748970500,3.419970458984375,-0.002347369212657213,-0.004328618291765451,0.023817244917154312
1782811010759042600,3.43004248046875,-0.0016508392291143537,-0.007752749137580395,0.014523320831358433
1782811010769113600,3.440113525390625,-0.00017065438441932201,-0.0066307587549090385,0.008808710612356663
1782811010779184600,3.4501845703125,0.00018517771968618035,-0.004648430272936821,0.004453546833246946
1782811010789255700,3.460255615234375,0.0033956184051930904,-0.003791957860812545,0.0017799993511289358
1782811010799327500,3.470327392578125,0.007267225533723831,-0.00024098367430269718,0.003506031120195985
1782811010809398500,3.4803984375,0.011582612060010433,0.0034906375221908092,0.0008234292035922408
1782811010819469600,3.490469482421875,0.01618567854166031,-0.004064362496137619,-0.006211120635271072
1782811010829540400,3.500540283203125,0.022922677919268608,-0.007239382714033127,-0.008158690296113491
1782811010839612200,3.510612060546875,0.02067042887210846,-0.006772785447537899,-0.008794531226158142
1782811010849683200,3.52068310546875,0.017992086708545685,-0.008739796467125416,-0.008773492649197578
1782811010859754200,3.530754150390625,0.008865552954375744,-0.005986116826534271,-0.0012203836813569069
1782811010869826300,3.540826416015625,0.006264976225793362,-0.0034550486598163843,0.0029983296990394592
1782811010879897300,3.5508974609375,0.0010385229252278805,-0.003818303579464555,0.008523057214915752
1782811010889968400,3.560968505859375,-0.0004909305134788156,-0.008172838017344475,0.007877773605287075
1782811010900039400,3.571039306640625,-0.0012714563636109233,-0.009826799854636192,0.011200647801160812
1782811010910111500,3.581111572265625,0.0016164754051715136,-0.013785854913294315,0.016085684299468994
1782811010920182500,3.5911826171875,-0.00012697523925453424,-0.014583132229745388,0.01722070388495922
1782811010930253300,3.60125341796875,0.002434186637401581,-0.017777591943740845,0.020694531500339508
1782811010940324400,3.611324462890625,0.0065378956496715546,-0.017062505707144737,0.022050263360142708
1782811010950396400,3.621396484375,0.004372745752334595,-0.01731923408806324,0.024017805233597755
1782811010960467500,3.631467529296875,0.0065116360783576965,-0.013504006899893284,0.02090268023312092
1782811010970538500,3.64153857421875,0.0065574427135288715,-0.01438577938824892,0.016124702990055084
1782811010980610300,3.6516103515625,0.0061515807174146175,-0.012564355507493019,0.006937465164810419
1782811010990681300,3.661681396484375,0.007811794988811016,-0.012036517262458801,0.0030090364161878824
1782811011000752400,3.67175244140625,0.011309531517326832,-0.003091348335146904,0.0009915019618347287
1782811011010823200,3.6818232421875,0.014602264389395714,-0.0022332780063152313,0.0020394560415297747
1782811011020895200,3.691895263671875,0.017617175355553627,-0.005567856132984161,-0.003707966534420848
1782811011030966300,3.70196630859375,0.01859082654118538,-0.0018705895636230707,-0.010463074781000614
1782811011041037300,3.712037353515625,0.021215256303548813,0.0008917594095692039,-0.010100333951413631
1782811011051108400,3.7221083984375,0.019364891573786736,-0.006590657867491245,-0.016993394121527672
1782811011061180400,3.732180419921875,0.025774704292416573,-0.0073798708617687225,-0.018666677176952362
1782811011071251500,3.74225146484375,0.02701626904308796,-0.008891214616596699,-0.01446474064141512
1782811011081322500,3.752322509765625,0.02755061723291874,0.0004292987287044525,-0.005536113865673542
1782811011091393500,3.7623935546875,0.02773943543434143,0.0011480858083814383,0.004025699570775032
1782811011101465300,3.77246533203125,0.027059145271778107,0.0028938057366758585,0.006566508673131466
1782811011111536400,3.782536376953125,0.021636150777339935,0.004686912056058645,0.004898304585367441
1782811011121607400,3.792607421875,0.015780869871377945,0.009617188945412636,0.00017380202189087868
1782811011131679200,3.80267919921875,0.00822628103196621,0.009781772270798683,-0.008163223043084145
1782811011141750300,3.812750244140625,0.0025159763172268867,0.004155447706580162,-0.025132840499281883
1782811011151821300,3.8228212890625,-0.0005964600713923573,0.002568203490227461,-0.03382326662540436
1782811011161892400,3.832892333984375,-0.0005603806348517537,0.00006391294300556183,-0.03605886921286583
1782811011171964400,3.84296435546875,-0.007688064593821764,0.004535360261797905,-0.030267292633652687
1782811011182035500,3.853035400390625,-0.011515682563185692,0.008662662468850613,-0.024150263518095016
1782811011192106200,3.863106201171875,-0.012357241474092007,0.00867784209549427,-0.017744828015565872
1782811011202177300,3.87317724609375,-0.01347358338534832,0.0013158326037228107,-0.016296811401844025
1782811011212249300,3.883249267578125,-0.013063456863164902,-0.010515793226659298,-0.012390220537781715
1782811011222320400,3.8933203125,-0.013096258975565434,-0.013035273179411888,-0.0049813538789749146
1782811011232391400,3.903391357421875,-0.0115108797326684,-0.012954046949744225,0.006394605152308941
1782811011242462500,3.91346240234375,-0.012106582522392273,-0.01058370340615511,0.018296852707862854
1782811011252534300,3.9235341796875,-0.009634902700781822,-0.009140269830822945,0.021739253774285316
1782811011262605300,3.933605224609375,-0.00905874278396368,-0.014472474344074726,0.016307584941387177
1782811011272676400,3.94367626953125,-0.0035699675790965557,-0.018760696053504944,0.008308514952659607
1782811011282747400,3.953747314453125,0.0010961947264149785,-0.02625167928636074,-0.0014260968891903758
1782811011292819200,3.963819091796875,0.005965784657746553,-0.029104189947247505,-0.006152675021439791
1782811011302890200,3.97389013671875,0.01301443763077259,-0.0286368690431118,-0.01046107430011034
1782811011312961300,3.983961181640625,0.016658173874020576,-0.03172267600893974,-0.008586208336055279
1782811011323033300,3.994033447265625,0.021666625514626503,-0.027750499546527863,0.0002577247505541891
1782811011333104400,4.0041044921875,0.02803451009094715,-0.02249821275472641,0.011188136413693428
1782811011343175400,4.014175537109375,0.031187046319246292,-0.02536020427942276,0.02003118395805359
1782811011353246500,4.02424658203125,0.03195643052458763,-0.02271169051527977,0.026288814842700958
1782811011363318500,4.034318603515625,0.032956283539533615,-0.017251774668693542,0.033317532390356064
1782811011373389300,4.044389404296875,0.034219421446323395,-0.014387812465429306,0.03493274003267288
1782811011383460400,4.05446044921875,0.03407701104879379,-0.01940864324569702,0.03161676600575447
1782811011393531400,4.064531494140625,0.030552050098776817,-0.02487318217754364,0.034221336245536804
1782811011403603200,4.074603271484375,0.029381582513451576,-0.02500465326011181,0.041251279413700104
1782811011413674200,4.08467431640625,0.032980579882860184,-0.02500065788626671,0.04767455533146858
1782811011423745300,4.094745361328125,0.03905567154288292,-0.03746352344751358,0.0539105050265789
1782811011433816300,4.10481640625,0.04379796236753464,-0.06139389052987099,0.05605035647749901
1782811011443888400,4.114888427734375,0.05437902361154556,-0.08233801275491714,0.07263364642858505
1782811011453959400,4.12495947265625,0.05803341418504715,-0.08789043873548508,0.09061797708272934
1782811011464030200,4.1350302734375,0.05355360358953476,-0.08414974808692932,0.12083636224269867
1782811011474102300,4.145102294921875,0.05133039504289627,-0.10104404389858246,0.13853386044502258
1782811011484173300,4.15517333984375,0.049727652221918106,-0.11499611288309097,0.1544262319803238
1782811011494244400,4.165244384765625,0.03941722214221954,-0.10948336869478226,0.17003901302814484
1782811011504315400,4.1753154296875,0.03249199688434601,-0.10810639709234238,0.1755436807870865
1782811011514387500,4.185387451171875,0.02877715416252613,-0.11608389019966125,0.17476363480091095
1782811011524458500,4.19545849609375,0.01790696568787098,-0.11946294456720352,0.16850711405277252
1782811011534529500,4.205529541015625,0.012564931996166706,-0.11256083101034164,0.16017355024814606
1782811011544600300,4.215600341796875,0.007466912269592285,-0.09847056865692139,0.14955386519432068
1782811011554672000,4.225672119140625,-0.0021636108867824078,-0.08218587189912796,0.12749890983104706
1782811011564743200,4.2357431640625,-0.014656724408268929,-0.07408741116523743,0.09619893878698349
1782811011574814200,4.245814208984375,-0.027525117620825768,-0.05766981840133667,0.055076535791158676
1782811011584885200,4.25588525390625,-0.0434243381023407,-0.05572521314024925,0.002135943854227662
1782811011594957300,4.265957275390625,-0.05680113285779953,-0.046134103089571,-0.04473702237010002
1782811011605028400,4.2760283203125,-0.07198871672153473,-0.013864116743206978,-0.0798192173242569
1782811011615099400,4.286099365234375,-0.08946970105171204,0.0005957814864814281,-0.1060769259929657
1782811011625170400,4.29617041015625,-0.10472967475652695,0.019801849499344826,-0.13088126480579376
1782811011635242500,4.306242431640625,-0.10705195367336273,0.029292823746800423,-0.14625462889671326
1782811011645313300,4.316313232421875,-0.10551957786083221,0.026333438232541084,-0.1549300104379654
1782811011655384300,4.32638427734375,-0.10338611900806427,0.034872595220804214,-0.15602590143680573
1782811011665456400,4.336456298828125,-0.09670594334602356,0.04024730250239372,-0.1493930071592331
1782811011675527400,4.34652734375,-0.09186217933893204,0.03414013981819153,-0.15018662810325623
1782811011685598500,4.356598388671875,-0.08016163855791092,0.034209348261356354,-0.15158456563949585
1782811011695669500,4.36666943359375,-0.06542076915502548,0.032062843441963196,-0.14767637848854065
1782811011705741300,4.3767412109375,-0.049084462225437164,0.03214811533689499,-0.1310001164674759
1782811011715812400,4.386812255859375,-0.03058934211730957,0.026836706325411797,-0.10591234266757965
1782811011725883100,4.396883056640625,-0.017780544236302376,0.022192541509866714,-0.08238790929317474
1782811011735954200,4.4069541015625,-0.007076234556734562,0.02313423529267311,-0.051845449954271317
1782811011746026200,4.417026123046875,-0.007703155279159546,0.03234905004501343,-0.02495885267853737
1782811011756097300,4.42709716796875,-0.015028445981442928,0.047085121273994446,0.0046917167492210865
1782811011766168300,4.437168212890625,-0.027470257133245468,0.07877697050571442,0.03211423009634018
1782811011776239400,4.4472392578125,-0.04621198773384094,0.10495024919509888,0.051388856023550034
1782811011786311400,4.4573115234375,-0.05175914242863655,0.09848379343748093,0.042361751198768616
1782811011796382500,4.467382568359375,-0.05461724475026131,0.07513639330863953,0.019558435305953026
1782811011806453500,4.47745361328125,-0.052125055342912674,0.05233289301395416,0.0010064621455967426
1782811011816524500,4.487524658203125,-0.05673125758767128,0.029616663232445717,-0.016857221722602844
1782811011826596600,4.4975966796875,-0.06551963090896606,0.03179071843624115,-0.01696781814098358
1782811011836667400,4.50766748046875,-0.07666176557540894,0.04384312033653259,-0.00769415870308876
1782811011846738400,4.517738525390625,-0.09187224507331848,0.05792877823114395,-0.0007878929609432817
1782811011856810200,4.527810302734375,-0.10363756120204926,0.07278282940387726,-0.0002874850179068744
1782811011866881300,4.53788134765625,-0.10517346113920212,0.07960163056850433,-0.00001123282709158957
1782811011876952300,4.547952392578125,-0.10267940908670425,0.08692639321088791,-0.006073919124901295
1782811011887023400,4.5580234375,-0.08685535192489624,0.08258936554193497,-0.023752568289637566
1782811011897095400,4.568095458984375,-0.07507805526256561,0.06917795538902283,-0.04081251099705696
1782811011907166500,4.57816650390625,-0.06255166232585907,0.07035093009471893,-0.057374484837055206
1782811011917237200,4.5882373046875,-0.04766777902841568,0.08407127112150192,-0.06896030157804489
1782811011927308300,4.598308349609375,-0.03405876085162163,0.08013484627008438,-0.08534806221723557
1782811011937380400,4.60838037109375,-0.007319560274481773,0.05896325409412384,-0.11325559765100479
1782811011947451400,4.618451416015625,0.029875056818127632,0.03227045387029648,-0.1394367516040802
1782811011957522400,4.6285224609375,0.0788109079003334,0.008048205636441708,-0.1586698293685913
1782811011967593500,4.638593505859375,0.1313900649547577,-0.024131469428539276,-0.17497481405735016
1782811011977665500,4.64866552734375,0.1823832094669342,-0.06480087339878082,-0.19398419559001923
1782811011987736600,4.658736572265625,0.22248470783233643,-0.0960591733455658,-0.20405995845794678
1782811011997807600,4.6688076171875,0.25881290435791016,-0.12207799404859543,-0.20885765552520752
1782811012007878400,4.67887841796875,0.2897048890590668,-0.15852348506450653,-0.21428491175174713
1782811012017950200,4.6889501953125,0.31195852160453796,-0.1980525106191635,-0.19990171492099762
1782811012028021200,4.699021240234375,0.3150760233402252,-0.2095007449388504,-0.1510462909936905
1782811012038092300,4.70909228515625,0.30544978380203247,-0.18733365833759308,-0.07421302050352097
1782811012048163300,4.719163330078125,0.2874072194099426,-0.13200339674949646,0.015575817786157131
1782811012058235400,4.7292353515625,0.2654976546764374,-0.07812631130218506,0.07484499365091324
1782811012068306400,4.739306396484375,0.23884697258472443,-0.04851650446653366,0.09771966189146042
1782811012078377500,4.74937744140625,0.2156979739665985,-0.05183293670415878,0.08649817109107971
1782811012088449500,4.759449462890625,0.19109536707401276,-0.0599249042570591,0.05772465839982033
1782811012098520600,4.7695205078125,0.15758587419986725,-0.06436199694871902,0.034671004861593246
1782811012108591400,4.77959130859375,0.12376193702220917,-0.05217374116182327,0.011953495442867279
1782811012118662400,4.789662353515625,0.08933365345001221,-0.029082536697387695,0.00568654527887702
1782811012128734500,4.799734375,0.05781406909227371,-0.004970358684659004,-0.009824908338487148
1782811012138805500,4.809805419921875,0.029288683086633682,0.0047312709502875805,-0.03942567855119705
1782811012148876500,4.81987646484375,0.0010332888923585415,0.020108064636588097,-0.06632179766893387
1782811012158947600,4.829947509765625,-0.01899288222193718,0.03220893442630768,-0.09319175779819489
1782811012169019400,4.840019287109375,-0.037056248635053635,0.02170412987470627,-0.11817854642868042
1782811012179090400,4.85009033203125,-0.05203226953744888,0.022352607920765877,-0.13186000287532806
1782811012189161200,4.8601611328125,-0.0704498440027237,0.039548058062791824,-0.1312163919210434
1782811012199232300,4.870232177734375,-0.08601708710193634,0.04439447820186615,-0.13287927210330963
1782811012209304300,4.88030419921875,-0.08430158346891403,0.036352016031742096,-0.1419435739517212
1782811012219375400,4.890375244140625,-0.07843969762325287,0.030927423387765884,-0.15045477449893951
1782811012229446400,4.9004462890625,-0.07977287471294403,0.017277922481298447,-0.15766315162181854
1782811012239517400,4.910517333984375,-0.08076303452253342,0.015986822545528412,-0.15129020810127258
1782811012249589500,4.920589599609375,-0.07930171489715576,0.027234449982643127,-0.1344699114561081
1782811012259660500,4.93066064453125,-0.08087004721164703,0.03892865777015686,-0.1011257916688919
1782811012269731300,4.9407314453125,-0.08885180950164795,0.058816879987716675,-0.06211314722895622
1782811012279803400,4.950803466796875,-0.08844541013240814,0.07312444597482681,-0.02978236973285675
1782811012289874400,4.96087451171875,-0.08078610152006149,0.06957334280014038,-0.017370792105793953
1782811012299945500,4.970945556640625,-0.0708455890417099,0.061640579253435135,-0.021125849336385727
1782811012310016500,4.9810166015625,-0.06378650665283203,0.06056765466928482,-0.030054250732064247
1782811012320088300,4.99108837890625,-0.06546909362077713,0.05822407081723213,-0.04262809827923775
1782811012330159400,5.001159423828125,-0.07209713011980057,0.058402493596076965,-0.047063034027814865
1782811012340230400,5.01123046875,-0.0782461017370224,0.042228054255247116,-0.05594228208065033
1782811012350301400,5.021301513671875,-0.06320609897375107,0.022527312859892845,-0.07030023634433746
1782811012360373500,5.03137353515625,-0.03462585061788559,0.028603846207261086,-0.09248755872249603
1782811012370444300,5.0414443359375,-0.01696457527577877,0.03211107477545738,-0.11778547614812851
1782811012380515300,5.051515380859375,-0.020849594846367836,0.01837582141160965,-0.14743231236934662
1782811012390586400,5.06158642578125,-0.03613783419132233,0.021797090768814087,-0.1559397429227829
1782811012400658400,5.071658447265625,-0.05433627963066101,0.03290886431932449,-0.14520961046218872
1782811012410729500,5.0817294921875,-0.0649932324886322,0.04117874428629875,-0.11795060336589813
1782811012420800500,5.091800537109375,-0.06992088258266449,0.05189717188477516,-0.08623528480529785
1782811012430871600,5.10187158203125,-0.07342938333749771,0.05942509323358536,-0.058294788002967834
1782811012440943400,5.111943359375,-0.07569147646427155,0.06027331203222275,-0.04029075428843498
1782811012451014400,5.122014404296875,-0.07658252120018005,0.05531179532408714,-0.028134839609265327
1782811012461085400,5.13208544921875,-0.08153227716684341,0.05861305072903633,-0.02075681835412979
1782811012471156500,5.142156494140625,-0.07863311469554901,0.06550990790128708,-0.017721716314554214
1782811012481228300,5.152228271484375,-0.07362983375787735,0.06418472528457642,-0.01937207765877247
1782811012491299300,5.16229931640625,-0.06580912321805954,0.05694863572716713,-0.029162708669900894
1782811012501370400,5.172370361328125,-0.05888943374156952,0.03666893392801285,-0.04713718220591545
1782811012511441400,5.18244140625,-0.04732343554496765,0.027228495106101036,-0.06120624393224716
1782811012521513500,5.192513427734375,-0.04286796599626541,0.015287414193153381,-0.06819464266300201
1782811012531584500,5.20258447265625,-0.035714711993932724,0.019904879853129387,-0.05655329301953316
1782811012541655300,5.2126552734375,-0.03290827199816704,0.028493575751781464,-0.034151580184698105
1782811012551727400,5.222727294921875,-0.03322508558630943,0.03599728271365166,-0.014882039278745651
1782811012561798400,5.23279833984375,-0.03048522211611271,0.03835071995854378,-0.001949463621713221
1782811012571869400,5.242869384765625,-0.023529650643467903,0.030591342598199844,-0.0013166433200240135
1782811012581940500,5.2529404296875,-0.014623774215579033,0.02352944016456604,-0.005502866115421057
1782811012592012300,5.26301220703125,-0.014286982826888561,0.012691258452832699,-0.01605387218296528
1782811012602083300,5.273083251953125,-0.01494212169200182,0.009652857668697834,-0.014818699099123478
1782811012612154400,5.283154296875,-0.0200275257229805,0.01794310286641121,-0.01053004153072834
1782811012622225400,5.293225341796875,-0.023484310135245323,0.017507676035165787,-0.0073014916852116585
1782811012632297500,5.30329736328125,-0.022223563864827156,0.01597830094397068,-0.009482480585575104
1782811012642368300,5.3133681640625,-0.01904934272170067,0.014374278485774994,-0.014657535590231419
1782811012652439300,5.323439208984375,-0.016703253611922264,0.010499710217118263,-0.025214461609721184
1782811012662510300,5.33351025390625,-0.019938461482524872,0.014014550484716892,-0.034970153123140335
1782811012672582400,5.34358251953125,-0.022888831794261932,0.00929973740130663,-0.04825092852115631
1782811012682653400,5.3536533203125,-0.024582868441939354,0.012359976768493652,-0.05315780267119408
1782811012692724500,5.363724365234375,-0.023844901472330093,0.010420471429824829,-0.060147661715745926
1782811012702795500,5.37379541015625,-0.020600372925400734,0.0015441556461155415,-0.0607021301984787
1782811012712867600,5.38386767578125,-0.02336270920932293,-0.0033035811502486467,-0.0630403608083725
1782811012722938400,5.3939384765625,-0.023109709843993187,-0.006949714384973049,-0.0596269890666008
1782811012733009400,5.404009521484375,-0.025083377957344055,-0.0028124938253313303,-0.056474871933460236
1782811012743080400,5.41408056640625,-0.023281482979655266,0.0016584207769483328,-0.05383807420730591
1782811012753152300,5.42415234375,-0.0223527941852808,-0.005547414533793926,-0.05714913830161095
1782811012763223300,5.434223388671875,-0.024409553036093712,-0.016511648893356323,-0.058050621300935745
1782811012773294300,5.44429443359375,-0.022897405549883842,-0.016673494130373,-0.06092109903693199
1782811012783365400,5.454365478515625,-0.022857990115880966,-0.023675477132201195,-0.05843424052000046
1782811012793437400,5.4644375,-0.018969442695379257,-0.021411601454019547,-0.05705917999148369
1782811012803508200,5.47450830078125,-0.02543559856712818,-0.019729282706975937,-0.04390742629766464
1782811012813579500,5.48457958984375,-0.031384680420160294,-0.015036135911941528,-0.03447369858622551
1782811012823650600,5.494650634765625,-0.0348326750099659,-0.007817905396223068,-0.026683948934078217
1782811012833722600,5.50472265625,-0.040766626596450806,-0.012933853082358837,-0.01549177709966898
1782811012843793700,5.514793701171875,-0.04044145345687866,-0.004339033737778664,-0.003943512216210365
1782811012853864700,5.52486474609375,-0.04498028755187988,0.0026972289197146893,0.005058630835264921
1782811012863936800,5.534936767578125,-0.04690335690975189,0.005736428312957287,0.003344087628647685
1782811012874007800,5.5450078125,-0.04394589364528656,0.003542835358530283,-0.00012971615069545805
1782811012884078600,5.55507861328125,-0.03920866176486015,0.007137037813663483,-0.00849976483732462
1782811012894149600,5.565149658203125,-0.03609869256615639,0.009822295047342777,-0.02288157306611538
1782811012904221400,5.575221435546875,-0.032403554767370224,-0.007484789937734604,-0.03882991150021553
1782811012914292500,5.58529248046875,-0.024728866294026375,-0.0176853034645319,-0.050286971032619476
1782811012924363500,5.595363525390625,-0.026397069916129112,-0.013189621269702911,-0.053061988204717636
1782811012934434600,5.6054345703125,-0.02494681626558304,0.00553614366799593,-0.052923738956451416
1782811012944506600,5.615506591796875,-0.024327365681529045,0.009596399031579494,-0.0462152361869812
1782811012954577700,5.62557763671875,-0.023717014119029045,0.017509836703538895,-0.04106259346008301
1782811012964648700,5.635648681640625,-0.024550050497055054,0.029959315434098244,-0.04094355180859566
1782811012974719500,5.645719482421875,-0.019178934395313263,0.010805892758071423,-0.05105631798505783
1782811012984791600,5.65579150390625,-0.013355132192373276,-0.00024063256569206715,-0.057214610278606415
1782811012994862600,5.665862548828125,-0.0127316415309906,0.006322604604065418,-0.051028311252593994
1782811013004933600,5.67593359375,-0.0060817282646894455,0.0006487402133643627,-0.04703889414668083
1782811013015004700,5.686004638671875,-0.006921578198671341,-0.010898399166762829,-0.041250135749578476
1782811013025076700,5.69607666015625,-0.01588098518550396,-0.023723382502794266,-0.02327806130051613
1782811013035147800,5.706147705078125,-0.030369002372026443,-0.033016156405210495,0.011844351887702942
1782811013045221600,5.7162216796875,-0.03273335471749306,-0.016181249171495438,0.05481152608990669
1782811013055292700,5.726292724609375,-0.03011578693985939,0.029204655438661575,0.09267669916152954
1782811013065363700,5.73636376953125,-0.024601444602012634,0.054785385727882385,0.09261598438024521
1782811013075435500,5.746435546875,-0.03558751568198204,0.10708587616682053,0.11371593922376633
1782811013085506600,5.756506591796875,-0.045479562133550644,0.04870431870222092,0.06330842524766922
1782811013095577600,5.76657763671875,-0.040533293038606644,0.017929933965206146,0.049712032079696655
1782811013105648600,5.776648681640625,-0.03966030851006508,-0.018897855654358864,0.04343283176422119
1782811013115720400,5.786720458984375,-0.04681041091680527,-0.026490483433008194,0.059974875301122665
1782811013125791500,5.79679150390625,-0.05191755294799805,-0.019862141460180283,0.07289201021194458
1782811013135862500,5.806862548828125,-0.05582861602306366,-0.03890850767493248,0.06905524432659149
1782811013145933600,5.81693359375,-0.061574921011924744,-0.054339662194252014,0.0686752125620842
1782811013156005600,5.827005615234375,-0.057262618094682693,-0.051056720316410065,0.0627676323056221
1782811013166076700,5.83707666015625,-0.03673204407095909,-0.04453437402844429,0.036197010427713394
1782811013176147700,5.847147705078125,-0.01938672550022602,0.021898308768868446,0.01240407582372427
1782811013186218500,5.857218505859375,-0.019036253914237022,0.03541678190231323,-0.04317370057106018
1782811013196290600,5.86729052734375,-0.009890270419418812,-0.0019138692878186703,-0.10575756430625916
