time,seconds_elapsed,z,y,x
1782661682326007600,0.076007568359375,-0.0050958618342876435,-0.11747503569843247,0.022795563679910265
1782661682336079600,0.08607958984375,0.01883154172003269,-0.0795109965504147,0.0021483462734613566
1782661682346150700,0.096150634765625,0.010740005201101303,-0.03801808915650472,0.001645214490336366
1782661682356222700,0.10622265625,-0.006928337958455085,-0.03655930518293753,0.004821780433529057
1782661682366293800,0.116293701171875,0.040493338429927826,-0.06027428982928395,-0.030767798367841166
1782661682376365600,0.126365478515625,-0.009648118311166763,-0.055951458194106816,-0.056637011039163916
1782661682386436400,0.136436279296875,0.00440846409201622,-0.052421512235980475,-0.052920260104932816
1782661682396508400,0.14650830078125,0.0009451718956232071,-0.02344475287022069,-0.0005050086463801563
1782661682406579500,0.156579345703125,0.01573591379225254,-0.04579210242517292,0.016160020955838263
1782661682416650500,0.166650390625,0.01676642588376999,-0.06982625428959727,0.004373931634752079
1782661682426722600,0.17672265625,-0.007175006195902824,-0.0845414467319846,-0.007370209107594564
1782661682436793600,0.186793701171875,-0.033220132556557654,-0.080971205296088,-0.015111854476621374
1782661682446865700,0.19686572265625,0.16460136413574217,-0.08341121885934843,0.015426916341739707
1782661682456936700,0.206936767578125,-0.14994097062051295,-0.012041863313596695,0.06818941033538431
1782661682467008500,0.217008544921875,0.09067103552818298,-0.04829579234179109,-0.017967485936335285
1782661682477079600,0.22707958984375,0.05027005155682564,-0.06886668854244053,-0.03959176364743616
1782661682487151600,0.237151611328125,-0.12316577641963958,-0.03361252940762788,0.009927067683287896
1782661682497222700,0.24722265625,0.13660744179487228,-0.04808194866171107,-0.04207816906911321
1782661682507294700,0.257294677734375,-0.0495481670230627,-0.058249542536027724,-0.016475977870100175
1782661682517365500,0.267365478515625,0.04487199190557003,-0.024680943601671605,0.054313659825245844
1782661682527436500,0.2774365234375,0.01015022261440754,-0.08319733864665031,-0.03182579668790567
1782661682537508600,0.287508544921875,-0.0013724573969841002,-0.05727527241008356,0.04949302560260985
1782661682547579600,0.29757958984375,0.040973815423250196,-0.09660110143059863,-0.014038462224602699
1782661682557651000,0.30765087890625,-0.025320903739333152,-0.05774595866175368,0.05767442322892602
1782661682567722000,0.317721923828125,0.07149637945890426,-0.07069746589986607,0.007545871635177172
1782661682577794000,0.3277939453125,-0.013051789274811744,-0.06339163639852777,-0.0074561794911511235
1782661682587865000,0.337864990234375,-0.014400865796208381,-0.04368267252314836,-0.007427985443128273
1782661682597937200,0.347937255859375,0.02405482932627201,-0.05334396084314212,-0.0032077373995911328
1782661682608008000,0.358008056640625,-0.002734393399953842,-0.041768436399661005,0.008476850608666427
1782661682618080000,0.368080078125,0.006087795481085777,-0.06705872580502181,-0.019627391105727292
1782661682628151000,0.378151123046875,-0.001404021579027176,-0.06708057231064886,-0.021725025538681074
1782661682638222000,0.38822216796875,0.018493688067793845,-0.06656621131403372,-0.03169132925381418
1782661682648294000,0.3982939453125,0.008463876962661742,-0.05576563503211364,-0.006489343752991408
1782661682658365000,0.408364990234375,0.013992869517207145,-0.040001938183791934,-0.01636927979234606
1782661682668437000,0.41843701171875,0.0156330379396677,-0.04560280866445973,-0.01896674893964082
1782661682678508000,0.428508056640625,0.0050052609413862225,-0.036160094998590644,-0.02055155674593989
1782661682688580000,0.438580078125,0.027743746972084045,-0.059240690731536594,-0.03016087285010144
1782661682698651100,0.448651123046875,-0.017163900768756866,-0.03835954127162695,0.015834560994291678
1782661682708723000,0.458722900390625,0.057197220471501345,-0.058342956440523265,-0.028265921382396482
1782661682718794000,0.4687939453125,-0.03618015140593052,-0.061352915378846226,-0.006727892616065219
1782661682728866000,0.478865966796875,0.020968553748726842,-0.05599345243861899,-0.02004917844806332
1782661682738936800,0.488936767578125,0.02709551219642162,-0.04685706477556378,0.016457222937280313
1782661682749008000,0.4990078125,-0.029328970336914062,-0.02317970872586593,-0.019048778367019258
1782661682759080000,0.509079833984375,0.04264087185263633,-0.0470708719230257,-0.01653341627891641
1782661682769151000,0.51915087890625,-0.014230185404419898,-0.054659756149444724,0.012880496961669995
1782661682779223000,0.52922314453125,0.03215221106410027,-0.068167819558084,-0.04190047441464848
1782661682789294000,0.539294189453125,-0.0012263269245624542,-0.04010852209711447,0.00662783434165176
1782661682799366000,0.549365966796875,0.013573767322301864,-0.04787950315847993,-0.014844718839880078
1782661682809437000,0.55943701171875,0.031072599133849143,-0.040486853890214114,-0.0006374622198985889
1782661682819509000,0.569509033203125,0.007122983747720718,-0.023958383214473723,-0.012705788848735392
1782661682829580000,0.579580078125,0.03390577673316002,-0.05499808472571894,0.0026869101295713335
1782661682839652000,0.589652099609375,-0.02849719568789005,-0.04705269694551825,0.0075075306524755425
1782661682849723100,0.59972314453125,0.038539866274595255,-0.037246611593663694,-0.03333358460208401
1782661682859794000,0.6097939453125,-0.008304302486777305,-0.05223528721518814,-0.011849596711085177
1782661682869866000,0.619865966796875,0.01742518205344677,-0.03734767908165231,-0.01270661996579729
1782661682879937000,0.62993701171875,0.05123801980614662,-0.0647828898275271,-0.015963055345322937
1782661682890008800,0.6400087890625,-0.043484921461343765,-0.048247934612073,0.005780875823227689
1782661682900079900,0.650079833984375,0.026088380980491637,-0.04368957718797028,-0.0049907300925347954
1782661682910152000,0.66015185546875,0.039704818400740624,-0.08540476729674264,-0.02499307372418698
1782661682920223000,0.670222900390625,-0.11039221956431865,0.009661489249393343,0.05722879378669895
1782661682930295000,0.680294921875,0.19202713119983672,-0.0748379997706972,-0.0330659420752665
1782661682940366000,0.690365966796875,-0.20377192952930925,-0.024990466208569703,0.051860741114639675
1782661682950438100,0.700438232421875,0.15925123527944088,-0.06743389752665534,-0.06710526379391085
1782661682960509200,0.71050927734375,-0.06446224303841591,-0.052844158094841984,-0.017394366790074854
1782661682970580200,0.720580322265625,0.06691723497509956,-0.03640701896436512,0.008764517576782963
1782661682980652000,0.730652099609375,0.027408231407403946,-0.04577277667019516,0.01983317021036055
1782661682990722800,0.740722900390625,-0.036793314868211746,-0.05207527434788644,0.011726490921224467
1782661683000795100,0.750795166015625,0.07094868244826794,-0.0801823382070288,-0.02109071882367134
1782661683010866000,0.760865966796875,-0.014801263290643692,-0.06266529488535598,0.0022341065944638102
1782661683020938000,0.77093798828125,0.037570728981494904,-0.04164409763393923,0.02063826691501308
1782661683031009000,0.781009033203125,-0.0004424830704927444,-0.04161540126241743,-0.003192316068173386
1782661683041080800,0.791080810546875,0.010929390293359756,-0.051933180729765445,-0.0019508646397152914
1782661683051152000,0.80115185546875,0.014819383469223976,-0.06281023804768919,-0.027797413388080894
1782661683061224000,0.811223876953125,0.005241992306709289,-0.021355434174463152,-0.029810027285548858
1782661683071295000,0.821294921875,0.007484218275547027,-0.025423414265736938,-0.021782646610587833
1782661683081366000,0.831365966796875,0.025129765081405638,-0.03178969789464026,0.0033852311246562747
1782661683091438000,0.84143798828125,0.01838496699631214,-0.022924217861145735,-0.012209529764391481
1782661683101509000,0.851509033203125,-0.020230302602052688,-0.040791919517703355,-0.014878114219405688
1782661683111581200,0.861581298828125,0.027195465439558027,-0.036968598369881506,-0.023281986356829293
1782661683121652200,0.87165234375,0.012220014625787734,-0.03364135364331305,-0.021382883870392104
1782661683131724000,0.88172412109375,-0.006048047992587089,-0.03194786586472764,0.003383020901260897
1782661683141794800,0.891794921875,0.018936755660176274,-0.05678396349549293,-0.022561015138518995
1782661683151867000,0.901866943359375,-0.010249006813764571,-0.05649668925302103,-0.007986327145365067
1782661683161938000,0.91193798828125,0.03687280984520912,-0.05539778810041025,-0.016212468095705843
1782661683172010000,0.922010009765625,-0.01865209349989891,-0.04888024116624146,0.03873139309159014
1782661683182081000,0.9320810546875,0.041938861063122744,-0.04496308598881587,0.03747276219946798
1782661683192153000,0.942153076171875,-0.009697218149900436,-0.0592103686585091,0.012456216268148272
1782661683202224000,0.95222412109375,0.013788871377706527,-0.06224275862434878,0.0292822496849345
1782661683212295200,0.962295166015625,0.010490998876094818,-0.07007452996224164,0.02365075117056258
1782661683222367000,0.972366943359375,-0.023790625432133672,-0.051668830705154684,-0.0042277509299805385
1782661683232438000,0.98243798828125,0.033065818777680396,-0.02077255625259131,-0.0358661672530463
1782661683242510000,0.992510009765625,-0.02709609671831131,0.005578019328042865,-0.03801709820923861
1782661683252581000,1.0025810546875,0.014347674304246901,-0.0010456731280311942,-0.058272000963008025
1782661683262653200,1.012653076171875,0.010303367349505424,-0.00036901597548276183,-0.06116282703368924
1782661683272724000,1.022723876953125,-0.0018266309052705765,-0.014309680381417274,-0.029635661665908992
1782661683282796000,1.032796142578125,0.0017535656690597532,-0.0546271690540947,-0.028797105649649164
1782661683292867000,1.0428671875,0.0033908114820718764,-0.053472701789345586,0.013261975126503966
1782661683302939000,1.05293896484375,0.014904723665118217,-0.049687045770790424,0.002253720043809153
1782661683313010000,1.063010009765625,0.0059235448300838465,-0.027129560596495864,0.02852415219347458
1782661683323081000,1.0730810546875,0.0021820202142000195,-0.040213589906785634,0.030801522540929726
1782661683333153000,1.083153076171875,0.015796704068779945,-0.037491745461151,0.01847894715638831
1782661683343224000,1.09322412109375,0.009811784440279006,-0.050648383349925274,-0.004083953978540376
1782661683353296100,1.103296142578125,0.008312485793232917,-0.02157163420841098,-0.0024377074417425318
1782661683363367200,1.1133671875,0.023557985720038414,-0.019411551831383256,0.0075177689186995845
1782661683373439000,1.12343896484375,-0.01685994938611984,-0.010013316628057508,-0.00268293720735237
1782661683383510000,1.133510009765625,0.0054226095706224435,-0.018688041596114636,-0.018905976929422467
1782661683393582000,1.14358203125,-0.010296353086829186,-0.019534191830363125,-0.04562856872680131
1782661683403652900,1.15365283203125,0.03024257805049419,-0.009001016046665608,-0.04725101426290348
1782661683413725000,1.163724853515625,0.033821021059155465,-0.012868632993940263,-0.027525085552991366
1782661683423796000,1.1737958984375,0.004773205751180649,-0.04008967126617208,0.024902874690084717
1782661683433867000,1.183866943359375,0.008061141380667686,-0.06774442478055134,0.04267444076209795
1782661683443939000,1.19393896484375,0.024670330876111982,-0.060814479386899614,0.055408857483696186
1782661683454010000,1.204010009765625,0.012547346884012222,-0.06836420064670964,0.0645971442973474
1782661683464082000,1.21408203125,0.020326164191961288,-0.06020677755102515,0.035572330839047206
1782661683474153000,1.224153076171875,-0.004069441395998001,-0.045721576205920426,-0.004004431602079421
1782661683484225000,1.23422509765625,0.0028097967237234113,-0.022312533969897776,-0.015390456788870506
1782661683494296000,1.244296142578125,0.019561609560251235,-0.0036523850277066228,-0.03857978272645268
1782661683504368000,1.2543681640625,-0.01591419296860695,0.017960494506545365,-0.002301048050564714
1782661683514439200,1.264439208984375,-0.010986673438549041,-0.0018851013605482875,-0.03667470715695526
1782661683524510000,1.274510009765625,-0.0011205284625291825,-0.017569029237236827,-0.044282638577139
1782661683534582000,1.28458203125,0.007248071432113647,-0.021947865375969558,-0.04452942554559559
1782661683544653000,1.294653076171875,-0.001443184545636177,-0.01242096229167655,-0.024286035133106634
1782661683554724900,1.304724853515625,0.008421791386604309,-0.014813191190455108,0.005869138628570363
1782661683564796200,1.314796142578125,0.020088263782858846,-0.032165819464344526,-0.007464303432102314
1782661683574868200,1.3248681640625,0.015744681620597837,-0.03158042079182342,-0.01233599655511789
1782661683584939300,1.334939208984375,0.019191607204079628,-0.06082184070944786,-0.0006026877340395003
1782661683595011300,1.34501123046875,-0.006549567773938178,-0.030633677993621676,0.012587564729969017
1782661683605082000,1.35508203125,0.005415595307946205,-0.037955362651217725,0.005566260391590185
1782661683615154000,1.36515380859375,-0.009707155022025108,-0.028679420386999843,0.020071184783894566
1782661683625225000,1.375224853515625,-0.0005862754553556442,-0.02964937966400757,-0.011559577955678104
1782661683635296000,1.3852958984375,-0.003437573233246803,-0.03184073396213352,-0.010861275226902216
1782661683645368000,1.3953681640625,0.014809446597099303,0.011602796042896806,-0.010020993044436908
1782661683655439000,1.405439208984375,0.015244915404915809,-0.013453775938134639,-0.015069860232109203
1782661683665511200,1.41551123046875,0.005944587618112564,-0.022679705048166215,-0.011867136934353038
1782661683675582200,1.425582275390625,0.014915829581022262,-0.03102161786528304,-0.013068553179944865
1782661683685654300,1.435654296875,0.00336626156270504,-0.021672555565927176,-0.009192255169292911
1782661683695725300,1.445725341796875,0.012329320219159126,-0.0351957800110802,0.011136151212104595
1782661683705797000,1.455797119140625,0.023533435800671576,-0.013298895903676748,0.030681339360517448
1782661683715868200,1.4658681640625,0.008998714491724968,-0.02605997686991468,0.018246544906310735
1782661683725939000,1.47593896484375,-0.011047463715076446,-0.0287716287150979,0.027698259295965543
1782661683736011000,1.486010986328125,0.0021130466312170026,-0.023919019318465143,0.00025999807647895067
1782661683746082000,1.49608203125,0.02469429627358913,-0.018165716488752513,0.014419579629832879
1782661683756154000,1.506154052734375,0.00013619360029697419,-0.014203425261657684,-0.0018465000829426571
1782661683766225200,1.51622509765625,-0.009149521139264106,-0.010158588583953678,-0.0063911851747194305
1782661683776297200,1.526297119140625,0.024507249268889426,-0.01218879750361666,-0.01810610438915901
1782661683786368300,1.5363681640625,0.0025087679505348204,-0.004692833991348743,-0.017565101980790494
1782661683796440000,1.546440185546875,0.020759294912219048,-0.002638659674208611,-0.03157870375877246
1782661683806511000,1.556510986328125,0.00743921009004116,-0.020134422745835035,-0.012383123632473871
1782661683816583200,1.566583251953125,0.005040332254767418,-0.017421510525327175,0.02017970492597669
1782661683826654200,1.576654296875,0.011471826606988906,-0.025531240288075057,0.0055007300078636035
1782661683836725200,1.586725341796875,0.004136076891422272,-0.022721096504479645,0.012000316593656316
1782661683846797300,1.59679736328125,0.016852350601553916,-0.033272246336285026,0.018053501985664477
1782661683856868000,1.6068681640625,0.015653496205806732,-0.01875644892351702,-0.00036752270471770315
1782661683866940000,1.61693994140625,-0.0036491701573133466,-0.017203922251891345,0.012167969344719313
1782661683877011000,1.627010986328125,-0.0003647416591644287,-0.029888394317962228,-0.0049620702536310995
1782661683887083000,1.6370830078125,0.013685995525121689,-0.01332152786059305,-0.015364756092033348
1782661683897154000,1.647154052734375,0.0054489130556583405,0.0011586319832131266,0.006997489637951366
1782661683907226000,1.65722607421875,0.005289923101663589,-0.002188340357132256,0.02123607754453551
1782661683917297200,1.667297119140625,0.008426467561721801,-0.02735366994226351,-0.014547060200711712
1782661683927368200,1.6773681640625,0.008263385954499243,-0.01524451354611665,0.018755366644705646
1782661683937440300,1.687440185546875,0.008106149566173552,-0.0013420439924113452,0.01733918883700389
1782661683947511300,1.69751123046875,0.012288403686881064,-0.009988858040235936,-0.00523381356683094
1782661683957583000,1.7075830078125,0.019606033223867416,-0.018279077202733605,-0.010088121730205603
1782661683967654100,1.717654052734375,0.01481003111898899,-0.01360668321121484,-0.0028993564370088276
1782661683977726200,1.727726318359375,-0.003740355572104454,-0.010166680558864027,-0.004704095170879736
1782661683987797000,1.737796875,0.016611527583003043,-0.002362801874894649,-0.0003691027404507622
1782661683997869300,1.747869384765625,0.014350012391805647,-0.009681874450296163,-0.010104264580830932
1782661684007940000,1.757940185546875,0.008661445361375808,-0.004733239066973328,-0.011183661881950684
1782661684018011100,1.76801123046875,-0.003161094379425049,0.009703775754850357,-0.01605677977707237
1782661684028083200,1.778083251953125,0.016437924581766128,-0.013822974576707928,-0.002011801046715118
1782661684038154200,1.788154296875,-0.0018260463833808898,-0.027059545833896845,-0.00539777652346529
1782661684048226000,1.79822607421875,0.022259178081154823,-0.012607333442941307,-0.002295801053289324
1782661684058297000,1.808297119140625,0.02150982101857662,-0.013161441928055137,0.004017291083652526
1782661684068369200,1.818369140625,0.0008604162216186523,-0.018738876734208314,0.016903231405420226
1782661684078440200,1.828440185546875,0.017316460981965064,-0.008583703950047492,0.013615131379151716
1782661684088512300,1.83851220703125,0.007438041046261787,-0.02007335847467184,-0.0011279537171591072
1782661684098583300,1.848583251953125,0.008493103057146073,-0.013361220550164579,0.006189465757273137
1782661684108655000,1.858655029296875,0.004595511096715927,-0.011751849124766886,0.015339329389831981
1782661684118726100,1.86872607421875,-0.00020458266139030456,0.004689874849282205,0.020134788072016088
1782661684128797000,1.878796875,0.01160977377295494,-0.015090181500930338,-0.005837528780754655
1782661684138869000,1.888868896484375,0.004420154529809952,-0.014200539184827356,-0.009650972421956248
1782661684148940000,1.89893994140625,0.0033668460845947264,-0.006731755940429866,-0.014135693787690251
1782661684159012000,1.90901220703125,-0.01653846234679222,0.0009293715382926166,-0.014445015465188771
1782661684169083100,1.919083251953125,0.006053308689594268,0.010496186507865785,0.008275761378882453
1782661684179155200,1.9291552734375,-0.0017290157496929167,-0.011288560728263109,-0.004932305303029716
1782661684189226200,1.939226318359375,-0.036900866895914076,-0.008721998175885528,0.002941058420576155
1782661684199298000,1.949298095703125,0.15224457138776779,-0.004344550276640802,-0.025509471414261495
1782661684209369000,1.959369140625,-0.14119769219458103,-0.01907232820596546,-0.0016095677882200106
1782661684219440000,1.969440185546875,0.054530047088861465,-0.027918318087700754,0.013057999819889664
1782661684229512200,1.97951220703125,0.08101882556378841,-0.023128763989917932,-0.01913844767815899
1782661684239583000,1.9895830078125,-0.12413549823462962,0.024326997331157327,0.07688342452580109
1782661684249655300,1.9996552734375,0.11827741985619067,-0.033413481437880546,-0.019736171542713416
1782661684259726000,2.00972607421875,-0.027318799558281898,-0.012534341271966695,0.01939608483419288
1782661684269798100,2.019798095703125,-0.011153846698999404,-0.014782101932447403,-0.00795821072915569
1782661684279869200,2.029869140625,0.015179448953270912,-0.005393967998027801,-0.009870478657842614
1782661684289941000,2.03994091796875,0.022357962280511855,0.009259228591434658,-0.003959222487173974
1782661684300012000,2.050011962890625,-0.046781040397286415,0.03178005328346044,0.014368826690129935
1782661684310083000,2.0600830078125,0.028934418061375616,-0.003301324834022671,-0.015067832671804353
1782661684320155100,2.070155029296875,0.011873977667093276,-0.012201309925317764,-0.0159345370703144
1782661684330226200,2.08022607421875,-0.02224631859958172,-0.02466517977695912,-0.013190823286166414
1782661684340298200,2.09029833984375,0.013965396988391875,-0.02957390327500179,0.0032214964968850833
1782661684350369300,2.100369384765625,0.0018476736932992934,-0.014550978324003518,0.026811681153206153
1782661684360441000,2.110441162109375,0.00618657968044281,-0.008422923897765576,0.01779579176439438
1782661684370512100,2.12051220703125,0.01516249781847,-0.008052026492450386,0.009493315908522345
1782661684380584200,2.130584228515625,0.024144845697283743,-0.0069678114523179825,-0.001751930834399536
1782661684390655000,2.140655029296875,0.015018120911717414,-0.023368290100526063,0.01924081207409035
1782661684400726000,2.15072607421875,0.004842179334163666,-0.012570819091144948,0.0011636323853163049
1782661684410798000,2.160798095703125,0.01710837118923664,-0.017674151845835148,0.005245467472006567
1782661684420869000,2.170869140625,-0.010731237372756004,0.008336451190710067,0.0027467779574915766
1782661684430941200,2.180941162109375,0.024728198543190954,0.01286030355701223,-0.013889788168645462
1782661684441012200,2.19101220703125,0.029663901379704472,0.004868080960400402,-0.022245355051779186
1782661684451084000,2.201083984375,0.010360065972805022,-0.007059800584707409,0.01570789327416569
1782661684461155000,2.211155029296875,0.027861820393800734,-0.014067724851705134,-0.007754513983754441
1782661684471227100,2.22122705078125,0.0007692308068275451,0.005161894541513175,0.006216627758834511
1782661684481298200,2.231298095703125,0.046557753035426135,-0.008725286111515015,-0.01397642983905971
1782661684491369200,2.241369140625,-0.03888882584273815,-0.008305106204375624,0.00835422430941835
1782661684501441300,2.251441162109375,0.03548223226964473,-0.013422905875835566,-0.014140150767099112
1782661684511512000,2.261511962890625,-0.002817395508289337,-0.00415463546141982,0.006813283044309355
1782661684521584000,2.271584228515625,0.014689035087823868,0.004088657553121447,0.010535486471792683
1782661684531655200,2.2816552734375,0.02112345204949379,-0.006819799550063907,0.00901525006799493
1782661684541727000,2.29172705078125,0.017231120786070822,-0.02008214456932619,-0.0016723764918977393
1782661684551798000,2.301798095703125,-0.02377250525355339,0.012200597539264708,0.008780016540014184
1782661684561870000,2.3118701171875,0.022465514308214186,-0.02145991746224463,-0.0023523809455800802
1782661684571940900,2.32194091796875,0.012141688692569732,-0.0096703118766658,-0.0033144446104997768
1782661684582012000,2.332011962890625,-0.020336101064085958,0.00374647478563711,0.008543408472277223
1782661684592084000,2.342083984375,0.02276069786250591,0.0007092625142075121,-0.009103343909978866
1782661684602155000,2.352155029296875,0.019919921478629112,0.0036142267080955205,-0.005936194249102846
1782661684612227000,2.36222705078125,0.006750643303990364,-0.02358808859735727,0.012198122454388066
1782661684622298000,2.372298095703125,0.018421207353472708,-0.020263510751910508,-0.011580986069887876
1782661684632370000,2.382369873046875,0.021418051081895827,-0.017572956493683158,0.003054291270393878
1782661684642441000,2.39244091796875,-0.010610825863480567,-0.001473597950208932,-0.00467787845081184
1782661684652513000,2.402512939453125,0.01961246296465397,0.008242452764324844,-0.04178801331638824
1782661684662584000,2.412583984375,-0.01001636710166931,-0.0005613784761168062,-0.03598780260502826
1782661684672655000,2.422655029296875,-0.0047784664481878274,-0.003740099843777716,-0.020927915777661836
1782661684682727200,2.43272705078125,0.009137246179580689,-0.00789827896915376,0.015224493671394885
1782661684692798000,2.4427978515625,0.014367548048496246,-0.015085066934395581,0.0018521809050580486
1782661684702870000,2.4528701171875,-0.005994271978735924,-0.026061766968201845,-0.0011454300083452835
1782661684712941000,2.462941162109375,0.006420388436317443,-0.02959158506216481,-0.0017523326931986956
1782661684723012900,2.473012939453125,-0.0028577275186777115,-0.006402103860955685,0.016571921658399515
1782661684733084000,2.483083984375,0.009109773650765419,-0.012022848085872829,0.026355265455483456
1782661684743156000,2.493156005859375,-0.006906710648536682,-0.016106244941987095,0.03702543855707627
1782661684753227000,2.50322705078125,-0.0027209493964910503,-0.026634561887476593,0.016365115073882042
1782661684763298000,2.513298095703125,0.024808862563967703,-0.036624497639946636,0.011099508996144867
1782661684773370000,2.5233701171875,0.011040449452400207,-0.017565156779717653,-0.03209973195819184
1782661684783441200,2.533441162109375,-0.00497486580312252,0.0019160627543926237,-0.026076873205788432
1782661684793513000,2.543512939453125,-0.01575344944894314,0.01238875878881663,-0.0069666150090750304
1782661684803584000,2.553583984375,0.013130115208029746,0.020029044408909975,0.004174312842846848
1782661684813656000,2.563656005859375,0.010886720195412635,0.01117684398209676,-0.016753954561264252
1782661684823726800,2.573726806640625,-0.0013853168785572052,-0.013538787340465932,-0.013179352044081315
1782661684833798000,2.5837978515625,-0.002435702714323997,-0.014208137969393282,0.02758045073573012
1782661684843870000,2.593869873046875,0.021202947026491163,-0.010726195871457457,0.020141724702878856
1782661684853941000,2.60394091796875,-0.013514146089553833,0.002318761803768575,0.020237631958560084
1782661684864013000,2.614012939453125,0.014165887996554374,-0.0029982867668382823,0.012351952176075428
1782661684874084000,2.624083984375,0.0026432079851627347,-0.00765557452077046,-0.008599682403891347
1782661684884156000,2.634156005859375,0.0015974983245134354,-0.009355674703232944,-0.020886752650211563
1782661684894227000,2.64422705078125,0.0008516483932733535,0.02167346888137981,-0.01713141870468389
1782661684904299000,2.654299072265625,0.009379822763800621,0.013068484681285917,-0.016364544251724147
1782661684914370000,2.6643701171875,0.006238602128624916,0.007380356042273342,-0.013828504701773636
1782661684924441000,2.674441162109375,0.004592003965377807,-0.013687475096154957,-0.00527222761476878
1782661684934513200,2.68451318359375,0.0017523966252803802,-0.013433609932940453,-0.012345636599720456
1782661684944584000,2.694583984375,-0.005279986229538917,-0.007587276791222393,-0.0033299207408446817
1782661684954656000,2.704656005859375,0.01970072576999664,0.008053834857046603,-0.014905974907288327
1782661684964727000,2.71472705078125,0.00158639240860939,0.0073854706088081,0.0047863483605440705
1782661684974798800,2.724798828125,0.0014437690675258635,0.0024239392112940547,0.001023360831523314
1782661684984870000,2.734869873046875,0.008926818299293518,0.014898348723258823,0.00780983350072056
1782661684994942000,2.74494189453125,0.00144610715508461,-0.014667206848505884,0.012951059713540597
1782661685005013000,2.755012939453125,0.0005395137041807175,-0.027400468226056546,0.0002764057885855436
1782661685015084000,2.765083984375,0.010262450817227363,-0.025199999039713292,0.024760671474109403
1782661685025156000,2.775156005859375,0.016097148320078847,-0.020993742988910526,0.020090391807863487
1782661685035227100,2.78522705078125,-0.003949029886722564,-0.01660542663577944,0.029331249058968386
1782661685045299000,2.795298828125,0.003533434823155403,-0.022620796201471238,0.003178479339065961
1782661685055370000,2.805369873046875,0.009222586375474929,-0.002552132168225944,-0.0017330708703026175
1782661685065442000,2.815442138671875,-0.022798107263445853,0.003385130659956485,0.002542478423891589
1782661685075513000,2.82551318359375,0.045430794832110405,-0.011045929345116019,0.006099727947474457
1782661685085584000,2.835583984375,-0.002168576210737228,-0.00870398759515956,0.010408421459444797
1782661685095656000,2.845656005859375,0.0036561844199895855,0.012894351957086473,-0.008663349624094553
1782661685105727000,2.85572705078125,0.006791559836268424,0.0008214724507182836,-0.036825157611467874
1782661685115799000,2.865799072265625,0.004095744881033897,0.01742315449314192,-0.017330822867457754
1782661685125870000,2.8758701171875,0.011572948893904686,0.019878073364589362,-0.0291158253431553
1782661685135942000,2.88594189453125,0.011726678150892258,0.02258908588895574,-0.007617183305718936
1782661685146013000,2.896012939453125,0.021154431709647176,-0.004121555175725371,0.005843693660059944
1782661685156084000,2.906083984375,-0.0011404022067785262,-0.03304114099415019,0.02112794099494349
1782661685166156000,2.916156005859375,0.029832828205823895,-0.024730901956930756,-0.000775053192838095
1782661685176227000,2.92622705078125,-0.009064180943369865,-0.008596691295783967,0.016268280803016386
1782661685186299100,2.936299072265625,0.005001169288158416,-0.003848601719550788,0.010939066870580426
1782661685196370200,2.9463701171875,0.0009650456398725509,0.010022815108764916,0.0157413754186593
1782661685206442200,2.956442138671875,0.0050075990289449685,-0.017529793205391615,0.0006830275278305634
1782661685216513000,2.966512939453125,-0.006809095492959022,-0.0012670059948228299,-0.008180479744286276
1782661685226584800,2.976584716796875,0.025510873353481293,0.005811663687136024,0.006275623370497487
1782661685236655900,2.98665576171875,0.004700725036859512,-0.006317092458624393,-0.006350204710359685
1782661685246727000,2.996726806640625,-0.0048848494321107865,0.006442015746235847,0.006058829681505448
1782661685256799000,3.006799072265625,0.008434066346287726,-0.01032095780512318,-0.0007164594399742782
1782661685266870000,3.0168701171875,0.005595043528079986,-0.011909633502364158,0.00879903176773805
1782661685276942000,3.026942138671875,0.0120341366648674,0.0026103834277950225,0.0012893091581761837
1782661685287013000,3.03701318359375,0.0005056114345788955,0.021392953173257408,0.015634709306946024
1782661685297085000,3.0470849609375,0.010380524238944052,0.004325735978316515,0.0035024734293110666
1782661685307156000,3.057156005859375,-0.00023848493099212645,-0.0003291406228207052,0.0016427531051915138
1782661685317227000,3.06722705078125,-0.007426350608468055,-0.01975998167656362,0.002340055753546767
1782661685327299000,3.077299072265625,0.005295768320560455,-0.01787716360464692,0.004249789231852628
1782661685337369900,3.087369873046875,-0.005780336967110633,0.008729012438561766,0.0013664614810375497
1782661685347442000,3.09744189453125,0.004688450077176094,0.009260689896158874,0.0011798483011778444
1782661685357513000,3.107512939453125,-0.006234510475397109,-0.004218750206194818,0.010115119334985502
1782661685367585000,3.1175849609375,0.002450315761566162,0.003974474855232984,-0.003982512031216174
1782661685377656000,3.127656005859375,0.010534253495931624,0.00339893998960033,0.0004902723015518858
1782661685387727000,3.13772705078125,-0.006672317370772361,0.004546557388454675,-0.010572005390166304
1782661685397799000,3.147798828125,0.013820435559749603,-0.004293751671165228,0.001876054970989935
1782661685407870000,3.157869873046875,0.00902910962998867,-0.006261873406358063,0.020819071408594025
1782661685417942000,3.16794189453125,0.012924363502860069,-0.008089600290171802,0.011541996633214875
1782661685428013000,3.178012939453125,0.011280103427171706,-0.02449466378195211,0.009323694962658918
1782661685438085000,3.188085205078125,0.00020575170516967773,-0.03283206482073292,-0.004805815679416991
1782661685448156200,3.19815625,0.015617255848646164,-0.020968827743362634,0.0015520654473220928
1782661685458228200,3.208228271484375,0.0028986440509557723,0.00788881702106446,0.013984558346588164
1782661685468299000,3.218299072265625,-0.0026379472881555557,-0.008141933265607804,0.004169463137793355
1782661685478370000,3.2283701171875,0.004541150560975074,-0.016990352566447108,0.000409836609638296
1782661685488441900,3.23844189453125,0.013217208969593048,-0.008763060838636011,-0.02306486844085157
1782661685498513000,3.248512939453125,0.0024409634113311766,0.0042167774448171255,-0.00029581830853130667
1782661685508585000,3.2585849609375,0.0010877952367067335,0.0017872852755710482,-0.009609553566179237
1782661685518656000,3.268656005859375,-0.0017687632381916045,0.009129921389650552,-0.0050982273213099685
1782661685528728000,3.27872802734375,0.01528057124018669,0.012632139090634882,-0.0025704487096285446
1782661685538799000,3.288799072265625,0.0052589434415102,0.0011381006518378853,-0.030039228364964945
1782661685548870100,3.2988701171875,0.00301028773188591,-0.01354828582117334,-0.022026173042878506
1782661685558942000,3.30894189453125,-0.014499649995565413,-0.002354582035820931,-0.01809388879498001
1782661685569013200,3.31901318359375,0.03712415425777435,-0.010733118802588433,-0.017429278273251837
1782661685579085300,3.329085205078125,-0.026771102547645566,0.00661384691549465,0.029888682012329807
1782661685589156400,3.33915625,0.008691840499639511,-0.012043361150939017,0.011480320440698414
1782661685599228400,3.349228515625,0.011087211203575134,-0.015823519010469318,0.00787045938046649
1782661685609299200,3.35929931640625,0.00301028773188591,-0.0241860727568157,0.022802148684323766
1782661685619370200,3.369370361328125,0.004508417335152626,-0.00231386643294245,0.024352360101277008
1782661685629442300,3.3794423828125,0.025604396855831144,-0.012998013260960579,0.021033166250423528
1782661685639513300,3.389513427734375,0.0015121581286191938,0.0037754634181037545,-0.006632218255824409
1782661685649585200,3.399585205078125,0.0015127426505088806,0.002700673793442547,0.004829918074212037
1782661685659656200,3.40965625,0.0043570261657238,0.008489522860571742,0.002391895538638346
1782661685669728300,3.419728271484375,0.012882277926802634,-0.01051268098494038,-0.012278211086429654
1782661685679799300,3.42979931640625,-0.00253624047935009,-0.009567454290390014,-0.009771096236864105
1782661685689870300,3.439870361328125,0.012723287972807883,0.002251322590745985,-0.004284837712347507
1782661685699942400,3.4499423828125,0.007936053696274757,0.0014942571457475422,-0.0001195575593272224
1782661685710013400,3.460013427734375,-0.002243395012617111,-0.001156056433636695,0.01857119658368174
1782661685720085500,3.47008544921875,0.008531681501865387,-0.01404872789029032,-0.004811546733882278
1782661685730156300,3.48015625,0.006889759513735771,-0.000706102442741394,-0.0034435874155024065
1782661685740228400,3.490228271484375,0.007190788286924362,-0.006757456637267023,0.00014393851533532143
1782661685750299100,3.500299072265625,0.00793722274005413,-0.00028763956865295764,0.0002364984698826447
1782661685760370200,3.5103701171875,0.009580898293852806,-0.005311678275745362,0.006659800382493994
1782661685770442200,3.520442138671875,-0.011665887874364853,-0.010139518557302654,0.001000820206152275
1782661685780513300,3.53051318359375,-0.016153262421488762,0.0161440562017262,0.012736421449016778
1782661685790585300,3.54058544921875,0.006290624576807022,0.004869359602034092,-0.006129976955265738
1782661685800656400,3.550656494140625,0.0023965397477149963,0.007096698528993874,-0.014187492473586461
1782661685810728200,3.560728271484375,0.0073357497155666345,-0.0019310959267430006,-0.0030601227895589544
1782661685820799200,3.57079931640625,-0.0038864860445261,-0.010475070654600857,-0.005518557925499044
1782661685830870300,3.580870361328125,0.007936053696274757,-0.009036324822064488,0.01384867984012235
1782661685840942300,3.5909423828125,0.01736322273313999,-0.00469882534071803,0.031227753162942826
1782661685851013000,3.60101318359375,0.004042553389072418,-0.019709858924522993,0.015831889546592717
1782661685861085400,3.61108544921875,0.0070399816393852226,-0.006555193797126412,0.02433772878772579
1782661685871156200,3.62115625,0.0053904608666896815,-0.009152827341202647,0.012477683747862464
1782661685881228300,3.631228271484375,0.004046645042300224,-0.0007353650698438286,0.014165276075201108
1782661685891299300,3.64129931640625,-0.002692307823896408,0.0019756839871406555,0.01725955686268862
1782661685901371100,3.65137109375,0.0017898060262203216,0.0013661007214337587,-0.012842009848495945
1782661685911442200,3.661442138671875,0.00732113666832447,0.01562142056711018,-0.01967690193641465
1782661685921513200,3.67151318359375,-0.005549450820684433,0.02947384043401107,-0.015445333347842096
1782661685931585300,3.681585205078125,-0.004953238493204117,0.023256555088050662,-0.01884346048668958
1782661685941656300,3.69165625,0.004473930543661117,0.01295320600485429,-0.03300330233494751
1782661685951728400,3.701728271484375,0.0079167644739151,0.0009436740582808851,-0.024270568135916253
1782661685961799400,3.71179931640625,0.007913841864466666,0.009084858405217527,0.0050488352216314526
1782661685971871500,3.72187158203125,-0.004651625198125839,0.01703194495216012,0.0038383634533267464
1782661685981942500,3.731942626953125,-0.0070434887707233424,-0.01057235701661557,-0.001177332117105834
1782661685992013300,3.742013427734375,-0.0022515783190727233,-0.0049166693424806,0.003748694142187014
1782661686002085000,3.752085205078125,-0.0029962592065334317,-0.006389500107709318,-0.006318955622147768
1782661686012156200,3.76215625,-0.009275777867436408,0.0014782193263992666,0.004664566878089681
1782661686022228200,3.772228271484375,-0.014510755911469459,-0.01075964148333296,0.02028789627449587
1782661686032299300,3.78229931640625,0.00479191045165062,-0.0028691804944537577,0.007938008191343396
1782661686042370300,3.792370361328125,0.0016530279040336607,0.004339435710106045,0.0018159770805155858
1782661686052442400,3.8024423828125,0.007495908713340759,0.0009487520921975373,0.012004225583793595
1782661686062513400,3.812513427734375,0.007193126374483108,0.0022678901330567894,0.010521088053681887
1782661686072585500,3.82258544921875,0.0031529110729694365,-0.001179839168023318,-0.007965110827400349
1782661686082656300,3.83265625,0.0029980127722024916,0.015892218598816545,0.011341962282778695
1782661686092728300,3.842728271484375,-0.00732639736533165,0.001989109724294394,0.009879840141232124
1782661686102799400,3.85279931640625,-0.0004489128112792969,0.012415445866342634,0.010274890173692255
1782661686112870100,3.8628701171875,0.01945288848876953,0.0027237441417761145,0.00437673551319167
1782661686122942200,3.872942138671875,0.011372457885742187,-0.004636208433285356,0.017759071916621176
1782661686133013200,3.88301318359375,0.004492050722241401,0.0054689329303801056,0.0018892432461259886
1782661686143085300,3.893085205078125,-0.00583235941529274,0.00111099344920367,0.006385184692195616
1782661686153156400,3.90315625,-0.007327566409111023,0.00731249670414254,-0.005437085620546713
1782661686163228200,3.913228271484375,0.010035071802139282,0.0057980552868917585,-0.009682801465480588
1782661686173299200,3.92329931640625,0.013926234021782875,-0.0017272256514057516,-0.010917229498107917
1782661686183370200,3.933370361328125,0.0119862058699131,-0.011625318401958793,0.009110878762463108
1782661686193442300,3.9434423828125,0.013183891221880913,-0.0035473537506535645,0.003798670763755217
1782661686203513300,3.953513427734375,0.004350011903047561,-0.004843056116998195,0.0059082878954475745
1782661686213585400,3.96358544921875,-0.011506897920370102,-0.019371128489449618,0.02278729360848665
1782661686223656400,3.973656494140625,-0.0013297872990369797,-0.013886906658392399,0.02542997643726412
1782661686233728500,3.983728515625,0.0083960724234581,-0.005382916881050914,0.01856826484107878
1782661686243799300,3.99379931640625,0.0009147767573595046,-0.010028331534098833,0.021939969763881524
1782661686253870300,4.003870361328125,0.00450257211625576,-0.014431790657434612,0.013436920701456256
1782661686263942100,4.013942138671875,-0.01495382350385189,-0.01429230912150815,0.011049135082354769
1782661686274013200,4.02401318359375,-0.011213467931747436,-0.002750285088829696,0.01572525996749755
1782661686284085200,4.034085205078125,-0.0035842882275581357,0.008428074996918439,-0.012466856393171473
1782661686294156300,4.04415625,0.0020966800183057784,0.009866893894691019,0.0004900576724205166
1782661686304228400,4.054228271484375,-0.0019464578926563262,0.014079269159026443,-0.006527155012730508
1782661686314299400,4.06429931640625,0.010623100823163985,0.0048189263227395715,-0.0030128039159579203
1782661686324370400,4.074370361328125,0.011221651238203048,-0.005620689425989985,-0.027822241868660783
1782661686334442500,4.0844423828125,0.004184007686376571,0.010749083556700498,-0.018090098535851574
1782661686344513500,4.094513427734375,0.004032616516947746,0.02263126279655844,-0.017082099670241584
1782661686354585300,4.10458544921875,-0.002699322086572647,0.03501519927978516,-0.018422180034429764
1782661686364656000,4.11465625,-0.0006032265901565551,0.029612591317575425,-0.0313444885775214
1782661686374727200,4.12472705078125,0.006281856748461723,0.04077010954469442,-0.04711395757950376
1782661686384799200,4.13479931640625,0.011220482194423675,0.029099253234267233,-0.03523592935837805
1782661686394870300,4.144870361328125,-0.005086509484052658,0.020305815523676572,-0.02778629833902232
1782661686404942300,4.1549423828125,0.005088263049721717,0.0116192905199714,-0.009746263189706951
1782661686415013400,4.165013427734375,0.0070364745080471035,-0.01992222303356975,0.007782392937946133
1782661686425085200,4.175085205078125,-0.0028378537744283673,-0.0019077150511555372,0.03513269274618942
1782661686435156200,4.18515625,-0.0017880524605512619,-0.015191541249863803,0.039286816750955765
1782661686445227300,4.195227294921875,0.005243745872378349,-0.029892906096298247,0.05238343154818285
1782661686455299300,4.20529931640625,0.024401450806856153,-0.033361367658153174,0.05518814567141234
1782661686465370400,4.215370361328125,0.004497311419248581,-0.013698526213131845,0.03509092226396315
1782661686475442400,4.2254423828125,0.008981763356924057,-0.004141611583065241,0.02597859132993035
1782661686485513200,4.23551318359375,0.0009001637101173401,-0.011741218132898211,0.013489518538373522
1782661686495585300,4.245585205078125,0.008382043898105622,0.00037603023815900084,-0.007314327901625074
1782661686505656300,4.25565625,-0.00044949733316898343,-0.0007067965624853968,-0.028396452426887115
1782661686515727400,4.265727294921875,0.002240472403168678,0.00603374547259882,-0.018777496278122998
1782661686525799200,4.275799072265625,-0.005987257716059685,0.008354333907272667,-0.014216695735184475
1782661686535870200,4.2858701171875,0.01660860497355461,0.008486216658633201,-0.0006188853835919872
1782661686545942300,4.2959423828125,-0.0001502221256494522,0.01267223363900557,0.0008603659892687574
1782661686556013300,4.306013427734375,-0.0026899697363376614,0.0008725085182115435,-0.00106927319932729
1782661686566085400,4.31608544921875,-0.007628010660409927,0.008672277282644063,0.007093264462891965
1782661686576156400,4.326156494140625,0.0071878656774759285,-0.013257449648436158,-0.009455390484351664
1782661686586227500,4.3362275390625,0.006290040054917335,0.002896415561251342,0.010779501527850515
1782661686596299500,4.346299560546875,0.01257481941282749,-0.020776118182856587,0.009644035791093483
1782661686606370300,4.356370361328125,-0.0038853170007467266,-0.008032152748201042,0.0057270358772948384
1782661686616442000,4.366442138671875,0.00554477464556694,0.009195259977132081,0.014567970557999797
1782661686626513200,4.37651318359375,0.009591419687867165,-0.014361757628526537,0.007764053563657216
1782661686636584200,4.386584228515625,0.004202712386846542,-0.010277922380995005,-0.005911365768522955
1782661686646656300,4.39665625,-0.0004319616764783859,-0.005059438814036548,0.007263022406073287
1782661686656727300,4.406727294921875,-0.008667290580272675,-0.036140221254341305,0.025848987300624137
1782661686666799400,4.41679931640625,0.00495265397131443,-0.013322532507590948,0.014392413061694241
1782661686676870400,4.426870361328125,0.016764087796211243,-0.005901844454929232,0.008760106263146735
1782661686686942500,4.4369423828125,0.0028442835152149197,-0.01608269966961816,0.005568730909889564
1782661686697013500,4.447013427734375,-0.00029576807618141173,-0.01808178279865533,0.0033483788461424408
1782661686707084500,4.45708447265625,0.02498889530599117,-0.0037262357152067125,0.0183465529483743
1782661686717156400,4.46715625,0.020348376023769377,0.009464998562913388,-0.009760067952773533
1782661686727227100,4.47722705078125,-0.009580313771963118,-0.0064904214652255175,0.00117318566495087
1782661686737299200,4.48729931640625,0.0038759646505117412,-0.0036454620965756476,-0.0010843200714094564
1782661686747370200,4.497370361328125,0.0010270049601793288,0.0056917271018959575,0.0007673996093450114
1782661686757441300,4.507441162109375,0.005668693286180496,-0.003977671459317207,-0.00817889057539869
1782661686767513300,4.517513427734375,0.013296119424700737,-0.0005029628197662532,-0.011131790130818262
1782661686777584400,4.52758447265625,0.0019224924951791761,0.018829916018527,-0.010357125097047537
1782661686787656200,4.53765625,0.01135141509771347,-0.0011206563266925513,-0.006093490002932958
1782661686797727200,4.547727294921875,-0.00031856442987918853,0.0038741014869883655,-0.008791917040362023
1782661686807799300,4.55779931640625,0.0049181671798229215,-0.008351648759841918,-0.0140788901331136
1782661686817870300,4.567870361328125,-0.0046603930264711374,-0.00982402286734432,0.0021056807420914993
1782661686827941400,4.57794140625,0.0068611179411411285,-0.005786730175279081,0.014306186949810944
1782661686838013400,4.588013427734375,0.004915244570374488,0.00992010365296155,-0.010851466218940913
1782661686848084200,4.598084228515625,0.004015080860257148,0.006230455354787409,0.0011604129483457654
1782661686858156300,4.60815625,0.005064297652244568,0.0050860528263263404,-0.0015580933293094857
1782661686868227300,4.618227294921875,0.009998831444978713,0.009721567139867692,-0.028377058173250404
1782661686878299100,4.628299072265625,0.0029682021558284756,0.006327814782038331,-0.02652980003848206
1782661686888370200,4.6383701171875,-0.0033189152896404266,0.01787884410507977,-0.010484249474899843
1782661686898441200,4.648441162109375,0.005956278055906296,-0.003886102452035993,0.0023300366830313578
1782661686908513300,4.65851318359375,0.013432897546887397,-0.0050276371699757875,0.020669484037184157
1782661686918584300,4.668584228515625,0.009244213685393333,-0.01183039425369352,0.020154579617874695
1782661686928656400,4.678656494140625,0.01044248355925083,-0.003039806087315082,0.011164377226168289
1782661686938727400,4.6887275390625,-0.0006289455533027648,-0.01926710185939446,0.02571402210961096
1782661686948798500,4.698798583984375,0.008345803540945053,-0.007786178630497306,0.03704175950421486
1782661686958870500,4.70887060546875,0.014333645778894424,-0.007748148175049573,0.014221225779829545
1782661686968941300,4.71894140625,0.01643207936286926,-0.005656600989587605,0.00971679050005041
1782661686979013000,4.72901318359375,0.010745265898108482,0.001377809425536543,-0.008955217843293211
1782661686989084200,4.739084228515625,0.01194178220629692,0.0018837131210602818,-0.015629466876247895
1782661686999155200,4.7491552734375,-0.004817044892907143,0.0056124513206072145,-0.028823747061402536
1782661687009227300,4.759227294921875,0.00027004911303520204,-0.003335519364569336,-0.006806784804863855
1782661687019298300,4.76929833984375,-0.0015244330883026121,0.0032477862821891903,-0.005141016150265932
1782661687029370400,4.779370361328125,0.010743512332439422,0.011725563906040041,0.012005878684762864
1782661687039441400,4.78944140625,0.01164250699877739,-0.0048965398699045174,0.014715493836486711
1782661687049513200,4.79951318359375,-0.007659574842453002,-0.017024090439267454,-0.004914303855458275
1782661687059584300,4.809584228515625,0.004010989207029343,-0.0160758863363415,0.019344194816751405
1782661687069655300,4.8196552734375,0.012237550282478332,-0.0008670651581138372,0.013316874518361874
1782661687079727400,4.829727294921875,-0.0022784663259983063,0.0015190262608230113,0.011753643789631315
1782661687089798100,4.839798095703125,0.012834347131848334,-0.004923574007302522,0.00802805196181871
1782661687099870200,4.8498701171875,0.008949614652991295,-0.003510839398857206,0.0025132751622935754
1782661687109941200,4.859941162109375,0.01269113926887512,-0.00034969022050499913,-0.0031833838430466127
1782661687120012300,4.87001220703125,-0.009758008426427841,0.008913118567503988,-0.006675239980220795
1782661687130084400,4.88008447265625,0.016570611050724982,0.0032080935926176606,-0.014852692083781585
1782661687140155400,4.8901552734375,-0.021890929290652273,0.0028275333098135885,-0.009177395526878535
1782661687150227200,4.900227294921875,0.015216273832321166,0.00908082155091688,-0.012351230656867846
1782661687160298200,4.91029833984375,0.012072130587697029,0.008262582236900925,-0.001948521985579282
1782661687170370300,4.920370361328125,0.012668342915177344,-0.004243519321270287,0.011929128220700658
1782661687180441300,4.93044140625,0.007427519652247428,-0.0014293204170651734,0.01268249930469319
1782661687190512400,4.940512451171875,-0.007238719081878662,0.0013014197210781276,-0.0027499745615758
1782661687200584400,4.95058447265625,0.00817687671482563,0.004484999926947057,0.006580186674487776
1782661687210655200,4.9606552734375,0.01371463709771633,-0.010527093102782964,0.019332910804334094
1782661687220727300,4.970727294921875,0.003841477859020233,-0.003034180064126849,0.02365079683633521
1782661687230798300,4.98079833984375,-0.0036392332851886747,-0.010306070763245224,0.03188424431029707
1782661687240869400,4.990869384765625,-0.003040098348259926,-0.011833937917649745,0.04437884722691961
1782661687250941200,5.000941162109375,-0.004090484184026718,-0.006470967846084386,0.028895775684574618
1782661687261012200,5.01101220703125,-0.005585691177845001,-0.030323990989942103,0.012025117674772627
1782661687271084300,5.021084228515625,-0.015313304466009139,-0.0217669010521844,-0.008540663959342054
1782661687281155300,5.0311552734375,0.001449029764533043,0.008181297161616384,-0.006544384708744473
1782661687291226400,5.041226318359375,-0.006633738926053047,0.036086865365598346,0.023157606491912154
1782661687301298400,5.05129833984375,0.014314356556534766,0.015221735458727926,-0.008974260470480657
1782661687311369500,5.061369384765625,0.0023410101681947708,-0.0010117708584293722,-0.014096170061477458
1782661687321441500,5.071441650390625,0.014760931280255317,0.012348828637227416,-0.014551622211397625
1782661687331512300,5.08151220703125,0.012363807010650634,0.0127996776772663,-0.004691021060175262
1782661687341584100,5.091584228515625,0.006076689565181732,0.013313582016155123,0.02632933642978314
1782661687351655200,5.1016552734375,-0.0011082535028457642,0.0020397256666794417,0.00017268511920701712
1782661687361726200,5.111726318359375,-0.004701894080638885,-0.007074377099331468,-0.012146383133996278
1782661687371798300,5.12179833984375,0.011909048980474471,-0.009053093293774872,-0.02005969070892315
1782661687381869300,5.131869384765625,-0.006644844841957092,0.006117277303896844,0.023546692574466576
1782661687391941400,5.14194140625,-0.00783960758447647,-0.031988782397005706,-0.03266373164965771
1782661687402012400,5.152012451171875,-0.035819501399993896,0.005127663478348404,0.00436294901643414
1782661687412083500,5.16208349609375,0.03885200096368789,0.02852695150533691,0.015496195885399355
1782661687422155300,5.1721552734375,0.0011485855132341385,0.029843240001983937,0.03304907313885633
1782661687432226300,5.182226318359375,0.011778116077184677,-0.013606738010141999,-0.022155617241980508
1782661687442298400,5.19229833984375,-0.013808160600066184,-0.025033611230552196,-0.01800472637391649
1782661687452369200,5.202369140625,-0.00857201351225376,-0.0016719335339032112,-0.005805407476285472
1782661687462440200,5.212440185546875,0.012230536019802092,0.011224975706450641,0.03329979649691377
1782661687472512300,5.22251220703125,-0.0021358429849147797,0.004058207615930587,0.02235231799101457
1782661687482583300,5.232583251953125,0.011482348001003265,-0.003799629744980484,-0.0011790171841159463
1782661687492655400,5.2426552734375,-0.009164718708395957,-0.017812391272746024,-0.004023958286456764
1782661687502726400,5.252726318359375,0.0008662614405155182,-0.013234050506539643,-0.002519339576899074
1782661687512797400,5.26279736328125,-0.008556231421232224,0.007540825567301362,0.006187680225563235
1782661687522869200,5.272869140625,-0.00376665905714035,0.020809271533787248,0.010682233432144857
1782661687532940300,5.282940185546875,0.01269815353155136,0.014807455569412558,0.018255618695332668
1782661687543012400,5.293012451171875,0.0035761049211025238,0.007103603193815797,0.0007741079113446175
1782661687553083400,5.30308349609375,0.01300619656741619,0.015522088378481565,-0.006301972521306015
1782661687563154700,5.31315478515625,-0.009889525851607323,0.00838587982300669,0.0017914773934986441
1782661687573225700,5.323225830078125,0.00746317548751831,0.015143555655982344,0.004417825575405732
1782661687583296800,5.333296875,0.0047679450541734695,-0.016367288764659316,-0.012179783080099149
1782661687593368800,5.343368896484375,0.007168576455116271,-0.004457381267659366,0.007178801021608523
1782661687603439900,5.35343994140625,0.005080664265155792,-0.012668744773976504,-0.01091082259020768
1782661687613511700,5.36351171875,-0.003443418452143669,-0.0019216522449627517,0.005016654551657848
1782661687623582700,5.373582763671875,-0.0070388125956058496,0.023667747971136122,0.043930948195792734
1782661687633653800,5.38365380859375,0.00956979237794876,-0.006396843163948506,0.033489017192390745
1782661687643725800,5.393725830078125,0.026475334471464156,-0.03859508532686159,0.00373135028174147
1782661687653796600,5.403796630859375,0.004929273095726967,-0.03443688793517649,0.005547423260379583
1782661687663868700,5.41386865234375,0.003428220883011818,-0.007937642865162343,0.00996780155247543
1782661687673939700,5.423939697265625,0.016736615267395973,0.007196834435220807,0.036146609895932484
1782661687684010800,5.4340107421875,0.02406009002327919,0.019013528957124798,0.013405813177139498
1782661687694082800,5.444082763671875,-0.006772270613908767,0.00040613311547785995,0.0026445779583416876
1782661687704153900,5.45415380859375,0.0041512744605541226,0.005248348982259631,0.006308936551632359
1782661687714225700,5.4642255859375,-0.008121347135305405,0.001308653179462999,0.012235285260155796
1782661687724296700,5.474296630859375,-0.005287000492215156,0.0031394853358156978,0.0040779215299757195
1782661687734368800,5.48436865234375,0.00039046062231063843,-0.0008745360785163939,-0.0017357697174651546
1782661687744439800,5.494439697265625,0.014907061752676963,0.003878412335924804,-0.01401685774757061
1782661687754510600,5.504510498046875,0.005781506010890006,0.0024774229642003775,0.005688160605053417
1782661687764583000,5.5145830078125,0.007877016985416412,-0.003951514104753732,-0.01979316242695786
1782661687774653700,5.52465380859375,0.014011574217677115,0.01626329866722226,-0.02439233135206159
1782661687784725800,5.534725830078125,0.006381225469708442,0.0014138853859156368,-0.03280801265828777
1782661687794796800,5.544796875,-0.0009510171145200729,0.023416001699771732,-0.008626004155236296
1782661687804867800,5.554867919921875,-0.0033458032965660092,0.015192783358879386,-0.014289336279709823
1782661687814939600,5.564939697265625,0.008473813834786414,0.011524616240151227,-0.01234955472301226
1782661687825010700,5.5750107421875,0.004582067093253136,-0.010895086164958774,0.007899452579510398
1782661687835082800,5.585082763671875,-0.0031973347365856167,-0.016013397293072194,0.000489550782344304
1782661687845153800,5.59515380859375,0.011464812344312666,-0.004441617442946881,0.0009634884370258078
1782661687855224800,5.605224853515625,0.005933481702208519,-0.006485599159635603,0.016287195566040462
1782661687865297000,5.615296875,0.00578267505466938,0.014169431660510599,0.035745495448866856
1782661687875367700,5.62536767578125,-0.0018476736932992934,-0.0031070991698652502,0.01684254159359261
1782661687885440000,5.63543994140625,-0.009924597164988518,-0.0057678428117185826,0.019335034262761473
1782661687895510800,5.6455107421875,0.007731471034884452,-0.012944730437453835,0.028403544321376827
1782661687905581800,5.655581787109375,0.010420856249332427,-0.007264291914552449,0.000035381840635091064
1782661687915653600,5.665653564453125,0.02867021416723728,-0.0018038345515727996,-0.008407708062324673
1782661687925724700,5.675724609375,0.016700374910235405,-0.011708704102784394,-0.016970428589847868
1782661687935796700,5.685796630859375,0.0006879822641611098,-0.0023777254493907093,-0.003675304678990505
1782661687945868800,5.695868896484375,0.012966449078917502,0.0024458222495391964,0.0029950947293313217
1782661687955939800,5.70593994140625,0.021646014618873596,0.011393098814971744,0.012281316358968614
1782661687966011600,5.71601171875,0.009823474878072738,-0.005135974648967385,0.016514693312137386
1782661687976082700,5.726082763671875,0.0071294134885072705,-0.0051991943445988,0.003049994121189229
1782661687986154800,5.73615478515625,0.002339256602525711,0.007108388966787606,0.0019576505735283715
1782661687996225800,5.746225830078125,-0.004545242214202881,-0.001258877487294376,-0.009861003010021522
1782661688006296800,5.756296875,0.005928221005201339,-0.006785678084753453,-0.002856937500811182
1782661688016369000,5.766368896484375,0.005931728136539459,0.00565130375996232,0.011221377243567258
1782661688026439700,5.776439697265625,0.008480243575572966,0.002626914437487721,-0.010889939632383175
1782661688036511700,5.78651171875,0.010131517913937568,-0.010456968742329627,0.0024999407566851004
1782661688046582800,5.796582763671875,-0.0013905775755643844,0.0029900851940736174,-0.0025558447955409064
1782661688056653800,5.80665380859375,-0.0033358664244413374,-0.010002192445844412,0.007262488116533495
1782661688066725600,5.8167255859375,0.009831658184528351,0.0012236417771317063,0.0016168651786865665
1782661688076796700,5.826796630859375,0.009380407285690307,-0.0016777970191091298,-0.003753297252068296
1782661688086868700,5.83686865234375,0.0010024550408124922,-0.010574238446447998,0.011258599414839409
1782661688096939800,5.846939697265625,-0.00004208557605743408,0.0016061565550044177,-0.0029765452924882994
1782661688107010800,5.8570107421875,0.010881459498405455,-0.004819766572955996,0.0167458260537358
1782661688117083000,5.867082763671875,0.01925590461194515,-0.0074467540756799275,0.0026737355541670694
1782661688127154000,5.87715380859375,0.015215104788541793,0.011554426856525241,0.008900099255726672
1782661688137226000,5.88722607421875,0.006679916155338287,0.011033307325560598,0.005261541823972948
1782661688147296800,5.897296875,0.007577157256007194,0.0028150756870396433,0.0011171674616634844
1782661688157367800,5.907367919921875,0.017448562929034232,0.0005554784582927823,-0.0033828519379021597
1782661688167439600,5.917439697265625,0.014749825364351273,0.0036071028475649653,0.0005072462692391127
1782661688177510700,5.9275107421875,0.020135025534033773,-0.005145089537184685,-0.007887985904002562
1782661688187582700,5.937582763671875,0.012798691296577453,0.006113076052814722,0.002276246969448402
1782661688197653800,5.94765380859375,-0.0038116672426462173,-0.008793218514882028,0.011135598656255751
1782661688207724800,5.957724853515625,-0.008593640822172165,0.004760528932698071,0.010253870218549855
1782661688217796900,5.967796875,0.0041284781068563455,0.007765994358994066,0.014820127821317874
1782661688227868000,5.977867919921875,-0.004247136050462723,-0.006444280768558383,0.019003592085000128
1782661688237939700,5.987939697265625,-0.0028968904852867123,-0.012099329121876508,0.005295398427802138
1782661688248010800,5.9980107421875,0.0053331777215003965,-0.00040675416998565197,0.008623145477869548
1782661688258082800,6.008082763671875,-0.032362638944387435,-0.01785365486489609,-0.01130696403463371
1782661688268153600,6.018153564453125,0.09393149862885475,0.015331589041370898,-0.09021671588942408
1782661688278224600,6.028224609375,-0.1347165134817362,0.09006693215519189,0.13903688829834573
1782661688288296700,6.038296630859375,0.12520751138031483,-0.026569990484975277,-0.1278702460498549
1782661688298367700,6.04836767578125,-0.10867898590564727,0.024234149682242422,0.05139985473777633
1782661688308439800,6.058439697265625,0.03407821069061756,-0.0006096563309431075,-0.023090555437956937
1782661688318510800,6.0685107421875,-0.024577391895651817,-0.005352083351369947,-0.013505492425640113
1782661688328582000,6.078581787109375,0.04575286639332771,0.004526848040986806,0.020063992424705065
1782661688338653700,6.08865380859375,0.03168926972746849,0.0058713945177383715,0.011034490069071761
1782661688348724700,6.098724853515625,0.010438976427912711,0.005348046497069299,0.03295243066423573
