time,seconds_elapsed,z,y,x
1782661682326007600,0.076007568359375,-0.0010645483853295445,0.0007385514909401536,0.0002936029923148453
1782661682336079600,0.08607958984375,0.0008331199642270803,-0.0009465201292186975,0.001046149991452694
1782661682346150700,0.096150634765625,0.0014038353692740202,-0.0010527803096920252,0.0015385684091597795
1782661682356222700,0.10622265625,0.00004093727329745889,-0.0009779368992894888,-0.001992872916162014
1782661682366293800,0.116293701171875,0.0025293948128819466,0.0002452530898153782,0.000711300759576261
1782661682376365600,0.126365478515625,-0.00004188111051917076,0.000619618920609355,-0.00007182284025475383
1782661682386436400,0.136436279296875,0.0010484170634299517,0.0021778345108032227,-0.0000744860153645277
1782661682396508400,0.14650830078125,-0.00042518938425928354,0.0012651728466153145,0.00021135946735739708
1782661682406579500,0.156579345703125,-0.00183719745837152,-0.0014459252124652267,0.0002145553007721901
1782661682416650500,0.166650390625,-0.0013216002844274044,-0.00016880943439900875,-0.0008970934431999922
1782661682426722600,0.17672265625,-0.00044488778803497553,-0.0009523113258183002,0.0028137550689280033
1782661682436793600,0.186793701171875,-0.002616738900542259,0.001792008406482637,-0.0032918730285018682
1782661682446865700,0.19686572265625,-0.002464406192302704,-0.0016370778903365135,0.0012213860172778368
1782661682456936700,0.206936767578125,0.00041458470514044166,0.00007154035847634077,0.0033319632057100534
1782661682467008500,0.217008544921875,-0.0013103446690365672,-0.0005361930234357715,-0.0026742639020085335
1782661682477079600,0.22707958984375,0.0011731600388884544,-0.0044161430560052395,0.0009914871770888567
1782661682487151600,0.237151611328125,0.002519654342904687,0.0006995233125053346,0.0019134734757244587
1782661682497222700,0.24722265625,-0.002161338459700346,0.0004886573879048228,-0.003967250697314739
1782661682507294700,0.257294677734375,0.0015796041116118431,-0.0014842122327536345,0.0012107333168387413
1782661682517365500,0.267365478515625,-0.002575643826276064,0.0003106946824118495,-0.0016923584043979645
1782661682527436500,0.2774365234375,0.0025384242180734873,-0.000862693996168673,0.003289084415882826
1782661682537508600,0.287508544921875,-0.0023177792318165302,-0.00002420111559331417,-0.00208681495860219
1782661682547579600,0.29757958984375,-0.00044184853322803974,0.000702042889315635,0.0015537262661382556
1782661682557651000,0.30765087890625,-0.0016230345936492085,-0.0015944680199027061,0.0010979926446452737
1782661682567722000,0.317721923828125,-0.0008070421172305942,0.002716923365369439,-0.0008565012249164283
1782661682577794000,0.3277939453125,0.002352300565689802,-0.0010951905278488994,0.0016933202277868986
1782661682587865000,0.337864990234375,0.0014814470196142793,0.0010854058200493455,0.0012568281963467598
1782661682597937200,0.347937255859375,0.0035091820172965527,-0.0000893821706995368,0.0014875683700665832
1782661682608008000,0.358008056640625,-0.0026427200064063072,-0.00017540226690471172,0.0009618602925911546
1782661682618080000,0.368080078125,0.0019678189419209957,-0.0018536604475229979,0.0027331956662237644
1782661682628151000,0.378151123046875,-0.001524384249933064,0.0005620929878205061,-0.0005384975229389966
1782661682638222000,0.38822216796875,-0.00019074452575296164,-0.0004324582405388355,-0.00007426703814417124
1782661682648294000,0.3982939453125,0.00042124988976866007,-0.0016316797118633986,0.0001646184828132391
1782661682658365000,0.408364990234375,-0.0003853465896099806,-0.00009071128442883492,0.001089069526642561
1782661682668437000,0.41843701171875,0.0004040143685415387,0.00023073225747793913,0.0015580522594973445
1782661682678508000,0.428508056640625,-0.0008766293758526444,0.00038292992394417524,-0.0009999566245824099
1782661682688580000,0.438580078125,0.000261073000729084,-0.0019049916882067919,-0.00019887779490090907
1782661682698651100,0.448651123046875,0.0012732272734865546,0.0009952569380402565,-0.00009263990796171129
1782661682708723000,0.458722900390625,-0.0012101703323423862,-0.0014583133161067963,0.0033913073129951954
1782661682718794000,0.4687939453125,0.002100592479109764,0.0007707549957558513,-0.003187677124515176
1782661682728866000,0.478865966796875,0.0015660959761589766,-0.00046015798579901457,-0.0006187919061630964
1782661682738936800,0.488936767578125,-0.0001827229280024767,-0.0005291365087032318,0.0038991719484329224
1782661682749008000,0.4990078125,0.00011635007103905082,-0.0028298411052674055,-0.002699608448892832
1782661682759080000,0.509079833984375,-0.001311717671342194,0.00006641692016273737,0.0028951382264494896
1782661682769151000,0.51915087890625,0.0006028288044035435,-0.0017708978848531842,0.0006631430005654693
1782661682779223000,0.52922314453125,0.0008938270038925111,-0.0006868625059723854,-0.0006860177963972092
1782661682789294000,0.539294189453125,-0.002695048926398158,-0.001539073884487152,0.001570212421938777
1782661682799366000,0.549365966796875,0.001319851609878242,-0.00014378514606505632,0.0021986993961036205
1782661682809437000,0.55943701171875,-0.0004431609995663166,0.001157968072220683,-0.00043277005897834897
1782661682819509000,0.569509033203125,0.0002929761540144682,0.0011679553426802158,0.0016617613146081567
1782661682829580000,0.579580078125,0.001128143398091197,-0.0014829551801085472,0.0003893030807375908
1782661682839652000,0.589652099609375,0.00024424027651548386,0.0028835637494921684,-0.0007249634945765138
1782661682849723100,0.59972314453125,-0.0020649866200983524,-0.002653947100043297,-0.0010096554178744555
1782661682859794000,0.6097939453125,0.0011375424219295382,-0.0014789586421102285,0.00009573297575116158
1782661682869866000,0.619865966796875,-0.0012225508689880371,-0.0003162226639688015,0.0012254458852112293
1782661682879937000,0.62993701171875,-0.001819709548726678,-0.001940752612426877,0.000946170068345964
1782661682890008800,0.6400087890625,0.0002607518690638244,0.000820146466139704,0.0002122028381563723
1782661682900079900,0.650079833984375,0.00040764466393738985,0.0001190028851851821,-0.0009769209427759051
1782661682910152000,0.66015185546875,-0.0028752340003848076,0.000058549223467707634,0.0045688459649682045
1782661682920223000,0.670222900390625,0.00031857157591730356,0.00301806116476655,-0.0026038242504000664
1782661682930295000,0.680294921875,0.00133110536262393,-0.0020355533342808485,0.002835682360455394
1782661682940366000,0.690365966796875,0.0004595572827383876,0.00043936586007475853,-0.0006320864195004106
1782661682950438100,0.700438232421875,-0.0002933184150606394,-0.0008445440325886011,0.000249952485319227
1782661682960509200,0.71050927734375,-0.0002933184150606394,-0.0007627850864082575,0.0012694105971604586
1782661682970580200,0.720580322265625,-0.0013354131951928139,-0.00013774121180176735,0.0017288059461861849
1782661682980652000,0.730652099609375,-0.0009518039878457785,-0.001354679698124528,0.0012897358974441886
1782661682990722800,0.740722900390625,0.0008066813461482525,-0.0017435012850910425,0.0003136874292977154
1782661683000795100,0.750795166015625,-0.0016452118288725615,0.0002100447891280055,0.0018233482260257006
1782661683010866000,0.760865966796875,0.0020651041995733976,-0.00027651479467749596,0.0016206814907491207
1782661683020938000,0.77093798828125,-0.0015732230385765433,-0.0008990721544250846,-0.0011950562475249171
1782661683031009000,0.781009033203125,0.000018814695067703724,-0.0007099878275766969,-0.0017924032872542739
1782661683041080800,0.791080810546875,-0.0020483178086578846,0.0009074058034457266,-0.001333851832896471
1782661683051152000,0.80115185546875,-0.0010850524995476007,0.0006224475800991058,-0.002122946549206972
1782661683061224000,0.811223876953125,0.0019433930283412337,-0.0012708214344456792,0.001379089429974556
1782661683071295000,0.821294921875,0.0010983720421791077,0.0005963208386674523,-0.0006667508860118687
1782661683081366000,0.831365966796875,0.00014194956747815013,-0.00007204071152955294,0.0007022653007879853
1782661683091438000,0.84143798828125,0.00013103056699037552,-0.0023636906407773495,-0.00026366321253590286
1782661683101509000,0.851509033203125,0.00024799781385809183,-0.0010251083876937628,0.003077387111261487
1782661683111581200,0.861581298828125,0.00011590501526370645,-0.0007872881833463907,-0.0016180321108549833
1782661683121652200,0.87165234375,0.00015660992357879877,-0.0013112006708979607,0.0024981480091810226
1782661683131724000,0.88172412109375,-0.00026443577371537685,0.0009010873036459088,-0.0011887321015819907
1782661683141794800,0.891794921875,-0.0014318212633952498,-0.001812207279726863,0.0018944330513477325
1782661683151867000,0.901866943359375,-0.0018531334353610873,0.0018333938205614686,0.00017935747746378183
1782661683161938000,0.91193798828125,-0.0005754621233791113,0.002022277796640992,-0.001587139442563057
1782661683172010000,0.922010009765625,-0.0031102588400244713,0.0008523511351086199,0.0005351337022148073
1782661683182081000,0.9320810546875,-0.0015866205794736743,-0.0019372452516108751,-0.0006544345524162054
1782661683192153000,0.942153076171875,0.0002208669320680201,0.0006140631157904863,0.000991665292531252
1782661683202224000,0.95222412109375,-0.0006382593419402838,-0.0012386004673317075,-0.0010959866922348738
1782661683212295200,0.962295166015625,0.0019085216335952282,-0.001049515907652676,0.0014398753410205245
1782661683222367000,0.972366943359375,-0.002673669718205929,-0.0007449393160641193,-0.0017884535482153296
1782661683232438000,0.98243798828125,-0.0024827211163938046,0.0009685385157354176,-0.002800987334921956
1782661683242510000,0.992510009765625,-0.0006478381110355258,-0.0015221380162984133,0.0013794215628877282
1782661683252581000,1.0025810546875,0.00011302705388516188,0.00036817381624132395,-0.00039823848055675626
1782661683262653200,1.012653076171875,-0.000013360404409468174,0.0009476630366407335,0.0012958206934854388
1782661683272724000,1.022723876953125,-0.0002019122475758195,0.00046882673632353544,0.0014606703771278262
1782661683282796000,1.032796142578125,-0.00027837767265737057,-0.0005463745910674334,-0.00016141615924425423
1782661683292867000,1.0428671875,-0.00029195984825491905,0.00039318855851888657,-0.0027217792812734842
1782661683302939000,1.05293896484375,0.0006540382164530456,0.0004095901967957616,-0.00012204621452838182
1782661683313010000,1.063010009765625,-0.000009355135262012482,0.000687624211423099,-0.0011745274532586336
1782661683323081000,1.0730810546875,0.0003289313754066825,0.001282810582779348,0.0009758180240169168
1782661683333153000,1.083153076171875,-0.0027108006179332733,-0.00033479335252195597,-0.0009925243211910129
1782661683343224000,1.09322412109375,-0.0007255974924191833,0.0003778102109208703,-0.0031324615702033043
1782661683353296100,1.103296142578125,0.00022248789900913835,-0.0008142207516357303,-0.0007593188202008605
1782661683363367200,1.1133671875,-0.0021876743994653225,0.0008477063965983689,0.0010857190936803818
1782661683373439000,1.12343896484375,0.001374836196191609,0.0011614267714321613,0.0016076986212283373
1782661683383510000,1.133510009765625,0.0010006986558437347,-0.0000816442770883441,0.0006973410490900278
1782661683393582000,1.14358203125,0.0007237298996187747,-0.0018121663015335798,0.0006251693703234196
1782661683403652900,1.15365283203125,0.0009092548862099648,0.00010588252916932106,0.0000966216903179884
1782661683413725000,1.163724853515625,-0.0015853280201554298,-0.00013726414181292057,-0.0007864825311116874
1782661683423796000,1.1737958984375,-0.0006281624082475901,-0.0012702393578365445,0.00005305721424520016
1782661683433867000,1.183866943359375,-0.0006305592833086848,0.0016219535609707236,-0.0004910265561193228
1782661683443939000,1.19393896484375,-0.0025520767085254192,0.0018990651005879045,-0.0018327953293919563
1782661683454010000,1.204010009765625,0.001508977496996522,-0.0007433233549818397,0.000590681389439851
1782661683464082000,1.21408203125,-0.002515428001061082,-0.00030807394068688154,0.00023444066755473614
1782661683474153000,1.224153076171875,-0.00018702622037380934,-0.000702221761457622,-0.0002928652102127671
1782661683484225000,1.23422509765625,-0.0018324535340070724,-0.0009427516488358378,0.000878411578014493
1782661683494296000,1.244296142578125,0.0003292342880740762,-0.0018287854036316276,0.0010413969866931438
1782661683504368000,1.2543681640625,0.00038942176615819335,-0.003272484987974167,0.0009734863415360451
1782661683514439200,1.264439208984375,0.0009444245370104909,-0.0009653886081650853,-0.0030987532809376717
1782661683524510000,1.274510009765625,-0.000992319779470563,-0.00019139470532536507,0.002189798979088664
1782661683534582000,1.28458203125,-0.00037633057218044996,0.0003609448904171586,-0.00011330266715958714
1782661683544653000,1.294653076171875,-0.0010689529590308666,0.000360919046215713,0.00031100306659936905
1782661683554724900,1.304724853515625,0.00023812655126675963,-0.000963471014983952,0.0005165990442037582
1782661683564796200,1.314796142578125,0.001175868441350758,0.000612734816968441,0.0005203040782362223
1782661683574868200,1.3248681640625,0.0009401786373928189,0.0002534743398427963,0.0002483953139744699
1782661683584939300,1.334939208984375,0.0003458053688518703,0.002140549710020423,0.0028008525259792805
1782661683595011300,1.34501123046875,-1.3923272490501404e-7,-0.0003859911812469363,-0.00039627222577109933
1782661683605082000,1.35508203125,-0.00012092967517673969,-0.00027216970920562744,0.00020808447152376175
1782661683615154000,1.36515380859375,-0.0008967084577307105,0.0009078770526684821,0.00023578136460855603
1782661683625225000,1.375224853515625,-0.0012941559543833137,0.0005364222452044487,0.0015974105335772038
1782661683635296000,1.3852958984375,0.0005250493413768709,0.0009731806931085885,-0.0006569552351720631
1782661683645368000,1.3953681640625,0.0005637122085317969,-0.000684259575791657,0.0006421636790037155
1782661683655439000,1.405439208984375,0.0009658495546318591,-0.0013332717353478074,0.0022571044974029064
1782661683665511200,1.41551123046875,-0.0007724465103819966,0.0012138994643464684,0.0006585975061170757
1782661683675582200,1.425582275390625,-0.0012062754249200225,-0.00026388862170279026,-0.0000535317522007972
1782661683685654300,1.435654296875,-0.0004856768064200878,-0.00024241372011601925,0.00021811667829751968
1782661683695725300,1.445725341796875,-0.0013669166946783662,-0.0018259292701259255,-0.00043329253094270825
1782661683705797000,1.455797119140625,-0.00022245687432587147,-0.0028145131655037403,-0.00005939108086749911
1782661683715868200,1.4658681640625,-0.001322076073847711,-0.0011505697621032596,-0.000666059204377234
1782661683725939000,1.47593896484375,0.0006814633961766958,-0.0041345106437802315,0.0006891788216307759
1782661683736011000,1.486010986328125,0.0010934544261544943,-0.0005626787897199392,0.0013166195712983608
1782661683746082000,1.49608203125,0.0008043901761993766,-0.0006581124616786838,-0.0004489546117838472
1782661683756154000,1.506154052734375,0.0001132998731918633,0.001765896799042821,-0.00009954787674359977
1782661683766225200,1.51622509765625,0.0007326765917241573,-0.0007398130837827921,0.00029215426184237003
1782661683776297200,1.526297119140625,0.002150010783225298,0.000008002622053027153,-0.0011036084033548832
1782661683786368300,1.5363681640625,-0.0015392524655908346,-0.0030798083171248436,0.0015350470785051584
1782661683796440000,1.546440185546875,-0.0016524367965757847,-0.0005000039236620069,-0.0015536871505901217
1782661683806511000,1.556510986328125,-0.0008341431384906173,-0.00195637671276927,-0.0006747962906956673
1782661683816583200,1.566583251953125,0.000190108607057482,-0.0013339959550648928,-0.000007940747309476137
1782661683826654200,1.576654296875,-0.0014036900829523802,-0.0004942259984090924,-0.0009114850545302033
1782661683836725200,1.586725341796875,-0.00007290847133845091,-0.0017616242403164506,0.0003085089847445488
1782661683846797300,1.59679736328125,0.00020544370636343956,-0.0010357137070968747,-0.0018049562349915504
1782661683856868000,1.6068681640625,0.0007354128174483776,-0.0022991173900663853,-0.0005293020512908697
1782661683866940000,1.61693994140625,0.0016292708460241556,-0.0001631299965083599,0.0005353884189389646
1782661683877011000,1.627010986328125,-0.0005723644280806184,-0.0006432980298995972,0.002117039868608117
1782661683887083000,1.6370830078125,-0.0003650781000033021,0.0008177899871952832,0.0005747023387812078
1782661683897154000,1.647154052734375,-0.0007890532724559307,0.0017525595612823963,0.00005511968629434705
1782661683907226000,1.65722607421875,0.0005192842218093574,-0.0007029448170214891,-0.0006834410596638918
1782661683917297200,1.667297119140625,0.0002998397685587406,-0.0008219880983233452,0.0018409693147987127
1782661683927368200,1.6773681640625,-0.00011471519246697426,-0.0006465502083301544,0.0010377613361924887
1782661683937440300,1.687440185546875,-0.00013149308506399393,0.000007522176019847393,0.0008223115582950413
1782661683947511300,1.69751123046875,0.00009831745410338044,-0.0008385913679376245,0.0009044918697327375
1782661683957583000,1.7075830078125,0.001373438979499042,-0.0021696393378078938,-0.0009037944255396724
1782661683967654100,1.717654052734375,0.0009677985799498856,-0.00037570903077721596,-0.0005821635131724179
1782661683977726200,1.727726318359375,0.0003661905066110194,-0.00020659819710999727,-0.0010194545611739159
1782661683987797000,1.737796875,0.0024340772069990635,0.000018695718608796597,0.0003347438178025186
1782661683997869300,1.747869384765625,0.0012756020296365023,-0.0006729272427037358,-0.00027059268904849887
1782661684007940000,1.757940185546875,0.00020774034783244133,-0.002910928102210164,0.0018367364536970854
1782661684018011100,1.76801123046875,-0.00007828313391655684,-0.00021847221069037914,-0.00042961345752701163
1782661684028083200,1.778083251953125,0.0007296634721569717,-0.0017418088391423225,-0.0006181985372677445
1782661684038154200,1.788154296875,-0.00024052616208791733,-0.0019671123009175062,0.0001487918198108673
1782661684048226000,1.79822607421875,-0.0005122402217239141,0.00023031909950077534,-0.0003161597705911845
1782661684058297000,1.808297119140625,-0.0006640404462814331,-0.0005156323313713074,-0.0004636989033315331
1782661684068369200,1.818369140625,0.0009713872568681836,-0.00019987986888736486,-0.0009725119452923536
1782661684078440200,1.828440185546875,-0.0011713921558111906,-0.001143437810242176,-0.0019485604716464877
1782661684088512300,1.83851220703125,-0.001010238891467452,0.000132738146930933,-0.0009462278103455901
1782661684098583300,1.848583251953125,-0.0018094535917043686,-0.001274742535315454,-0.0009544836357235909
1782661684108655000,1.858655029296875,-0.000014878693036735058,0.0014889778103679419,-0.0004175639769528061
1782661684118726100,1.86872607421875,-0.002335557248443365,-0.001054607331752777,-0.0019416911527514458
1782661684128797000,1.878796875,0.001963660353794694,0.0013755073305219412,0.002999905264005065
1782661684138869000,1.888868896484375,0.00024805188877508044,-0.0015638235490769148,-0.000594030600041151
1782661684148940000,1.89893994140625,0.0014483537524938583,-0.0009441223228350282,0.003141449298709631
1782661684159012000,1.90901220703125,-0.0012129429960623384,-0.0007499778876081109,-0.0030328233260661364
1782661684169083100,1.919083251953125,-0.0006254753097891808,0.001610889914445579,-0.001510022790171206
1782661684179155200,1.9291552734375,-0.00039670977275818586,-0.00037556199822574854,0.0010772381210699677
1782661684189226200,1.939226318359375,-0.00027111894451081753,0.0017517282394692302,0.0021206315141171217
1782661684199298000,1.949298095703125,-0.0041963523253798485,0.0003708791919052601,-0.0015412152279168367
1782661684209369000,1.959369140625,0.0002730304258875549,-0.0016046015080064535,0.0031949628610163927
1782661684219440000,1.969440185546875,-0.00326631055213511,0.0007506980909965932,-0.00327545334585011
1782661684229512200,1.97951220703125,-0.0005247043445706367,-0.0012879280839115381,-0.0008934609359130263
1782661684239583000,1.9895830078125,-0.0009116616565734148,0.003051160369068384,0.00026767730014398694
1782661684249655300,1.9996552734375,-0.0025724410079419613,-0.0015792238991707563,-0.0008512248750776052
1782661684259726000,2.00972607421875,-0.0013585722772404552,0.0008429211447946727,0.0010119224898517132
1782661684269798100,2.019798095703125,0.0025196759961545467,-0.0018257678020745516,-0.0020475387573242188
1782661684279869200,2.029869140625,-0.0016335237305611372,-0.00023080070968717337,-0.00007600052049383521
1782661684289941000,2.03994091796875,0.0008350244024768472,-0.0025915326550602913,0.0031285309232771397
1782661684300012000,2.050011962890625,0.0023956368677318096,0.0006561920745298266,0.0012235717149451375
1782661684310083000,2.0600830078125,-0.0016474496806040406,0.0013175553176552057,0.002616589656099677
1782661684320155100,2.070155029296875,0.002136369701474905,-0.000904053682461381,-0.00033632339909672737
1782661684330226200,2.08022607421875,-0.0009937566937878728,-0.00035377894528210163,0.0009361129486933351
1782661684340298200,2.09029833984375,-0.0019636801443994045,0.001683006645180285,-0.0006609847187064588
1782661684350369300,2.100369384765625,0.00008926365990191698,-0.00046155042946338654,0.000034074095310643315
1782661684360441000,2.110441162109375,0.000925496278796345,-0.00027779233641922474,-0.0009417081018909812
1782661684370512100,2.12051220703125,0.0012018989073112607,0.0021297424100339413,0.000754890323150903
1782661684380584200,2.130584228515625,0.0007920384523458779,-0.00010145409032702446,-0.0017420894000679255
1782661684390655000,2.140655029296875,-0.0005380287766456604,-0.0016411168035119772,-0.000008291390258818865
1782661684400726000,2.15072607421875,0.0010691889328882098,-0.0006091417744755745,-0.0018032619263976812
1782661684410798000,2.160798095703125,-0.00005600019358098507,0.00011567666660994291,0.0010012923739850521
1782661684420869000,2.170869140625,0.0022090182173997164,-0.0012334807543084025,-0.0002210985403507948
1782661684430941200,2.180941162109375,0.00010000658221542835,-0.0000725829740986228,0.000795015599578619
1782661684441012200,2.19101220703125,-0.0011748486431315541,0.0022182681132107973,-0.0003677205240819603
1782661684451084000,2.201083984375,-0.0006522421026602387,-0.000690247630700469,-0.00092168158153072
1782661684461155000,2.211155029296875,0.0007738806307315826,-0.0009504384361207485,0.00034039042657241225
1782661684471227100,2.22122705078125,-0.0014511184999719262,0.000652225106023252,-0.0007135244086384773
1782661684481298200,2.231298095703125,0.0013268248876556754,-0.0004266215255483985,0.0010926313698291779
1782661684491369200,2.241369140625,-0.0014755971496924758,0.00015322980470955372,-0.0007227913592942059
1782661684501441300,2.251441162109375,-0.001389310578815639,-0.0011349412379786372,-0.0009329147869721055
1782661684511512000,2.261511962890625,-0.001957401167601347,-0.000029528280720114708,-0.0010217695962637663
1782661684521584000,2.271584228515625,0.0001861771452240646,-0.00037147814873605967,-0.00006995585863478482
1782661684531655200,2.2816552734375,0.0006012620870023966,0.00013169040903449059,-0.00035282998578622937
1782661684541727000,2.29172705078125,0.003585333935916424,-0.0008768488187342882,0.0005933911888860166
1782661684551798000,2.301798095703125,-0.00045917078386992216,0.0011621396988630295,0.0006402498111128807
1782661684561870000,2.3118701171875,0.0005863862461410463,0.002079864963889122,-0.002976855495944619
1782661684571940900,2.32194091796875,0.0017200729344040155,-0.00012046110350638628,0.0019014033023267984
1782661684582012000,2.332011962890625,0.0007613350171595812,0.0004957943456247449,0.0009850095957517624
1782661684592084000,2.342083984375,-0.001602938398718834,0.00002336176112294197,-0.0006605528760701418
1782661684602155000,2.352155029296875,-0.0016404890920966864,-0.001154820783995092,-0.0001255238603334874
1782661684612227000,2.36222705078125,0.00039583625039085746,-0.0002524221781641245,-0.0005237078294157982
1782661684622298000,2.372298095703125,0.0017612390220165253,-0.0006502985488623381,-0.0014877720968797803
1782661684632370000,2.382369873046875,-0.000677694333717227,-0.0014971867203712463,-0.0003745201975107193
1782661684642441000,2.39244091796875,0.0010757308918982744,-0.0002668062224984169,0.0004832839476875961
1782661684652513000,2.402512939453125,0.0012995885917916894,-0.00011358968913555145,0.0012579094618558884
1782661684662584000,2.412583984375,-0.0010498521151021123,-0.00037591089494526386,-0.0002598260180093348
1782661684672655000,2.422655029296875,0.0015017366968095303,0.0015788529999554157,-0.0006245668046176434
1782661684682727200,2.43272705078125,-0.0009808620670810342,-0.0002510050544515252,-0.0003159064508508891
1782661684692798000,2.4427978515625,-0.0004454319132491946,-0.00036070216447114944,0.001704139169305563
1782661684702870000,2.4528701171875,0.0013141186209395528,-0.0014781646896153688,0.0010159783996641636
1782661684712941000,2.462941162109375,-0.001208260771818459,0.0006584277143701911,-0.0013129692524671555
1782661684723012900,2.473012939453125,-0.0007456697057932615,0.00012686080299317837,0.000051368202548474073
1782661684733084000,2.483083984375,0.0012107833754271269,-0.0012591080740094185,0.0016911800485104322
1782661684743156000,2.493156005859375,0.0009623104124329984,-0.0028876308351755142,0.0014208691427484155
1782661684753227000,2.50322705078125,-0.00011067360173910856,0.0004174561472609639,0.001961928326636553
1782661684763298000,2.513298095703125,-0.0005410404410213232,-0.0008206473430618644,0.0014668467920273542
1782661684773370000,2.5233701171875,0.00019730738131329417,0.0016847725491970778,-0.0011525754816830158
1782661684783441200,2.533441162109375,0.0014175677206367254,0.0010176507057622075,0.001051190192811191
1782661684793513000,2.543512939453125,-0.00036930758506059647,-0.002348036505281925,-0.002396363765001297
1782661684803584000,2.553583984375,0.0003406911273486912,-0.0009123262716457248,-0.001605937723070383
1782661684813656000,2.563656005859375,0.0005686263320967555,0.0005471045151352882,0.0004693771479651332
1782661684823726800,2.573726806640625,0.0011638428550213575,-0.00035410921555012465,-0.00013223092537373304
1782661684833798000,2.5837978515625,0.0012055642437189817,-0.00017660984303802252,0.00007677660323679447
1782661684843870000,2.593869873046875,-0.002251485362648964,-0.0005055101355537772,-0.000793278100900352
1782661684853941000,2.60394091796875,-0.0007415986619889736,0.0002645690692588687,-0.0009479857981204987
1782661684864013000,2.614012939453125,0.00009543285705149174,-0.0018505133921280503,0.0009151616832241416
1782661684874084000,2.624083984375,0.0016412684926763177,-0.0009165536612272263,0.002821223810315132
1782661684884156000,2.634156005859375,0.0019358140416443348,-0.0005447764415293932,0.0003436849219724536
1782661684894227000,2.64422705078125,0.001217397628352046,0.00001028378028422594,-0.0008261019829660654
1782661684904299000,2.654299072265625,-0.0008366984548047185,0.000310688279569149,0.0015129523817449808
1782661684914370000,2.6643701171875,0.0009309640736319125,-0.000403193524107337,-0.0016334343235939741
1782661684924441000,2.674441162109375,-0.0002770457649603486,0.0007132036844268441,-0.0013402203330770135
1782661684934513200,2.68451318359375,0.0003650015569292009,0.0011093555949628353,0.0010119264479726553
1782661684944584000,2.694583984375,0.0007604809943586588,-0.0016520761419087648,0.00020605389727279544
1782661684954656000,2.704656005859375,-0.0012458726996555924,-0.0019920840859413147,0.001062057912349701
1782661684964727000,2.71472705078125,0.0007728033815510571,-0.0006415952229872346,-0.0011196036357432604
1782661684974798800,2.724798828125,0.0005840669036842883,0.0012231359723955393,0.00143082020804286
1782661684984870000,2.734869873046875,-0.00012752972543239594,0.0007331144297495484,0.0014579844428226352
1782661684994942000,2.74494189453125,0.001096602762117982,0.001367634511552751,-0.000930476700887084
1782661685005013000,2.755012939453125,-0.00046400970313698053,-0.0011929948814213276,0.00005755608435720205
1782661685015084000,2.765083984375,0.0002578606945462525,-0.0008520478149875998,0.0002420919481664896
1782661685025156000,2.775156005859375,0.0003982093185186386,-0.00010050379205495119,-0.002104152925312519
1782661685035227100,2.78522705078125,0.00042101775761693716,0.00006714591290801764,-0.00016215190407820046
1782661685045299000,2.795298828125,0.00010809634113684297,-0.0028607333078980446,0.0017814228776842356
1782661685055370000,2.805369873046875,4.316680133342743e-7,0.00020539492834359407,0.00012481864541769028
1782661685065442000,2.815442138671875,-0.0007652271306142211,-0.000705139827914536,0.002036435529589653
1782661685075513000,2.82551318359375,0.0011839850340038538,-0.001215947326272726,0.0022538588382303715
1782661685085584000,2.835583984375,-0.0006679771468043327,0.0006890118820592761,0.0016466580564156175
1782661685095656000,2.845656005859375,-0.0008165740873664618,0.0012240060605108738,0.001402030000463128
1782661685105727000,2.85572705078125,0.001155496691353619,0.0014983115252107382,0.00033356976928189397
1782661685115799000,2.865799072265625,0.0011790477437898517,0.0002442327095195651,0.0009772017365321517
1782661685125870000,2.8758701171875,-0.00013974960893392563,0.0009060282027348876,0.0002296524471603334
1782661685135942000,2.88594189453125,0.0004436505842022598,0.0001994426129385829,-0.000049682450480759144
1782661685146013000,2.896012939453125,0.00018212816212326288,-0.0014133676886558533,-0.00011066885781474411
1782661685156084000,2.906083984375,0.000600326806306839,0.00015921180602163076,-0.0012263518292456865
1782661685166156000,2.916156005859375,-0.0005807850975543261,0.0012290035374462605,-0.0004979771911166608
1782661685176227000,2.92622705078125,-0.0023075765930116177,0.0003698876826092601,-0.0029148049652576447
1782661685186299100,2.936299072265625,-0.0020433911122381687,-0.0009475782280787826,0.001095116720534861
1782661685196370200,2.9463701171875,0.00053341721650213,-0.0012592267012223601,0.0008566363831050694
1782661685206442200,2.956442138671875,0.0006953374249860644,-0.0005164711037650704,0.0002853883779607713
1782661685216513000,2.966512939453125,0.0007945985998958349,-0.001908931415528059,0.0003076778375543654
1782661685226584800,2.976584716796875,-0.0014195534167811275,-0.0007890721317380667,0.0009215364698320627
1782661685236655900,2.98665576171875,0.002107039326801896,-0.00071600207593292,0.002019675215706229
1782661685246727000,2.996726806640625,0.00024682132061570883,0.0011780380737036467,-0.0015417698305100203
1782661685256799000,3.006799072265625,0.0008010985911823809,0.0023044636473059654,-0.0018796888180077076
1782661685266870000,3.0168701171875,-0.0009035908151417971,0.0009859325364232063,-0.0009286740096285939
1782661685276942000,3.026942138671875,0.00029413768788799644,-0.001644871081225574,0.000617341953329742
1782661685287013000,3.03701318359375,0.00009626481914892793,-0.0004216813249513507,0.00015475088730454445
1782661685297085000,3.0470849609375,0.001169590512290597,0.00017574371304363012,-0.0006947335787117481
1782661685307156000,3.057156005859375,-0.0003420197172090411,-0.001704714260995388,0.00039636355359107256
1782661685317227000,3.06722705078125,-0.000523783266544342,0.0004476495087146759,-0.00026222935412079096
1782661685327299000,3.077299072265625,-0.001071062870323658,0.0012386082671582699,0.00009223743109032512
1782661685337369900,3.087369873046875,-0.0011076234513893723,-0.0005628757644444704,-0.00008672446710988879
1782661685347442000,3.09744189453125,-0.001465552137233317,-0.0012174807488918304,0.00108480011112988
1782661685357513000,3.107512939453125,0.001662255497649312,0.00199412414804101,0.0006128950044512749
1782661685367585000,3.1175849609375,-0.0005849197041243315,0.0011086229933425784,0.000732471002265811
1782661685377656000,3.127656005859375,0.000682396930642426,-0.0015438712434843183,-0.00101740681566298
1782661685387727000,3.13772705078125,-0.0015109825180843472,-0.0016807577339932323,-0.0011055574286729097
1782661685397799000,3.147798828125,-0.00038953626062721014,0.0007670503109693527,-0.0013426968362182379
1782661685407870000,3.157869873046875,-0.0003735573263838887,0.000056252581998705864,-0.002624742453917861
1782661685417942000,3.16794189453125,-0.00008388841524720192,-0.002620900049805641,0.00006303138798102736
1782661685428013000,3.178012939453125,0.002039449755102396,-0.003475242294371128,0.0013698445400223136
1782661685438085000,3.188085205078125,-0.0005655890563502908,0.0006966224173083901,-0.0014509019674733281
1782661685448156200,3.19815625,0.0004999416996724904,-0.0002615830162540078,0.0014154582750052214
1782661685458228200,3.208228271484375,0.00046331400517374277,0.0003201385261490941,0.0001810550456866622
1782661685468299000,3.218299072265625,0.0004310897784307599,-0.0016149143921211362,0.0020758940372616053
1782661685478370000,3.2283701171875,0.00014239602023735642,0.0005781322252005339,-0.00015986085054464638
1782661685488441900,3.23844189453125,-0.0017937221564352512,-0.0017084579449146986,0.0002784954267553985
1782661685498513000,3.248512939453125,0.0007923005614429712,-0.0010021800408139825,0.0005424168193712831
1782661685508585000,3.2585849609375,0.0024376013316214085,-0.0005371920997276902,-0.0014576171524822712
1782661685518656000,3.268656005859375,-0.00010902469512075186,-0.0006523452466353774,0.001466772984713316
1782661685528728000,3.27872802734375,0.00038152962224557996,-0.0028846068307757378,0.0015365479048341513
1782661685538799000,3.288799072265625,-0.001495323027484119,0.0008661900646984577,-0.00247318297624588
1782661685548870100,3.2988701171875,0.001797409262508154,-0.0028427941724658012,0.0017609769711270928
1782661685558942000,3.30894189453125,-0.0017611777875572443,0.0031536477617919445,-0.0032703245524317026
1782661685569013200,3.31901318359375,-0.00145757757127285,-0.00008235929999500513,0.001099656568840146
1782661685579085300,3.329085205078125,-0.0009101944742724299,0.00047244213055819273,0.0006300054956227541
1782661685589156400,3.33915625,0.00013802567264065146,0.0005081285489723086,0.0030609387904405594
1782661685599228400,3.349228515625,-0.00006456312257796526,0.004038805142045021,-0.0016940694767981768
1782661685609299200,3.35929931640625,-0.0014171827351674438,-0.0007735264953225851,-0.0016724979504942894
1782661685619370200,3.369370361328125,0.0004385552601888776,-0.0009169281693175435,0.0009052965324372053
1782661685629442300,3.3794423828125,-0.0018198053585365415,-0.0004279717104509473,0.0014315372100099921
1782661685639513300,3.389513427734375,-0.001601655618287623,0.0009482947643846273,-0.0030384559649974108
1782661685649585200,3.399585205078125,0.00020929391030222178,-0.0016911642160266638,-0.001432569813914597
1782661685659656200,3.40965625,-0.0023104180581867695,-0.00015670456923544407,-0.0002988525084219873
1782661685669728300,3.419728271484375,-0.0016406332142651081,-0.003868618281558156,0.0009147500386461616
1782661685679799300,3.42979931640625,0.00079986487980932,-0.0024652420543134212,0.0011209987569600344
1782661685689870300,3.439870361328125,-0.0014329293044283986,0.00007408193778246641,-0.00023135443916544318
1782661685699942400,3.4499423828125,0.0005666586221195757,0.0002461958210915327,-0.00031187135027721524
1782661685710013400,3.460013427734375,0.001215670956298709,0.0005418066866695881,0.0007485993555746973
1782661685720085500,3.47008544921875,0.0021105255000293255,0.00204233406111598,0.00047470186837017536
1782661685730156300,3.48015625,0.0025368977803736925,-0.0006770195905119181,0.000016638136003166437
1782661685740228400,3.490228271484375,0.000033795018680393696,0.0000060909660533070564,0.0010201388504356146
1782661685750299100,3.500299072265625,0.0009770867181941867,-0.0010312102967873216,-0.0005551209324039519
1782661685760370200,3.5103701171875,-0.0005234902491793036,0.0011881102109327912,-0.0006543698254972696
1782661685770442200,3.520442138671875,-0.0009597160387784243,0.0022307378239929676,0.0008484519203193486
1782661685780513300,3.53051318359375,0.00013985828263685107,-0.0007482116343453526,0.0003921666939277202
1782661685790585300,3.54058544921875,0.0016562622040510178,0.0004842992639169097,0.0007775260601192713
1782661685800656400,3.550656494140625,-0.0013963314704596996,-0.001198585843667388,-0.001885859528556466
1782661685810728200,3.560728271484375,-0.00045117561239749193,0.000053099822252988815,0.0015903647290542722
1782661685820799200,3.57079931640625,-0.0008962592110037804,0.000895900942850858,-0.0022920523770153522
1782661685830870300,3.580870361328125,-0.0014094504294916987,-0.0015214503509923816,-0.000750348495785147
1782661685840942300,3.5909423828125,-0.00003209209535270929,-0.0024135981220752,-0.0004775614070240408
1782661685851013000,3.60101318359375,0.0003474083496257663,-0.00008040282409638166,0.0002540089190006256
1782661685861085400,3.61108544921875,0.0021011303178966045,-0.0009613656438887119,0.003989479970186949
1782661685871156200,3.62115625,-0.00047920632641762495,0.0007473184959962964,0.0010621333494782448
1782661685881228300,3.631228271484375,0.001899241702631116,0.0005639640148729086,-0.0015869166236370802
1782661685891299300,3.64129931640625,-0.0004131810273975134,0.0012561195762827992,0.0013593384064733982
1782661685901371100,3.65137109375,-0.00007443909998983145,-0.00030055514071136713,0.0004602647677529603
1782661685911442200,3.661442138671875,-0.00020253716502338648,-0.0007149429293349385,0.0012299183290451765
1782661685921513200,3.67151318359375,0.0008039213716983795,-0.002609512535855174,-0.0013535036705434322
1782661685931585300,3.681585205078125,-0.0008134163217619061,-0.001269942382350564,0.0006124417996034026
1782661685941656300,3.69165625,0.0002721158671192825,0.001964966068044305,-0.002916143974289298
1782661685951728400,3.701728271484375,-0.0006567946402356029,-0.001824445673264563,0.0021720915101468563
1782661685961799400,3.71179931640625,-0.0014661571476608515,-0.0006725953426212072,0.001604202901944518
1782661685971871500,3.72187158203125,-0.0010309966746717691,0.001669654855504632,-0.0015953186666592956
1782661685981942500,3.731942626953125,-0.0008019369561225176,-0.0006824821466580033,-0.0005848128348588943
1782661685992013300,3.742013427734375,-0.0012847681064158678,-0.000813243561424315,0.00045328735723160207
1782661686002085000,3.752085205078125,0.00044693099334836006,0.001712172874249518,0.0003595645248424262
1782661686012156200,3.76215625,-0.00001592643093317747,0.0003086869837716222,0.00003998519969172776
1782661686022228200,3.772228271484375,-0.0007482533110305667,-0.0014094652142375708,-0.0004708500055130571
1782661686032299300,3.78229931640625,0.0005415155319496989,0.0021881989669054747,-0.0008298441534861922
1782661686042370300,3.792370361328125,-0.0002944323932752013,0.001177248079329729,0.0008531349594704807
1782661686052442400,3.8024423828125,-0.0014462495455518365,0.0005354263121262193,-0.0006302457768470049
1782661686062513400,3.812513427734375,-0.0005347422556951642,-0.0003942679613828659,-0.0016358086140826344
1782661686072585500,3.82258544921875,0.00010255211964249611,-0.0018302444368600845,-0.0008523066062480211
1782661686082656300,3.83265625,0.0009540203609503806,0.00021888897754251957,-0.0016823989572003484
1782661686092728300,3.842728271484375,0.0006597410538233817,0.00019492045976221561,0.0029323266353458166
1782661686102799400,3.85279931640625,-0.0022409604862332344,0.003361575771123171,0.0005273474380373955
1782661686112870100,3.8628701171875,0.001194517477415502,-0.0018153430428355932,0.0018325626151636243
1782661686122942200,3.872942138671875,0.00023922102991491556,0.000932301627472043,-0.001725425012409687
1782661686133013200,3.88301318359375,-0.0005434820195659995,0.001550687593407929,-0.0009384608129039407
1782661686143085300,3.893085205078125,-0.000857983366586268,-0.0028588364366441965,-0.0001287332270294428
1782661686153156400,3.90315625,-0.0011647796491160989,-0.0008345674723386765,-0.000028332025976851583
1782661686163228200,3.913228271484375,-0.002844040747731924,-0.0024795166682451963,-0.0003373799263499677
1782661686173299200,3.92329931640625,0.0007701352005824447,-0.0004978585056960583,-0.0002654746058396995
1782661686183370200,3.933370361328125,0.0001756580313667655,-0.0008408671710640192,-0.00012174891890026629
1782661686193442300,3.9434423828125,0.000650233356282115,-0.0004219519905745983,0.0032050719019025564
1782661686203513300,3.953513427734375,-0.00027832784689962864,-0.0007481386419385672,0.0020446819253265858
1782661686213585400,3.96358544921875,-0.0010772761888802052,-0.0011183179449290037,0.0013687715400010347
1782661686223656400,3.973656494140625,0.00007312058005481958,-0.0009629045380279422,0.00032712199026718736
1782661686233728500,3.983728515625,-0.0008520615519955754,0.0008842640090733767,0.0013756086118519306
1782661686243799300,3.99379931640625,0.0004516698536463082,-0.0007904244121164083,0.000208454264793545
1782661686253870300,4.003870361328125,0.0014958953252062201,0.0010665978770703077,-0.00206482014618814
1782661686263942100,4.013942138671875,-0.0003564528888091445,-0.0022985371761024,0.0010353639954701066
1782661686274013200,4.02401318359375,0.000012661213986575603,-0.0010266115423291922,0.001965073635801673
1782661686284085200,4.034085205078125,-0.0005555880488827825,0.0010576676577329636,0.00010145432315766811
1782661686294156300,4.04415625,-0.0006069870432838798,-0.0006323744310066104,-0.0005148011259734631
1782661686304228400,4.054228271484375,0.0006076671998016536,0.0013067296240478754,-0.0002578733838163316
1782661686314299400,4.06429931640625,-0.0015524227637797594,-0.001731670810841024,-0.001315148314461112
1782661686324370400,4.074370361328125,0.0005413331091403961,-0.0004660810809582472,0.000581687199883163
1782661686334442500,4.0844423828125,-0.00018357939552515745,-0.00012892484664916992,0.0027612182311713696
1782661686344513500,4.094513427734375,0.00126863201148808,-0.00008756271563470364,-0.001062218681909144
1782661686354585300,4.10458544921875,-0.00022833084221929312,0.0010040670167654753,-0.0007237308891490102
1782661686364656000,4.11465625,0.0018146561924368143,-0.0005019075470045209,0.0021908143535256386
1782661686374727200,4.12472705078125,-0.0012200158089399338,0.001374555635266006,0.0009740160312503576
1782661686384799200,4.13479931640625,-0.00005796074401587248,0.0013031763955950737,-0.0020335898734629154
1782661686394870300,4.144870361328125,0.0011252816766500473,-0.0002662243787199259,-0.00007057376205921173
1782661686404942300,4.1549423828125,0.0003569448599591851,0.0011943683493882418,0.0002190550439991057
1782661686415013400,4.165013427734375,-0.0004872771678492427,0.0004710537614300847,0.00007870642002671957
1782661686425085200,4.175085205078125,-0.0023468509316444397,-0.0019016150617972016,0.000023865664843469858
1782661686435156200,4.18515625,0.00010911631397902966,-0.0020092069171369076,0.0006228105630725622
1782661686445227300,4.195227294921875,-0.0011770788114517927,-0.003951242659240961,0.00041057681664824486
1782661686455299300,4.20529931640625,-0.0021142452023923397,0.0013702856376767159,0.0009450732613913715
1782661686465370400,4.215370361328125,-0.00029740820173174143,-0.002645050175487995,0.002690491732209921
1782661686475442400,4.2254423828125,0.0017002290114760399,-0.000668451888486743,0.0013389375526458025
1782661686485513200,4.23551318359375,-0.00007385259959846735,0.0005212967516854405,0.0005562326987273991
1782661686495585300,4.245585205078125,0.0000824750168249011,-0.0015684857498854399,0.0014782189391553402
1782661686505656300,4.25565625,0.00004505581455305219,-0.0014652563259005547,0.00018818076932802796
1782661686515727400,4.265727294921875,0.0014480090467259288,0.00024555844720453024,-0.0008709583780728281
1782661686525799200,4.275799072265625,0.00042873172787949443,-0.0007430555997416377,-0.0012770842295140028
1782661686535870200,4.2858701171875,-0.0027098036371171474,-0.0015449334168806672,-0.00015296402852982283
1782661686545942300,4.2959423828125,-0.0005497761303558946,0.0008006073767319322,0.0016828342340886593
1782661686556013300,4.306013427734375,-0.00045816332567483187,0.000249865697696805,0.0004686991451308131
1782661686566085400,4.31608544921875,0.000215903390198946,-0.00008332822471857071,-0.0015465684700757265
1782661686576156400,4.326156494140625,-0.000578251201659441,-0.0015291584422811866,-0.000571851443964988
1782661686586227500,4.3362275390625,0.0000052638351917266846,0.002006065333262086,-0.0008578713168390095
1782661686596299500,4.346299560546875,0.0011597442207857966,-0.0008235432906076312,-0.0011255190474912524
1782661686606370300,4.356370361328125,-0.00022039480973035097,0.0009638884803280234,-0.0009334821370430291
1782661686616442000,4.366442138671875,-0.0014214804396033287,0.000029118964448571205,-0.00036010355688631535
1782661686626513200,4.37651318359375,-0.0012302848044782877,0.0004765148041769862,-0.0005269132670946419
1782661686636584200,4.386584228515625,-0.0005309387343004346,-0.002065738895907998,-0.0015397134702652693
1782661686646656300,4.39665625,0.0008691641269251704,0.0022796080447733402,-0.000232585211051628
1782661686656727300,4.406727294921875,0.000629745947662741,-0.0007286987965926528,-0.0002584178582765162
1782661686666799400,4.41679931640625,-0.0009792133932933211,0.0016738768899813294,-0.0009403128060512245
1782661686676870400,4.426870361328125,0.0015337453223764896,0.00024322676472365856,0.0030214055441319942
1782661686686942500,4.4369423828125,-0.0022733062505722046,0.000037439982406795025,-0.00011721154442057014
1782661686697013500,4.447013427734375,0.001381615991704166,-0.00026083411648869514,0.00021781408577226102
1782661686707084500,4.45708447265625,-0.00017541972920298576,0.00012839189730584621,-0.001644612057134509
1782661686717156400,4.46715625,0.002498393878340721,-0.001817313488572836,-0.0008925354341045022
1782661686727227100,4.47722705078125,-0.002531985519453883,0.0014477209188044071,-0.00018256608746014535
1782661686737299200,4.48729931640625,0.0011509000323712826,-0.002266057301312685,0.0016126708360388875
1782661686747370200,4.497370361328125,0.0014687944203615189,-0.001500670681707561,-0.0022629990708082914
1782661686757441300,4.507441162109375,-0.0009714599000290036,0.0008000341476872563,0.0003647419507615268
1782661686767513300,4.517513427734375,0.0013716109097003937,0.0021702018566429615,-0.0008383250096812844
1782661686777584400,4.52758447265625,0.0019063736544921994,-0.0005920287221670151,-0.0021688402630388737
1782661686787656200,4.53765625,-0.00009111419785767794,0.0004052050644531846,-0.0011624798644334078
1782661686797727200,4.547727294921875,-0.0003329293103888631,0.0012331819161772728,0.0017733888234943151
1782661686807799300,4.55779931640625,-0.0004367789952084422,-0.00036402198020368814,-0.001393793965689838
1782661686817870300,4.567870361328125,0.0010458027245476842,-0.0012681650696322322,0.0011082458076998591
1782661686827941400,4.57794140625,-0.0013162706745788455,-0.00393435126170516,0.0006924616754986346
1782661686838013400,4.588013427734375,0.002062748186290264,0.0009253852185793221,-0.00045802388922311366
1782661686848084200,4.598084228515625,-0.00019515783060342073,-0.0017317726742476225,0.00186912901699543
1782661686858156300,4.60815625,-0.0011530970223248005,-0.0008207052014768124,0.002035576617345214
1782661686868227300,4.618227294921875,-0.0008235696004703641,0.0011090291664004326,-0.0006663072854280472
1782661686878299100,4.628299072265625,-0.0018374350620433688,-0.0014193758834153414,0.0004343771724961698
1782661686888370200,4.6383701171875,-0.0015580812469124794,0.0004523107782006264,-0.0017729196697473526
1782661686898441200,4.648441162109375,0.0006808382458984852,0.00023339898325502872,0.00038290926022455096
1782661686908513300,4.65851318359375,0.00012079341104254127,-0.0004726663464680314,0.00046258297516033053
1782661686918584300,4.668584228515625,-0.00037348922342061996,-0.0003011588705703616,-0.0009747250005602837
1782661686928656400,4.678656494140625,-0.0021806773729622364,0.0022170706652104855,-0.0014400449581444263
1782661686938727400,4.6887275390625,0.0015450847567990422,0.00018774205818772316,0.0024300608783960342
1782661686948798500,4.698798583984375,0.0008589996723458171,0.00010110205039381981,-0.00041038275230675936
1782661686958870500,4.70887060546875,-0.0009743203409016132,0.0009474546532146633,-0.0022013585548847914
1782661686968941300,4.71894140625,-0.0012310701422393322,-0.0015915154945105314,0.0006332574412226677
1782661686979013000,4.72901318359375,-0.0013557060156017542,0.0014969524927437305,0.0001972980098798871
1782661686989084200,4.739084228515625,-0.0003568674437701702,-0.0007079507922753692,0.000016164849512279034
1782661686999155200,4.7491552734375,-0.0005012108013033867,-0.0007478982442989945,-0.00026346708182245493
1782661687009227300,4.759227294921875,-0.00017937668599188328,0.0005402327515184879,-0.0010722451843321323
1782661687019298300,4.76929833984375,-0.002034268341958523,0.0018550354288890958,-0.0020421685185283422
1782661687029370400,4.779370361328125,-0.00029173167422413826,0.0009382660500705242,0.0005467273877002299
1782661687039441400,4.78944140625,-0.0004656360251829028,0.003180914092808962,-0.001992596546187997
1782661687049513200,4.79951318359375,-0.0005407995777204633,-0.00019009248353540897,0.0007409064564853907
1782661687059584300,4.809584228515625,-0.000090991728939116,-0.00000606803223490715,0.0009052235400304198
1782661687069655300,4.8196552734375,-0.0004672938957810402,-0.0007889305707067251,-0.00012264132965356112
1782661687079727400,4.829727294921875,0.0015007820911705494,-0.0019031970296055079,0.00020652537932619452
1782661687089798100,4.839798095703125,-0.0002812057500705123,-0.001304273959249258,-0.002403827616944909
1782661687099870200,4.8498701171875,-0.0001427213428542018,0.0020049698650836945,-0.001611537067219615
1782661687109941200,4.859941162109375,0.0011686311336234212,-0.0014108909526839852,0.001974281156435609
1782661687120012300,4.87001220703125,0.001423229230567813,0.00027196051087230444,0.0008267249795608222
1782661687130084400,4.88008447265625,0.0024269556161016226,-0.00023076427169144154,0.0013646583538502455
1782661687140155400,4.8901552734375,0.001357430126518011,-0.0004107940476387739,0.0005808901623822749
1782661687150227200,4.900227294921875,0.0008986876928247511,0.0006641841027885675,0.0018596409354358912
1782661687160298200,4.91029833984375,-0.00033488846383988857,-0.0014897806104272604,0.0007456407765857875
1782661687170370300,4.920370361328125,-0.00021538918372243643,-0.0013117745984345675,-0.0006203412194736302
1782661687180441300,4.93044140625,-0.0005277779418975115,-0.0000313266646116972,0.0004784790216945112
1782661687190512400,4.940512451171875,0.00029335898580029607,-0.001854867790825665,0.00025306857423856854
1782661687200584400,4.95058447265625,0.00043024541810154915,0.0013342676684260368,-0.0019333867821842432
1782661687210655200,4.9606552734375,-0.0008798864437267184,-0.0017095666844397783,0.00067878607660532
1782661687220727300,4.970727294921875,0.0002570170327089727,-0.00018384167924523354,0.0005403017858043313
1782661687230798300,4.98079833984375,-0.0017914560157805681,-0.0003944510826840997,0.0012076168786734343
1782661687240869400,4.990869384765625,0.00033161608735099435,-0.000822953530587256,0.003149061230942607
1782661687250941200,5.000941162109375,0.00214729318395257,-0.00001561432145535946,0.00021096348064020276
1782661687261012200,5.01101220703125,-0.0005757890176028013,-0.0017557237297296524,-0.001029004342854023
1782661687271084300,5.021084228515625,0.0011399114737287164,-0.0005165949696674943,0.0007163425325416028
1782661687281155300,5.0311552734375,-0.0007453402504324913,-0.0012463011080399156,0.001293715788051486
1782661687291226400,5.041226318359375,-0.0004054501187056303,-0.00011388806160539389,0.0006047066417522728
1782661687301298400,5.05129833984375,-0.000410510110668838,-0.0010316133266314864,0.00023426092229783535
1782661687311369500,5.061369384765625,-0.0008637945866212249,0.0002846730640158057,-0.0009344876743853092
1782661687321441500,5.071441650390625,-0.000486158300191164,0.0006607114337384701,-0.0003083785413764417
1782661687331512300,5.08151220703125,-0.0004611776676028967,0.001319556962698698,-0.0010223106946796179
1782661687341584100,5.091584228515625,-0.0006238967180252075,0.0008207467617467046,-0.00108809070661664
1782661687351655200,5.1016552734375,0.000983024830929935,-0.0015892552910372615,0.0018774435156956315
1782661687361726200,5.111726318359375,-0.0034327625762671232,-0.00017431762535125017,-0.0008648134535178542
1782661687371798300,5.12179833984375,0.00011318986071273685,-0.00179909763392061,0.00015806843293830752
1782661687381869300,5.131869384765625,0.0002479457762092352,-0.0007777753053233027,-0.0004203701391816139
1782661687391941400,5.14194140625,0.0007997091743163764,-0.0010122465901076794,-0.00024243173538707197
1782661687402012400,5.152012451171875,-0.00038539746310561895,-0.0013747026678174734,-0.0007516281330026686
1782661687412083500,5.16208349609375,-0.002197722438722849,0.001326695317402482,0.0004825199139304459
1782661687422155300,5.1721552734375,-0.00017158943228423595,-0.0005756006576120853,-0.004206241574138403
1782661687432226300,5.182226318359375,-0.0005724391667172313,0.0011126042809337378,-0.00012094934936612844
1782661687442298400,5.19229833984375,-0.0021500957664102316,-0.00015772355254739523,-0.0003353338106535375
1782661687452369200,5.202369140625,-0.0003011956578120589,-0.0009464907925575972,-0.0013612979091703892
1782661687462440200,5.212440185546875,0.00027750921435654163,-0.001659685280174017,-0.0014678244479000568
1782661687472512300,5.22251220703125,-0.0013775361003354192,0.0014094223733991385,-0.0021383557468652725
1782661687482583300,5.232583251953125,-0.0002755201421678066,-0.0008702434133738279,0.0003279977827332914
1782661687492655400,5.2426552734375,0.0011885541025549173,-0.00143809977453202,0.0016935175517573953
1782661687502726400,5.252726318359375,-0.0015651542926207185,-0.0004609861643984914,-0.0021017533726990223
1782661687512797400,5.26279736328125,-0.0006592583376914263,-0.00022870267275720835,-0.0014788593398407102
1782661687522869200,5.272869140625,-0.0006251698359847069,0.0003047285135835409,-0.0022937864996492863
1782661687532940300,5.282940185546875,-0.0009311001049354672,-0.0001244738232344389,-0.00206016912125051
1782661687543012400,5.293012451171875,0.000059862155467271805,0.0006885891780257225,-0.0020348692778497934
1782661687553083400,5.30308349609375,0.000046877190470695496,-0.0001487242989242077,-0.0011948890751227736
1782661687563154700,5.31315478515625,-0.0016402353066951036,-0.0004691027570515871,-0.0003767659654840827
1782661687573225700,5.323225830078125,-0.0016358165303245187,-0.00035707803908735514,-0.0015836912207305431
1782661687583296800,5.333296875,-0.0001926495460793376,0.0016858328599482775,-0.004087595269083977
1782661687593368800,5.343368896484375,0.0023807608522474766,-0.0013913018628954887,-0.0010644129943102598
1782661687603439900,5.35343994140625,-0.0002698831958696246,-0.0008253802079707384,-0.0003429626231081784
1782661687613511700,5.36351171875,-0.00014895177446305752,0.001995817292481661,0.0021176659502089024
1782661687623582700,5.373582763671875,0.00034106988459825516,0.0005992555525153875,0.0006358829559758306
1782661687633653800,5.38365380859375,0.0009168452816084027,-0.00207216152921319,0.0006009956123307347
1782661687643725800,5.393725830078125,0.001054264372214675,0.000282339402474463,0.0007970042061060667
1782661687653796600,5.403796630859375,0.0017790107522159815,0.0028286203742027283,-0.0007606104481965303
1782661687663868700,5.41386865234375,-0.0007746943738311529,-0.0020047505386173725,0.00038667931221425533
1782661687673939700,5.423939697265625,-0.0005016922950744629,-0.0018872672226279974,0.004048094153404236
1782661687684010800,5.4340107421875,0.0005617078859359026,-0.0005618119612336159,0.002355122473090887
1782661687694082800,5.444082763671875,0.0004976607742719352,0.00046820740681141615,0.0024777227081358433
1782661687704153900,5.45415380859375,-0.002733818721026182,-0.00016748905181884766,0.003191716270521283
1782661687714225700,5.4642255859375,-0.0009594785515218973,-0.0026927597355097532,0.00016441644402220845
1782661687724296700,5.474296630859375,-0.0010833155829459429,0.0012636324390769005,0.0004373904666863382
1782661687734368800,5.48436865234375,-0.001478760503232479,-0.0008007942233234644,0.000895076198503375
1782661687744439800,5.494439697265625,-0.0011807528790086508,0.0007622151169925928,-0.0018727472051978111
1782661687754510600,5.504510498046875,0.0005665371427312493,-0.0007310262881219387,0.0029216608963906765
1782661687764583000,5.5145830078125,-0.0005128420889377594,0.00037871289532631636,0.0014848855789750814
1782661687774653700,5.52465380859375,0.00018301437376067042,-0.0005221915198490024,0.00007992249447852373
1782661687784725800,5.534725830078125,0.0004099156940355897,0.0012304347474128008,-0.00017707256483845413
1782661687794796800,5.544796875,-0.0009510423988103867,-0.002028995892032981,0.00035494810435920954
1782661687804867800,5.554867919921875,-0.0015965925995260477,0.0019180749077349901,0.0016678865067660809
1782661687814939600,5.564939697265625,-0.0010881536873057485,-0.0011909035965800285,-0.00014793456648476422
1782661687825010700,5.5750107421875,-0.0005565867759287357,0.00030073290690779686,-0.0012321074027568102
1782661687835082800,5.585082763671875,-0.0005316841416060925,-0.0008654110133647919,0.0018413341604173183
1782661687845153800,5.59515380859375,0.0005152044468559325,-0.0017357321921736002,-0.0005861371173523366
1782661687855224800,5.605224853515625,-0.0006185474339872599,-0.00022489309776574373,0.0003566708182916045
1782661687865297000,5.615296875,-0.001496325246989727,-0.00032263121102005243,0.001087175915017724
1782661687875367700,5.62536767578125,0.0008491836488246918,0.0007763109169900417,0.002636596094816923
1782661687885440000,5.63543994140625,-0.0001718723215162754,-0.000686297076754272,-0.0012367053423076868
1782661687895510800,5.6455107421875,-0.0005653139669448137,-0.0017754962900653481,-0.00024303558166138828
1782661687905581800,5.655581787109375,0.000048544665332883596,-0.001028213300742209,0.0017370246350765228
1782661687915653600,5.665653564453125,0.00014297955203801394,-0.0007366354111582041,0.00028756115352734923
1782661687925724700,5.675724609375,0.0006801391718909144,-0.0005416921339929104,-0.0006181799108162522
1782661687935796700,5.685796630859375,-0.0009450938086956739,0.0002946424065157771,-0.0002795123727992177
1782661687945868800,5.695868896484375,0.0020027593709528446,-0.0009482547175139189,-0.0026113761123269796
1782661687955939800,5.70593994140625,-0.00010829383973032236,-0.00027444050647318363,0.0015938780270516872
1782661687966011600,5.71601171875,-0.0014712997945025563,0.0018467673799023032,-0.0011017736978828907
1782661687976082700,5.726082763671875,0.0005835582851432264,0.000048816436901688576,-0.0017120563425123692
1782661687986154800,5.73615478515625,0.0008626575581729412,-0.0007591865723952651,0.0005987686454318464
1782661687996225800,5.746225830078125,-0.0006122912745922804,-0.0014221640303730965,-0.0007737028645351529
1782661688006296800,5.756296875,-0.001357709988951683,0.0008356639882549644,-0.0002895402139984071
1782661688016369000,5.766368896484375,0.0004357455763965845,0.002019580453634262,-0.0007636928930878639
1782661688026439700,5.776439697265625,-0.0002529479097574949,-0.0012039098655804992,-0.0021994030103087425
1782661688036511700,5.78651171875,-0.0013782917521893978,-0.0018873579101637006,-0.0010079719359055161
1782661688046582800,5.796582763671875,0.00021081656450405717,-0.0015826922608539462,-0.0005033029010519385
1782661688056653800,5.80665380859375,-0.0006410002242773771,-0.0016659634420648217,0.0014558109687641263
1782661688066725600,5.8167255859375,0.0000599438208155334,0.0007330119842663407,-0.0004206523299217224
1782661688076796700,5.826796630859375,-0.0013320907019078732,0.0002928306348621845,-0.000538631749805063
1782661688086868700,5.83686865234375,0.0015840706182643771,0.001704572350718081,-0.0010755250696092844
1782661688096939800,5.846939697265625,0.0009557727607898414,0.0004794350825250149,0.0002582635497674346
1782661688107010800,5.8570107421875,-0.0005992469377815723,-0.00003801716957241297,0.001546967076137662
1782661688117083000,5.867082763671875,-0.00038365740329027176,0.0006354097276926041,0.0006051084492355585
1782661688127154000,5.87715380859375,0.0002573655219748616,-0.0016535772010684013,-0.00044763911864720285
1782661688137226000,5.88722607421875,0.0003521687467582524,-0.0005120513960719109,0.0019405132625252008
1782661688147296800,5.897296875,0.0011742865899577737,-0.00039620394818484783,0.00018282688688486814
1782661688157367800,5.907367919921875,-0.0011413389584049582,-0.0024728900752961636,0.0006531001999974251
1782661688167439600,5.917439697265625,0.0008967781323008239,0.0005244973581284285,0.002102392492815852
1782661688177510700,5.9275107421875,-0.0010372218675911427,-0.00001482618972659111,0.00021863135043531656
1782661688187582700,5.937582763671875,0.0008200667798519135,0.0015785431023687124,-0.0007720645517110825
1782661688197653800,5.94765380859375,-0.0017174339154735208,0.0005030295578762889,-0.0002500744303688407
1782661688207724800,5.957724853515625,-0.0005176798440515995,-0.0013257631799206138,-0.0017566245514899492
1782661688217796900,5.967796875,-0.0006483069155365229,-0.0021699778735637665,0.0005825332482345402
1782661688227868000,5.977867919921875,0.0016137820202857256,0.0011094387155026197,-0.001869439147412777
1782661688237939700,5.987939697265625,-0.002472209744155407,-0.0012041175505146384,0.001595871988683939
1782661688248010800,5.9980107421875,-0.0010338362772017717,0.0069036101922392845,0.0043700868263840675
1782661688258082800,6.008082763671875,-0.01210422907024622,-0.01290077343583107,-0.01259795855730772
1782661688268153600,6.018153564453125,0.00615333765745163,-0.013329808600246906,0.002219602931290865
1782661688278224600,6.028224609375,-0.008164987899363041,0.0019160420633852482,-0.00016847220831550658
1782661688288296700,6.038296630859375,0.00191268022172153,-0.004427873995155096,0.0009378049289807677
1782661688298367700,6.04836767578125,-0.0007259607082232833,0.00020097114611417055,-0.004255533218383789
1782661688308439800,6.058439697265625,-0.00047588988672941923,-0.003268861211836338,-0.001785451197065413
1782661688318510800,6.0685107421875,0.0003702677204273641,-0.01178890559822321,-0.0025850990787148476
1782661688328582000,6.078581787109375,0.001420352142304182,-0.011995567008852959,-0.0023629916831851006
1782661688338653700,6.08865380859375,-0.0011662457836791873,0.00029034342151135206,0.00011599052231758833
1782661688348724700,6.098724853515625,0.0023565837182104588,-0.0034332885406911373,0.0017919178353622556
