time,seconds_elapsed,z,y,x
1782811338782203400,0.071203369140625,-0.08833645510077476,-0.1839339872457087,-0.409591585368663
1782811338792274400,0.0812744140625,0.09045125529766082,-0.14469064887687563,-0.23877236963137982
1782811338802346500,0.091346435546875,0.20929390782117843,-0.055884238176792854,-0.05242869089543819
1782811338812417500,0.10141748046875,0.1814361790806055,0.05817351815775036,0.06852773891165852
1782811338822488600,0.111488525390625,0.19082476967275142,0.20521189920455216,0.19468641353696584
1782811338832560600,0.121560546875,0.26210429151058195,0.3277500452451408,0.3339747649788856
1782811338842631700,0.131631591796875,0.29381752663552757,0.385022084518522,0.4326043582960963
1782811338852703500,0.141703369140625,0.13208616497814654,0.33863150474354625,0.4231364188574254
1782811338862774300,0.151774169921875,-0.16979016495048999,0.23526553055420515,0.25356983352974055
1782811338872845300,0.16184521484375,-0.52149289432168,0.15761179750934243,0.025724808365106582
1782811338882917400,0.17191748046875,-0.6179179633319377,0.07626490903496742,-0.17250030069202182
1782811338892988400,0.181988525390625,-0.4824351416528225,-0.13745923631861806,-0.3216502670653164
1782811338903059500,0.1920595703125,-0.07242050856649875,-0.28240634417459365,-0.4684738363176584
1782811338913131500,0.202131591796875,0.40498949840068815,-0.41375571931079025,-0.4698132682278752
1782811338923202600,0.21220263671875,0.7941331928938626,-0.5791719069607556,-0.4233374943874776
1782811338933274600,0.222274658203125,0.9722679923415184,-0.7275536654405296,-0.39186303645446896
1782811338943345700,0.232345703125,0.9326952758878468,-0.8125907867349684,-0.3958106050364673
1782811338953416700,0.242416748046875,0.763358115401864,-0.8460502810053527,-0.3636183542229235
1782811338963488500,0.252488525390625,0.5402595541119575,-0.8327994620271026,-0.24102336342856287
1782811338973559300,0.262559326171875,0.21696868023276328,-0.7835172524638474,-0.0692060765646398
1782811338983630300,0.27263037109375,-0.15713526603877542,-0.7098303772233426,0.05443301645517349
1782811338993702400,0.282702392578125,-0.5356996988505125,-0.6070129768274725,0.11242679413184523
1782811339003773400,0.2927734375,-0.8046610166490078,-0.4464673178233206,0.2119575740724802
1782811339013845500,0.302845458984375,-1.0202239217370748,-0.271270763784647,0.338204803764075
1782811339023916500,0.31291650390625,-1.111388878262043,-0.08906023933067918,0.4464107653304934
1782811339033987600,0.322987548828125,-1.038925699597597,0.049664486879110334,0.5547219408370554
1782811339044059400,0.333059326171875,-0.8148644307553767,0.10888473761081695,0.6220962719298899
1782811339054130400,0.34313037109375,-0.45872927189469337,0.11246931809931993,0.7030798800498247
1782811339064201500,0.353201416015625,-0.0446335069745779,0.07710705894753336,0.7029974624633789
1782811339074273500,0.3632734375,0.36709669785797594,-0.011351853489130734,0.6701246820397675
1782811339084344300,0.37334423828125,0.6849409967690706,-0.12509718287363647,0.6114411685332656
1782811339094416400,0.38341650390625,0.8378133446663618,-0.21679040105640887,0.5673761090964079
1782811339104487400,0.3934873046875,0.8747796780139208,-0.25896643187627194,0.528869998960942
1782811339114558000,0.403557861328125,0.8280383851051331,-0.3390560137659311,0.445424969163537
1782811339124630300,0.41363037109375,0.6303647724509239,-0.38223128475621343,0.3570139875218272
1782811339134701000,0.423701171875,0.33641339030265804,-0.38504897252544756,0.29987258889079094
1782811339144773000,0.433773193359375,0.05321721092462539,-0.3711423199869692,0.23303251080513
1782811339154844200,0.44384423828125,-0.15042378570139409,-0.3791844644062221,0.14783888377472756
1782811339164915200,0.453915283203125,-0.3133674457579851,-0.37224692022800443,0.07203852351158857
1782811339174987000,0.463987060546875,-0.43479543859958647,-0.32653190162703394,0.03096051706150174
1782811339185058000,0.47405810546875,-0.4385913237512111,-0.2968577711142599,0.024226532631367443
1782811339195129000,0.484129150390625,-0.3109130383431911,-0.30093130416348574,0.03294131561517715
1782811339205201200,0.494201171875,-0.1714800177335739,-0.32567879192903637,0.055606736409664154
1782811339215272200,0.504272216796875,-0.046074353432655334,-0.3583466974303126,0.09614274493753909
1782811339225344300,0.51434423828125,0.10657587614655493,-0.3401879404053092,0.15768091722279787
1782811339235415000,0.5244150390625,0.19707915389239786,-0.3242620569989085,0.19625629320219157
1782811339245486000,0.534486083984375,0.13763269318938254,-0.30980120464377103,0.226852799256891
1782811339255558000,0.544557861328125,0.10200900662243366,-0.33194552417360246,0.26760435023158785
1782811339265629000,0.55462890625,0.1996533882945776,-0.3687317517139017,0.3017167554527521
1782811339275700000,0.564699951171875,0.3847036662191152,-0.41635201941430566,0.33942075542509553
1782811339285772000,0.57477197265625,0.5114169059872627,-0.48774515769444404,0.3669662033461034
1782811339295843000,0.584843017578125,0.4449415695607662,-0.4938611563567072,0.31695670242160556
1782811339305915100,0.5949150390625,0.3182587249308824,-0.4786900368403643,0.2401872048653662
1782811339315986200,0.604986083984375,0.10027648374140262,-0.4766922140866518,0.18965733332857487
1782811339326057200,0.61505712890625,-0.11084814663827419,-0.4716691982928663,0.1799253361262381
1782811339336129300,0.62512939453125,-0.25905074915885923,-0.4232712242182344,0.1300011753976345
1782811339346200000,0.635199951171875,-0.31273265498578545,-0.38002464155741034,0.11032616859078406
1782811339356271000,0.64527099609375,-0.29096505981385706,-0.3732853233650327,0.11624606015905738
1782811339366343000,0.655343017578125,-0.20975509559214114,-0.369559800035879,0.06320537484511733
1782811339376414000,0.6654140625,-0.03760930742621422,-0.4106052193906158,0.03342734556645155
1782811339386485000,0.675485107421875,0.21909049469232558,-0.43727286156378686,0.04588365316614508
1782811339396557000,0.68555712890625,0.47857145196199413,-0.49594504995867605,0.08648045197054743
1782811339406628000,0.695628173828125,0.7034609883219003,-0.5050478824120015,0.16904110014885662
1782811339416700200,0.7057001953125,0.8219277932703495,-0.5187328550238162,0.22528993385434148
1782811339426771200,0.715771240234375,0.6971200948625803,-0.5381115822978317,0.19335458041131495
1782811339436842200,0.72584228515625,0.4886766663908958,-0.5626994955874979,0.14915931872352955
1782811339446914300,0.735914306640625,0.21883856575787067,-0.6043321402456611,0.07147460601851344
1782811339456985000,0.745985107421875,-0.1389163032591343,-0.6343807300940155,0.034115327830612656
1782811339467057000,0.756056884765625,-0.45511868018209933,-0.6243917624559253,-0.056713528607785696
1782811339477128000,0.7661279296875,-0.7642202851891517,-0.5735165846128016,-0.08936331393048166
1782811339487199000,0.776198974609375,-0.9650567457884549,-0.5115749460931867,-0.11901771682947873
1782811339497271000,0.78627099609375,-1.0254647450000047,-0.4673828262105584,-0.1323456926971674
1782811339507342000,0.796342041015625,-0.9505851528435945,-0.43103111763000485,-0.07276070030629635
1782811339517413000,0.8064130859375,-0.6804261496931314,-0.38181481290981173,-0.0017275544449687004
1782811339527485200,0.816485107421875,-0.28991935015320774,-0.3950165320493281,0.07651333083808422
1782811339537556200,0.82655615234375,0.09064648560881614,-0.4613930842764675,0.1438243874363601
1782811339547628300,0.836628173828125,0.4520212986886501,-0.5543371793031692,0.19613748912811277
1782811339557699300,0.84669921875,0.8196323758095503,-0.6754138014238328,0.20709347516745327
1782811339567770000,0.85677001953125,1.049696099936962,-0.7794856588602066,0.2293722347319126
1782811339577842000,0.866842041015625,1.0400602565854786,-0.8019312994241714,0.2537808459319174
1782811339587913000,0.876912841796875,0.8338783433049917,-0.8023622381873429,0.2637536661528051
1782811339597984000,0.88698388671875,0.5882458786457777,-0.8400136311896145,0.23206161994636057
1782811339608056000,0.89705615234375,0.3774070794701576,-0.8695423618823289,0.17857465216964483
1782811339618127000,0.907127197265625,0.19556641124188898,-0.8508031746208667,0.1997393130123615
1782811339628198100,0.9171982421875,0.1888783117800951,-0.8310374938558787,0.2498867611028254
1782811339638270200,0.927270263671875,0.27481004382669927,-0.9004989334210753,0.2975685497321188
1782811339648341200,0.93734130859375,0.36649522483348845,-0.9452541670791804,0.3271614317022264
1782811339658413000,0.9474130859375,0.3919470614761114,-0.9518000085260718,0.362788479270041
1782811339668484000,0.957484130859375,0.2787900533735752,-0.9564647854667157,0.40319691589549184
1782811339678555100,0.96755517578125,0.07390227155685425,-0.9024679684717207,0.40879152103215455
1782811339688627000,0.977626953125,-0.1292471421599388,-0.840337164055556,0.4380985717982053
1782811339698698000,0.987697998046875,-0.19914193164110183,-0.7686415356975048,0.46671720190867777
1782811339708769000,0.99776904296875,-0.185627785551548,-0.7411618464890867,0.5276908721789717
1782811339718841000,1.007841064453125,-0.09367606256306171,-0.7006256918307393,0.5785132969215512
1782811339728912100,1.017912109375,-0.033794717574119566,-0.6495972961872816,0.6025730946838855
1782811339738984200,1.027984130859375,-0.012476619735360146,-0.6105902142597363,0.6232736451461911
1782811339749055200,1.03805517578125,0.026505729609727857,-0.565901469966583,0.6472295441426337
1782811339759126300,1.048126220703125,0.06653846479058265,-0.5955296789783984,0.6327100204028189
1782811339769198000,1.058197998046875,0.14559154323935508,-0.6735575790978968,0.5968963642217219
1782811339779268900,1.068268798828125,0.20365034897625445,-0.7499328166395426,0.5254518610805273
1782811339789340000,1.07833984375,0.22389468010365962,-0.8453453476063907,0.4560569839455187
1782811339799412000,1.088411865234375,0.2352110238879919,-0.9170841575190425,0.32938582975342867
1782811339809483000,1.09848291015625,0.14383271687328814,-0.9781371766358613,0.21565189854577183
1782811339819555000,1.10855517578125,0.06531856760680675,-1.0134328733574598,0.16222878978550434
1782811339829626000,1.118626220703125,0.02910626749694347,-1.0011905738346278,0.15452625258415936
1782811339839697200,1.128697265625,0.07184943068027495,-1.006813747478649,0.17277093432694673
1782811339849769200,1.138769287109375,0.04905775315761566,-1.0024782755576074,0.20551205119490623
1782811339859840300,1.14884033203125,-0.07085691251158714,-0.9786024560600518,0.16488281142562627
1782811339869911300,1.158911376953125,-0.22198153995871542,-0.9855462838485837,0.16496785936057567
1782811339879983000,1.168983154296875,-0.26248890691399573,-0.9994611196935176,0.1745906971000135
1782811339890054000,1.179053955078125,-0.23539514828324318,-1.024192240846157,0.22032792753279207
1782811339900126000,1.1891259765625,-0.2594038003802299,-1.0825332245253025,0.19929551476761698
1782811339910197000,1.199197021484375,-0.29463293467164037,-1.0923239661775528,0.2052528157368302
1782811339920268000,1.20926806640625,-0.273141233831644,-1.088269137828797,0.1978254422150552
1782811339930340000,1.219340087890625,-0.28192309070229526,-1.0647709925372153,0.19224618077799677
1782811339940411100,1.2294111328125,-0.3687608316779136,-1.0511283977624029,0.20963219986483453
1782811339950482200,1.239482177734375,-0.543041293784976,-1.084807891459018,0.18438932979777453
1782811339960554200,1.24955419921875,-0.7160065816402434,-1.1145164356980473,0.13077917403280734
1782811339970625300,1.259625244140625,-0.8460317224353552,-1.1465732966288924,0.03279898453503847
1782811339980697000,1.269697021484375,-0.9915040232092142,-1.2211935071967541,-0.10024112016707658
1782811339990768000,1.27976806640625,-1.1106079570174217,-1.3100095625080168,-0.25545710858106613
1782811340000839000,1.2898388671875,-1.1168319460988043,-1.3958835730180144,-0.38524990192502734
1782811340010911000,1.299910888671875,-1.1267980443179606,-1.5422998766437173,-0.4683110469713807
1782811340020982000,1.30998193359375,-1.1640420255631208,-1.6914542269311845,-0.4491217778548598
1782811340031053000,1.320052978515625,-1.1995546529710293,-1.7175662810482084,-0.38985447311103344
1782811340041125000,1.330125,-1.3200094168663024,-1.5704551270261407,-0.2622659118130803
1782811340051196200,1.340196044921875,-1.5451602345108986,-1.298612993094325,-0.08524082717299461
1782811340061267200,1.35026708984375,-1.764541821104288,-0.9445883966468274,0.06815174520611762
1782811340071339000,1.360339111328125,-1.827511779758334,-0.6402481608226895,0.13088847962617872
1782811340081410000,1.37041015625,-1.6969383574306964,-0.451106668061763,0.13503040173649788
1782811340091482000,1.380482177734375,-1.3927163411587475,-0.38579482245668767,0.08681377557814121
1782811340101553200,1.39055322265625,-0.9647001874357461,-0.5034254688419402,0.01971475429534912
1782811340111624000,1.4006240234375,-0.5162146616578102,-0.725857382916659,-0.05486264004409313
1782811340121696800,1.41069677734375,-0.14765899716317651,-0.8904382887862622,-0.08519435768276452
1782811340131767800,1.420767822265625,0.07628653634488582,-0.9874215031359345,-0.11663023717105388
1782811340141838800,1.4308388671875,0.05837035590410232,-0.9205987415112554,-0.0799170018017292
1782811340151910700,1.44091064453125,-0.1760503943890333,-0.6840063462674617,-0.03779723121374845
1782811340161981700,1.450981689453125,-0.37542788835167884,-0.4134776330217719,-0.02898907085806131
1782811340172052700,1.461052734375,-0.48711540842354295,-0.25020433915201573,-0.0712765992283821
1782811340182124500,1.47112451171875,-0.5739981575846672,-0.12208868524003773,-0.14644377615451812
1782811340192195600,1.481195556640625,-0.5848942301303148,-0.049052675123699006,-0.25979689135104417
1782811340202267600,1.491267578125,-0.5092933379620314,-0.06330536462087184,-0.4063274690061807
1782811340212338700,1.501338623046875,-0.340753465333581,-0.12536810876950621,-0.5024585235059261
1782811340222409700,1.51140966796875,-0.15558745207488536,-0.19582791172228753,-0.5558104667261242
1782811340232481800,1.521481689453125,-0.007491817060112952,-0.26272483456172047,-0.566005113004148
1782811340242552800,1.531552734375,0.11284019723832607,-0.2424622736578807,-0.5826549267709255
1782811340252624000,1.541623779296875,0.33524142391383643,-0.10367412682306021,-0.5313385810315608
1782811340262695700,1.55169580078125,0.635894349527359,0.017703158744610845,-0.3831961842656135
1782811340272766700,1.5617666015625,0.8667471782058477,0.0903977715447545,-0.22781799102723596
1782811340282838800,1.5718388671875,0.9876368263870478,0.19660108805187046,-0.06812544172108173
1782811340292909600,1.58190966796875,0.9451941074550151,0.2957552166998386,0.03693213881701231
1782811340302980600,1.591980712890625,0.7522036841809749,0.4035498209863901,0.13725070813447235
1782811340313052700,1.602052734375,0.48224283395111556,0.5518825526926666,0.22727789280116556
1782811340323123700,1.612123779296875,0.24891221698224544,0.5908939820017666,0.30354163279235363
1782811340333194800,1.62219482421875,0.054742228534817694,0.5300749908365309,0.3315583514869213
1782811340343266800,1.632266845703125,-0.0995803181707859,0.4058386625759303,0.26149142030924555
1782811340353337900,1.642337890625,-0.16543080069720745,0.2278439291860908,0.10820581543594598
1782811340363409000,1.652408935546875,-0.10643968254625796,0.08826930814869702,-0.0118795306250453
1782811340373480700,1.662480712890625,0.11822072123289108,-0.0004752162963151931,-0.07777998977303505
1782811340383551700,1.6725517578125,0.4987029703646898,-0.05388816898874938,-0.0719192810460925
1782811340393623800,1.682623779296875,0.8528630297601223,-0.09053023881800472,-0.035478286746889354
1782811340403694600,1.692694580078125,1.140402791300416,-0.12065649701245128,0.013148673778027295
1782811340413765600,1.702765625,1.4036597599774598,-0.10907799516059458,0.09155044871121644
1782811340423837700,1.712837646484375,1.6378993084847926,-0.1301577541988343,0.16414806741029023
1782811340433908700,1.72290869140625,1.777535158190131,-0.17197364646941424,0.22795009297430513
1782811340443979800,1.732979736328125,1.7835808680951595,-0.21849939693138,0.3165124657854438
1782811340454051800,1.7430517578125,1.6999205881118773,-0.2681439370010048,0.3449311894096434
1782811340464123000,1.753122802734375,1.5818296307384967,-0.3116641489714384,0.2933648144319653
1782811340474194700,1.763194580078125,1.506779358190298,-0.38727855820842083,0.2454110769934952
1782811340484265700,1.773265625,1.5375982748240231,-0.4558225176025182,0.20060762027949094
1782811340494336500,1.78333642578125,1.5651842008858918,-0.5164503701098263,0.18287907136529682
1782811340504408800,1.793408935546875,1.5609323886603117,-0.5755192296721041,0.1795204085871577
1782811340514479600,1.803479736328125,1.4665560688734054,-0.6646092065539211,0.11848711708411573
1782811340524550700,1.813550537109375,1.2710305741637944,-0.7874868136819452,-0.002328004556149244
1782811340534622700,1.823622802734375,1.0796820728778838,-0.8829442067038268,-0.13279080611616373
1782811340544693800,1.83369384765625,0.9224252262860536,-0.941192178337276,-0.18819412890821693
1782811340554764800,1.843764892578125,0.7656126163303851,-0.98153171444498,-0.23070786724984643
1782811340564836900,1.8538369140625,0.6263602129846811,-1.052033676039055,-0.26464389299079777
1782811340574908000,1.863907958984375,0.4264414517521858,-1.1656780292671174,-0.3584133329257369
1782811340584979700,1.873979736328125,0.22210253598988056,-1.2783977419309318,-0.498032085365802
1782811340595050800,1.88405078125,0.0516571220010519,-1.3486796310335396,-0.6080890816263854
1782811340605121500,1.89412158203125,-0.1181371346026659,-1.3858818189635873,-0.6286255275681615
1782811340615193600,1.904193603515625,-0.22060732899606228,-1.437850783392787,-0.6072806878529489
1782811340625264600,1.9142646484375,-0.24741642546653747,-1.53102064999938,-0.5903801141954959
1782811340635335700,1.924335693359375,-0.25505495752096174,-1.6630032084725797,-0.6276086056105792
1782811340645407700,1.93440771484375,-0.3939829512178898,-1.7998431438490747,-0.7051156236611307
1782811340655478800,1.944478759765625,-0.565501547396183,-1.864792439752072,-0.806518042692542
1782811340665549800,1.9545498046875,-0.7152420270085335,-1.9148050094164908,-0.9024209875248372
1782811340675621600,1.96462158203125,-0.8590279821306467,-1.9660836534939705,-0.9371741748675704
1782811340685692700,1.974692626953125,-0.9672849432319403,-1.9941409964598713,-0.9626211892046034
1782811340695764700,1.9847646484375,-0.9770078803449869,-1.858437663897872,-0.9470065637044608
1782811340705835800,1.994835693359375,-0.861550778606534,-1.792146597997099,-0.8817528780274093
1782811340715906600,2.004906494140625,-0.7843272536724806,-1.79737178529948,-0.7150745614871382
1782811340725978600,2.014978515625,-0.8877262533485889,-1.7747692006081341,-0.5862875841848552
1782811340736049700,2.025049560546875,-1.2665607352733612,-1.599417894399166,-0.49214302732720966
1782811340746120700,2.03512060546875,-1.666853015768528,-1.2708147394560276,-0.34480274072438477
1782811340756192800,2.04519287109375,-1.9320546887725591,-0.8140709422901272,-0.0848133955411613
1782811340766263800,2.055263916015625,-2.0546429575651883,-0.35627442120090125,0.1998985952273011
1782811340776335600,2.065335693359375,-2.051239871123433,0.11861118185520171,0.48008916304856536
1782811340786406700,2.07540673828125,-1.8976982456624507,0.5496178956963121,0.7256551383428275
1782811340796477700,2.085477783203125,-1.607135336908698,0.861212194301933,0.926231778962165
1782811340806549800,2.0955498046875,-1.14834001404047,1.0085723546490073,1.0566063177168368
1782811340816620800,2.105620849609375,-0.6842097598850727,1.042746280799061,1.1181688937909902
1782811340826691600,2.115691650390625,-0.4077759142488241,1.0418019856862724,1.0667350591517983
1782811340836763600,2.125763671875,-0.3129892600953579,1.0697038458295165,0.9285602219097315
1782811340846834700,2.135834716796875,-0.14411270285844802,1.0828940206617117,0.7922657915867864
1782811340856905700,2.14590576171875,0.020378186640143393,1.031645917852968,0.6328248789541423
1782811340866977800,2.155977783203125,0.39010172587037084,1.024674617535621,0.5225527786381542
1782811340877048800,2.166048828125,0.7552005279093981,0.9401201651915907,0.5429445554122329
1782811340887120600,2.17612060546875,1.027044123145938,0.7745050939686596,0.5863999585181474
1782811340897191700,2.186191650390625,1.2043325348973273,0.602020136976242,0.572557749518007
1782811340907262700,2.1962626953125,1.231404081696272,0.46891558873578904,0.517312539897114
1782811340917334800,2.206334716796875,1.2813643366515635,0.36499665683880445,0.4564249404750764
1782811340927405800,2.21640576171875,1.3010679850310087,0.25937004424110055,0.4197565671607852
1782811340937476600,2.2264765625,1.1893220127701758,0.1509486863583326,0.33412484097406264
1782811340947548700,2.236548583984375,0.9558411736756562,0.0866416338816285,0.20702435545399783
1782811340957619700,2.24661962890625,0.6599404110252857,0.10316592157259583,0.09887509251087903
1782811340967690800,2.256690673828125,0.3658241937041282,0.16218933455795048,0.06509630315825343
1782811340977762800,2.2667626953125,0.2149234381407499,0.23660072468072174,0.05504252665564417
1782811340987833900,2.276833740234375,0.1654535970509052,0.2955094252452254,0.11636544875502586
1782811340997905700,2.28690576171875,0.2453635845899582,0.3537809969499707,0.1884416739284992
1782811341007976700,2.296976806640625,0.41725569025576115,0.3515672664232552,0.2601272923491895
1782811341018047700,2.3070478515625,0.5855570779532194,0.29037133170440793,0.3118444739744067
1782811341028119800,2.317119873046875,0.6701601917445659,0.21561090894825755,0.3834681330747902
1782811341038190800,2.32719091796875,0.7600842082977295,0.23453275930024683,0.48928106202483174
1782811341048261600,2.33726171875,0.8495575584739447,0.251993085732311,0.5441162295401096
1782811341058333700,2.347333740234375,0.9826128607451915,0.19847133890315888,0.536075546425581
1782811341068404700,2.35740478515625,1.1272148084253073,0.1542969008076936,0.46641368891745805
1782811341078475800,2.367475830078125,1.2843401375919579,0.12592990737073123,0.4347007460534572
1782811341088547600,2.377547607421875,1.3741671235114334,0.08672828925177455,0.45707668238207694
1782811341098618600,2.38761865234375,1.5260118819266557,0.015400544358044862,0.4827181963779032
1782811341108690700,2.397690673828125,1.6443512611031532,-0.07060454518571496,0.5073872120797633
1782811341118761200,2.40776123046875,1.6779267829686402,-0.181272074560076,0.5090244578927755
1782811341128832300,2.417832275390625,1.6040022995799779,-0.25175840019360185,0.4761852874778211
1782811341138904300,2.427904296875,1.468821091195941,-0.2479640494119376,0.4495741977974772
1782811341148975400,2.437975341796875,1.3129443007856607,-0.2556512429136783,0.4735319964900613
1782811341159046400,2.44804638671875,1.0676321541219949,-0.2517035282012075,0.5084614171825349
1782811341169118500,2.458118408203125,0.789143714043498,-0.16879194769337771,0.6064478902906179
1782811341179189500,2.468189453125,0.4776052372783422,-0.054491907035559416,0.7373372466996312
1782811341189260300,2.47826025390625,0.2192944928318262,0.013991919669136405,0.8170002737402915
1782811341199332400,2.488332275390625,0.12722235833406448,0.09341112801656126,0.8530375095441937
1782811341209403400,2.4984033203125,0.04083236112594604,0.1253788493592292,0.9232323048852383
1782811341219475200,2.50847509765625,-0.07322948686182498,0.1543394978404045,0.9140444975621997
1782811341229546200,2.518546142578125,-0.2616150466889143,0.1961572167418897,0.898658858512342
1782811341239617300,2.5286171875,-0.40785190209448335,0.15175349993519485,0.8403452012315392
1782811341249689300,2.538689453125,-0.5286982956558466,0.031590047136694194,0.7574347167022526
1782811341259760400,2.548760498046875,-0.7426455822408199,-0.2247119878359139,0.5946081071540713
1782811341269831400,2.55883154296875,-1.0020733480185269,-0.4651403079807758,0.3652455170333385
1782811341279903500,2.568903564453125,-1.449734697932005,-0.6305572993483394,0.07254413494616746
1782811341289974500,2.578974609375,-2.0502841778337952,-0.6510231642719357,-0.18384806252792477
1782811341300045300,2.58904541015625,-2.651003753605485,-0.5838186367880552,-0.3615285423368215
1782811341310117000,2.5991171875,-3.1167303370416164,-0.5231295190801843,-0.46368996304199095
1782811341320188200,2.609188232421875,-3.3424797051012516,-0.4842304275717586,-0.6719587655991316
1782811341330260200,2.61926025390625,-3.2518793967217205,-0.41377793114259837,-0.9986132706925273
1782811341340331300,2.629331298828125,-2.9665286696583033,-0.46842163120638575,-1.2056487320624292
1782811341350402300,2.63940234375,-2.5287065767139194,-0.753011931823939,-1.2394210916742683
1782811341360474400,2.649474365234375,-2.139596784490347,-0.9557711771793663,-1.1397282530397177
1782811341370545400,2.65954541015625,-1.768568007880449,-0.9424379406146705,-0.9327266939394175
1782811341380616400,2.669616455078125,-1.477071617668867,-0.7295924777917564,-0.6238524679474532
1782811341390688500,2.6796884765625,-1.3210790919244288,-0.4169944089710712,-0.3404635424762964
1782811341400759600,2.689759521484375,-1.151391218304634,-0.1307255806820467,-0.176261699052155
1782811341410830300,2.699830322265625,-0.9011106355786322,0.008359101413935423,-0.06441241254732012
1782811341420902100,2.709902099609375,-0.694032065719366,-0.014423077628016472,-0.06977832349464297
1782811341430973200,2.71997314453125,-0.6854062761932611,-0.08140789794661105,-0.12636954089701175
1782811341441045200,2.730045166015625,-0.7762965074300765,-0.11194481930118054,-0.29119316948130725
1782811341451116300,2.7401162109375,-0.8255003910601139,-0.11104684754814952,-0.4453660785831511
1782811341461187300,2.750187255859375,-0.6650508859068155,-0.08536584179215133,-0.5400058716118336
1782811341471259400,2.76025927734375,-0.32554829741716385,-0.05439089434649795,-0.5999409926146269
1782811341481330400,2.770330322265625,0.0068967737764120095,-0.0338530236326158,-0.6390683033883571
1782811341491401500,2.7804013671875,0.24929332525432107,0.08273271680958569,-0.6347165379196406
1782811341501473500,2.7904736328125,0.42106326584517956,0.22652422488965093,-0.6142049341581761
1782811341511544600,2.800544677734375,0.5468289956301451,0.312629559937492,-0.6029455812580883
1782811341521615400,2.810615478515625,0.6510737984806299,0.33039106127321716,-0.5624854144454002
1782811341531687200,2.820687255859375,0.7268921327918767,0.36562830580584704,-0.5622463449925184
1782811341541758200,2.83075830078125,0.7201847441077232,0.4017346613232046,-0.5911931841440499
1782811341551830300,2.840830322265625,0.6370522873908281,0.4072643845301121,-0.6598265753872692
1782811341561901300,2.8509013671875,0.48082244575917715,0.3646580725342035,-0.6940887643426656
1782811341571972400,2.860972412109375,0.3683522508770227,0.31471849504075944,-0.7034039974376559
1782811341582044400,2.87104443359375,0.29083178882300853,0.2697265300173312,-0.6494912054643035
1782811341592115500,2.881115478515625,0.30314474242925643,0.25904468474425374,-0.5577870274960994
1782811341602186500,2.8911865234375,0.3959218103259802,0.21463950663283465,-0.4978168351799249
1782811341612258600,2.901258544921875,0.5575532187402248,0.13765760843493044,-0.4596452176958322
1782811341622329300,2.911329345703125,0.7467500949501991,0.1170752044595778,-0.41645197265744205
1782811341632400400,2.921400390625,0.9393471349924802,0.18561960224509239,-0.2924495992831886
1782811341642472200,2.93147216796875,1.162687688344717,0.29130583607554433,-0.1160964225552976
1782811341652543200,2.941543212890625,1.402814541324973,0.2898236346937716,-0.028764029930531978
1782811341662615300,2.951615234375,1.5571300737679004,0.25752470863536,0.008107026349008083
1782811341672686300,2.961686279296875,1.64241766269207,0.20332637771889567,-0.011909341241419315
1782811341682757400,2.97175732421875,1.6798258945882318,0.16991437585204838,-0.014911884058266878
1782811341692829400,2.981829345703125,1.7719155647426843,0.11066782163530588,-0.025814094083756206
1782811341702900500,2.991900390625,1.8881459889411925,0.00002586509361863136,-0.05781666754409671
1782811341712971500,3.001971435546875,1.9664245758861303,-0.10505772666856646,-0.09164119573459029
1782811341723043300,3.012043212890625,1.9361252992123363,-0.19712518499121068,-0.14875833670720456
1782811341733114400,3.0221142578125,1.853101563566923,-0.27731954242959617,-0.19616072387322783
1782811341743185400,3.032185302734375,1.8045564361065625,-0.35216800879538057,-0.2273502273850143
1782811341753257200,3.04225732421875,1.7669062121480703,-0.4654965740725398,-0.2672242648728192
1782811341763328300,3.052328369140625,1.6263409726381302,-0.5841393201097845,-0.31346652221828697
1782811341773399300,3.0623994140625,1.374559922221303,-0.7028960479155183,-0.3652843877390027
1782811341783471400,3.072471435546875,1.0356465317964554,-0.814624338389188,-0.4407607767447829
1782811341793542400,3.08254248046875,0.740161364209652,-0.8407463293783366,-0.5283537200018763
1782811341803614500,3.092614501953125,0.4653688560396433,-0.8502093003809451,-0.5539401428095996
1782811341813685500,3.102685546875,0.1534860958814621,-0.8453471011720597,-0.5540004946947098
1782811341823756500,3.112756591796875,-0.19164310031831264,-0.816804605037719,-0.5637183172412217
1782811341833828400,3.122828369140625,-0.5628028098315,-0.8061132612839341,-0.5929029106713831
1782811341843899100,3.132899169921875,-0.9519231234490871,-0.7804638562425971,-0.6615449236124754
1782811341853970200,3.14297021484375,-1.271838967937231,-0.7852708181329071,-0.762031104581803
1782811341864042200,3.153042236328125,-1.420265442341566,-0.7680128093399107,-0.7557654683157801
1782811341874113300,3.16311328125,-1.408506615486741,-0.7041077617928385,-0.6351334481574594
1782811341884184300,3.173184326171875,-1.2663982381880283,-0.6008313655830919,-0.39679596281200646
1782811341894256400,3.18325634765625,-1.1248603542536497,-0.4271833561606705,-0.18190116624385116
1782811341904327400,3.193327392578125,-1.0983417651623486,-0.3115919605180621,-0.06345613473579287
1782811341914399500,3.2033994140625,-1.0743956569075583,-0.257654326364398,-0.060331719104945655
1782811341924470500,3.213470458984375,-0.7710562686890363,-0.16410919670462606,-0.07984437495693564
1782811341934541600,3.22354150390625,-0.2552998721927404,-0.18542846358716486,-0.006108838269114494
1782811341944613400,3.23361328125,0.07954173874855042,-0.2577769298307597,0.035807080309838056
1782811341954684200,3.24368408203125,0.05985854863524437,-0.3541819789662957,-0.021366467025130984
1782811341964755200,3.253755126953125,-0.24423662638664245,-0.4528812765188515,-0.20292802605107427
1782811341974827300,3.2638271484375,-0.5432645811468363,-0.4793741466470062,-0.4006413861937821
1782811341984898300,3.273898193359375,-0.7648392938703298,-0.4489043357118964,-0.4970309454992413
1782811341994969300,3.28396923828125,-0.9736299283444881,-0.3341716027252376,-0.4930456752553582
1782811342005041400,3.29404150390625,-1.1771826621651649,-0.1800982084751129,-0.48008726335242385
1782811342015112400,3.304112548828125,-1.4179349535673855,-0.031773148618638516,-0.3992832495830953
1782811342025184500,3.3141845703125,-1.5063842213928698,0.11733999287560581,-0.2610799168989062
1782811342035255600,3.324255615234375,-1.5466548569828271,0.24235972659885882,-0.06526172285303473
1782811342045326300,3.334326416015625,-1.6521791782498358,0.40354280672371384,0.0854480401828885
1782811342055398400,3.3443984375,-1.7172972548484802,0.5555658443152904,0.22207710928767918
1782811342065469200,3.35446923828125,-1.581983944517374,0.6443481434874236,0.34474808792769907
1782811342075540200,3.364540283203125,-1.1617337486207484,0.7401596106439828,0.4425979290440678
1782811342085612300,3.3746123046875,-0.4965636202484369,0.8093107421509921,0.5235572795055806
1782811342095683300,3.384683349609375,0.15460837790966034,0.8067262786157429,0.6319609556011855
1782811342105754400,3.39475439453125,0.7324082658648491,0.797980954363197,0.7461956759378313
1782811342115825700,3.40482568359375,1.1986346155166625,0.8107489582605659,0.8661544730097055
1782811342125896700,3.414896728515625,1.5568208616882562,0.7189071253873407,0.9626292263805866
1782811342135967700,3.4249677734375,1.747601792219281,0.5915523728452623,0.9367631098486483
1782811342146039800,3.435039794921875,1.7715531611710786,0.5023379658661783,0.8665272518448531
1782811342156110800,3.44511083984375,1.6476596549987792,0.5099294439084827,0.7427464122667908
1782811342166182700,3.4551826171875,1.45606623904109,0.5301658839903771,0.6670221859797835
1782811342176253700,3.465253662109375,1.1898510050803421,0.4932853292301297,0.5892619238205253
1782811342186324700,3.47532470703125,0.839922299644351,0.44205125494673847,0.5138531932234763
1782811342196396800,3.485396728515625,0.42081016786694525,0.34750308572426436,0.40622137828320265
1782811342206467800,3.4954677734375,-0.0510077181816101,0.32809009085446594,0.28597879583388564
1782811342216538600,3.50553857421875,-0.5142711263746023,0.29854148641750217,0.196569743065536
1782811342226610700,3.515610595703125,-0.7438608032494783,0.2706554083652794,0.14680442616045475
1782811342236681700,3.525681640625,-0.6942343102931976,0.2079123903349042,0.11110445948690176
1782811342246752800,3.535752685546875,-0.5433469987332821,0.14831000841781497,0.18680545102879403
1782811342256824800,3.545824951171875,-0.34636078382134433,0.232890764246881,0.3033943332761526
1782811342266896000,3.555895751953125,-0.08459376144111155,0.2862313092902303,0.4600217959232628
1782811342276967000,3.565966796875,0.26287118422985073,0.3183402657344937,0.6413078990086912
1782811342287038700,3.576038818359375,0.6539338640868664,0.30972178273200984,0.7890120504878461
1782811342297109800,3.58610986328125,1.0008949518889187,0.2808335418999195,0.8209957731172441
1782811342307181800,3.596181884765625,1.2331962258100508,0.28728242577835916,0.8418943303696811
1782811342317252900,3.6062529296875,1.4269558798909185,0.2626142868593335,0.8834989910423755
1782811342327323600,3.61632373046875,1.550765214911103,0.2211320835225284,0.9101414987742901
1782811342337395700,3.626395751953125,1.5302712929368019,0.1786843961544335,0.9139221863567829
1782811342347466800,3.636466796875,1.3577514107614754,0.17123583371415732,0.8770080215878784
1782811342357537800,3.646537841796875,1.1931295883595943,0.18785934399589896,0.8247254611648619
1782811342367609900,3.65660986328125,1.161548455181718,0.2539361826241016,0.7876493838325143
1782811342377681000,3.666680908203125,1.1657803936630486,0.29028716055229303,0.7998755359381436
1782811342387752000,3.676751953125,1.1799252388715744,0.2914149955384433,0.7752915681712329
1782811342397823700,3.68682373046875,1.1859914070427418,0.21675328391641377,0.7553891823492944
1782811342407894800,3.696894775390625,1.2531249151170254,0.1975222214847803,0.7285881230548024
1782811342417966800,3.706966796875,1.3420891467273235,0.19252879711166024,0.7071995903283357
1782811342428038000,3.717037841796875,1.3751403524577617,0.1033405474871397,0.6651556614555418
1782811342438108700,3.727108642578125,1.318605979809165,-0.01584872651696205,0.5767591467306018
1782811342448180700,3.7371806640625,1.2124427761167287,-0.08986527210325002,0.5417056612670421
1782811342458251800,3.747251708984375,0.9782277775287628,-0.14987901130020617,0.5191751188986004
1782811342468322800,3.75732275390625,0.47346273064613337,-0.15334332640990614,0.48711263194456694
1782811342478394600,3.76739453125,-0.22391163123846053,-0.08387070786356926,0.4646500402458012
1782811342488465700,3.777465576171875,-0.9092460112392902,-0.0288708513058722,0.4176991962395608
1782811342498536700,3.78753662109375,-1.506223477873206,0.023428514121472833,0.34448534533828495
1782811342508608800,3.79760888671875,-1.9855296738505361,0.09264657338485122,0.2611281399548054
1782811342518679800,3.8076796875,-2.3699323112964628,0.16335077955275773,0.1721212382465601
1782811342528750600,3.81775048828125,-2.6829414451360702,0.1994935215577483,0.08207564114034176
1782811342538822700,3.82782275390625,-2.8103450052559373,0.21388276998139916,-0.14724281757771968
1782811342548893700,3.837893798828125,-2.589818340280652,0.1621658075518906,-0.48342882886528965
1782811342558965800,3.8479658203125,-2.136287806072831,-0.04325016285739839,-0.6939823813587427
1782811342569036800,3.858036865234375,-1.6671142970532178,-0.35322314387150106,-0.7030299034282564
1782811342579107800,3.86810791015625,-1.3530588690310716,-0.47980128601789473,-0.49084641164541243
1782811342589179600,3.8781796875,-1.3011731989711521,-0.3480544359967112,-0.2206999757155776
1782811342599250700,3.888250732421875,-1.3524001128613947,-0.028626301960274575,0.052689387658238405
1782811342609321700,3.89832177734375,-1.435683376225829,0.30660218940675255,0.2622875391229987
1782811342619393800,3.908393798828125,-1.4401882864296436,0.5996401099719106,0.39419893205612894
1782811342629464800,3.91846484375,-1.3324527188539503,0.7877884269770234,0.4239861675545573
1782811342639535600,3.92853564453125,-1.1503665514320134,0.8480780605059116,0.4088505577430129
1782811342649607700,3.938607666015625,-0.8650450504630803,0.6494413749732076,0.29526772544384
1782811342659678700,3.9486787109375,-0.5104442615628242,0.3298448986325413,0.11324205603748559
1782811342669750800,3.958750732421875,-0.2185585797727108,-0.017464052759110928,-0.025563772584497928
1782811342679821800,3.96882177734375,-0.10173194324672222,-0.25196042557172477,-0.0898272781804204
1782811342689892900,3.978892822265625,-0.19728841272890565,-0.34785540629327294,-0.16197715311199426
1782811342699964700,3.988964599609375,-0.39994273640513417,-0.32190519167445597,-0.27595775255709887
1782811342710035700,3.99903564453125,-0.59439621796906,-0.23546850578039882,-0.385895798613131
1782811342720106800,4.009106689453125,-0.7028612688630819,-0.15627718790471554,-0.411190983389318
1782811342730178800,4.0191787109375,-0.6613315731227397,-0.07118687511831522,-0.4187158259361982
1782811342740249900,4.029249755859375,-0.5036012638002634,-0.014700579395145177,-0.3640807110376656
1782811342750320600,4.039320556640625,-0.31318507492840286,-0.007847133303806186,-0.30252734118327496
1782811342760392700,4.049392822265625,-0.09230769681930541,-0.027535072657465933,-0.2710962840005755
1782811342770463700,4.059463623046875,0.12070844639539718,-0.07740384993702172,-0.28098785567879675
1782811342780534800,4.06953466796875,0.2262608247131109,-0.16719028465040028,-0.3065923986651003
1782811342790606800,4.07960693359375,0.27060850048363205,-0.23779176109619438,-0.31657296380102634
1782811342800678000,4.089677978515625,0.2335252627581358,-0.2539965345092118,-0.29167876104116436
1782811342810749700,4.099749755859375,0.0819733498096466,-0.19687026038207112,-0.263062907409668
1782811342820820700,4.10982080078125,-0.08454115447103977,-0.13812215720675886,-0.20970044279545544
1782811342830891800,4.119891845703125,-0.24713936209082601,-0.049588206772506235,-0.12210852245166898
1782811342840963800,4.1299638671875,-0.28497429496645926,0.06320194077901542,-0.020633184314519167
1782811342851035000,4.140034912109375,-0.26280513325631616,0.15136450061760842,0.11714315512925386
1782811342861105700,4.150105712890625,-0.09561492167115211,0.21416619003266094,0.24883140683099625
1782811342871177700,4.160177734375,0.14563129072785377,0.1861942603278905,0.29256679592207074
1782811342881248800,4.170248779296875,0.465322678810358,0.16357589354552327,0.3210743668735027
1782811342891319800,4.18031982421875,0.8115116131961345,0.10065898025296628,0.29239816135689617
1782811342901392000,4.190391845703125,1.1426122840434312,-0.051996510023251175,0.22122224602401255
1782811342911462700,4.200462646484375,1.3733166441619395,-0.22450733210928736,0.12497618684247136
1782811342921533700,4.21053369140625,1.4881155742526053,-0.3672461893312633,0.040621640984714026
1782811342931605800,4.220605712890625,1.6948399238467216,-0.4605488885372877,-0.02719984935373068
1782811342941676800,4.2306767578125,1.9651286908566952,-0.547222671122849,-0.06013809622898698
1782811342951748900,4.240748779296875,2.255862864524126,-0.6288527604527772,-0.03030512189269066
1782811342961819600,4.250819580078125,2.5299089382410047,-0.6919594972290098,0.014297113160789012
1782811342971890700,4.260890625,2.7664439042091367,-0.7485805252477526,0.04560103683248162
1782811342981962800,4.270962646484375,3.004522592487931,-0.7720106468044221,0.06994125897139311
1782811342992033800,4.28103369140625,3.098827016082406,-0.84834920559749,-0.017362638211250305
1782811343002104800,4.291104736328125,2.829383467724919,-1.0677752158544958,-0.20719941975995898
1782811343012176600,4.3011767578125,2.129318551582098,-1.183872515192628,-0.412857309166342
1782811343022247700,4.31124755859375,1.2002876434206962,-1.1135976403526961,-0.491066338006407
1782811343032318700,4.321318603515625,0.4121761950343847,-0.9293484496779739,-0.5410397447042167
1782811343042390800,4.331390869140625,-0.10351707309782504,-0.8712434667117893,-0.5721545755445957
1782811343052461800,4.3414619140625,-0.33977205308079717,-0.9067423578552901,-0.6227985749803483
1782811343062532600,4.35153271484375,-0.38076924937963486,-0.9963482483699917,-0.6624662762410939
1782811343072604700,4.361604736328125,-0.2867413046389818,-1.0501850524976848,-0.6183674606651067
1782811343082675700,4.37167578125,-0.1714624820768833,-1.0850978143163024,-0.47577846024259923
1782811343092747800,4.381747802734375,-0.04160626810789108,-1.0767489420354366,-0.351634778701514
1782811343102818800,4.39181884765625,0.007310030752420425,-1.0589975967675447,-0.23065832901969552
1782811343112889900,4.401889892578125,-0.10814414837658405,-1.0753851063363253,-0.15350567736476659
1782811343122962700,4.411962646484375,-0.42938861111998555,-1.101156384191662,-0.09179097946882248
1782811343133033700,4.42203369140625,-0.811704505419731,-1.0337095723845064,-0.03242255243808031
1782811343143104500,4.4321044921875,-1.1595943985044956,-0.9961423505343496,-0.024979542955756186
1782811343153176600,4.442176513671875,-1.4418483285963535,-0.9871921513594687,-0.06652618983089924
1782811343163247600,4.45224755859375,-1.464893104097247,-0.9252626416690647,-0.13845511548817158
1782811343173318700,4.462318603515625,-1.2246575300455094,-0.8764755221463739,-0.07453706232905387
1782811343183390700,4.472390625,-0.9798597626447677,-0.9524981468580662,0.062325523270666594
1782811343193461800,4.482461669921875,-1.0231862786740065,-1.018169181164354,0.14148264661580323
1782811343203532800,4.49253271484375,-1.382152277046442,-1.0121404223941266,0.05263210451304912
1782811343213604600,4.5026044921875,-1.9139882862061262,-0.9860914966411888,-0.0913496654421091
1782811343223675600,4.512675537109375,-2.4165005857259034,-0.8493884855173528,-0.19439970555007458
1782811343233747700,4.522747802734375,-2.799524920555949,-0.6131399352751672,-0.1928694272428751
1782811343243818500,4.532818603515625,-2.978364068880677,-0.3858234640292823,-0.1650815488681197
1782811343253889500,4.5428896484375,-3.002385580459237,-0.22521365374773739,-0.05008066646456718
1782811343263961600,4.552961669921875,-2.878474538630247,-0.09502367777973413,0.04341448657363653
1782811343274032600,4.56303271484375,-2.7081933752924203,0.0020054946035146714,0.15483137301057576
1782811343284103700,4.573103759765625,-2.4125948104590176,0.09638575991317629,0.28103987812697884
1782811343294175700,4.58317578125,-1.9753169073939323,0.18541443506181238,0.42421997631043196
1782811343304246800,4.593246826171875,-1.5297610053271053,0.25369521347507834,0.5302592613622545
1782811343314317800,4.60331787109375,-1.1350567540973424,0.3234992559328675,0.6034986850962042
1782811343324389600,4.6133896484375,-0.6844704566478729,0.44809652646034953,0.6271379193589091
1782811343334460700,4.623460693359375,-0.08545885383784771,0.532738072565943,0.6380211324229836
1782811343344531500,4.633531494140625,0.5162812971532345,0.5848553594246506,0.6795625186011195
1782811343354603500,4.643603515625,0.9937491717875003,0.5668580765716731,0.6992363563641906
1782811343364674600,4.653674560546875,1.3321715638250111,0.5204460156172513,0.6832536282040178
1782811343374746600,4.66374658203125,1.4174895478874445,0.48054275203496216,0.6344022112734615
1782811343384817700,4.673817626953125,1.4453098672270774,0.47156990263685583,0.6142743461325765
1782811343394888700,4.683888671875,1.3833797730147839,0.49108153557553885,0.5664633781656623
1782811343404960500,4.69396044921875,1.2019763271600008,0.5655787042856216,0.5229258497342467
1782811343415031600,4.704031494140625,0.9425444697290658,0.6664736121863126,0.4637894778937101
1782811343425102600,4.7141025390625,0.7083183652251959,0.7533861719638109,0.4098012825965881
1782811343435174700,4.724174560546875,0.4856055883824825,0.7861366411820053,0.38015550139546395
1782811343445245700,4.73424560546875,0.30763153245449065,0.8032878285996615,0.39523178223520516
1782811343455316500,4.74431640625,0.25081074407994747,0.8539128310739994,0.5026362181603908
1782811343465388500,4.754388427734375,0.3343979588270187,0.847200327823311,0.5881596616670489
1782811343475459600,4.76445947265625,0.5274205308049917,0.7697986698433756,0.6230187936022877
1782811343485530600,4.774530517578125,0.8317378241449594,0.7047505897410213,0.5694163827523588
1782811343495602700,4.784602783203125,1.2025737085312604,0.6561835427097976,0.5648313930496573
1782811343505673700,4.794673828125,1.5568319676041602,0.5940346911802887,0.6314841318696737
1782811343515744800,4.804744873046875,1.8049369598567484,0.5423394291259348,0.7415776607483625
1782811343525816600,4.814816650390625,1.954871500736475,0.5020689396664499,0.8099588307961821
1782811343535887600,4.8248876953125,2.052390794724226,0.5377367576360702,0.9078533878371119
1782811343545959700,4.834959716796875,2.160343804442882,0.6253643338151276,1.003223979358375
1782811343556030700,4.84503076171875,2.226815049216151,0.7094637358680367,1.0982184310436247
1782811343566101500,4.8551015625,2.1514415360629555,0.7990802939072251,1.2425313326492904
1782811343576173600,4.865173583984375,1.9269038818806408,0.8750713544368743,1.300612057957053
1782811343586244600,4.87524462890625,1.5769272456496952,0.8728846580475568,1.283353756903112
1782811343596315600,4.885315673828125,1.1539672062724828,0.8202882093697785,1.1815215681523084
1782811343606387700,4.8953876953125,0.8371709551095962,0.7630784216776489,1.0541504489973186
1782811343616458800,4.905458740234375,0.6429372537761926,0.6340230026975273,0.9543684707745909
1782811343626529800,4.91552978515625,0.4005822033524513,0.4846626084439456,0.8494353933990001
1782811343636601600,4.9256015625,0.1722340509712696,0.35379575612768527,0.7168783960387111
1782811343646672600,4.935672607421875,-0.009382745373249053,0.27957945018559693,0.6461620610415935
1782811343656743400,4.945743408203125,-0.16293021605312824,0.2908592613518238,0.6272641760870814
1782811343666815700,4.955815673828125,-0.2793821740478277,0.2431703123293817,0.5878264841899276
1782811343676886500,4.965886474609375,-0.32894612316191196,0.19466566300988197,0.5481985304176807
1782811343686958600,4.97595849609375,-0.47176469455659387,0.1349758950702846,0.40665421674251556
1782811343697029600,4.986029541015625,-0.7075438737213611,0.08836969978325068,0.25895751791745425
1782811343707100700,4.9961005859375,-0.8631184663146734,0.12271459858603775,0.14398410804271697
1782811343717172700,5.0061728515625,-0.8683698109716177,0.12629947133548558,0.03853051392436027
1782811343727243800,5.016243896484375,-0.8904378503948449,0.08287957793436944,-0.02351853049248457
1782811343737314800,5.026314697265625,-1.0408809253185987,0.004377265236154199,-0.09072890319526195
1782811343747386600,5.03638671875,-1.2928344096928834,-0.07994060187302529,-0.20431319679915905
1782811343757457700,5.046457763671875,-1.648618855419755,-0.13039309732466936,-0.3007964257374406
1782811343767528400,5.056528564453125,-2.079177094841003,-0.0917884221855551,-0.42045448629707094
1782811343777600500,5.0666005859375,-2.465800915467739,-0.008873699872568249,-0.5953732463076711
1782811343787671600,5.076671630859375,-2.5369553496211767,0.12345774510353803,-0.8762158482968807
1782811343797742600,5.08674267578125,-2.247451594531536,0.1085394313044846,-1.0798957156285642
1782811343807814700,5.096814697265625,-1.8194529764652252,-0.14332074876315892,-1.072076566310227
1782811343817885700,5.1068857421875,-1.6137357580870388,-0.3718948188547045,-0.9262295870050787
1782811343827957500,5.11695751953125,-1.7933780394881962,-0.44589368265382945,-0.8011597305297851
1782811343838028500,5.127028564453125,-2.056843682479858,-0.21781104934103784,-0.6384156846985221
1782811343848099600,5.137099609375,-2.2259990566581487,0.13698065902143716,-0.4176180938273668
1782811343858171600,5.147171630859375,-2.2358108410984276,0.438231185201928,-0.15923340736180544
1782811343868242700,5.15724267578125,-2.127175109812617,0.6709210931144655,0.05076631064116954
1782811343878313500,5.1673134765625,-1.9918144532084463,0.7756062601435929,0.10359539903104305
1782811343888385500,5.177385498046875,-1.7665736191928385,0.7521090647000819,0.06145692374259233
1782811343898456600,5.18745654296875,-1.5028162997782228,0.6025200493223964,-0.08221446508914232
1782811343908527600,5.197527587890625,-1.234943361738324,0.33615948860682543,-0.2302922721862793
1782811343918599700,5.207599609375,-0.8461258304595947,0.18326405209489166,-0.3567079903125763
1782811343928670700,5.217670654296875,-0.36587913876175876,0.09417444053925574,-0.46028877629637716
1782811343938741800,5.22774169921875,0.12553425911664962,0.045194794119149444,-0.5300356817394495
1782811343948813600,5.2378134765625,0.5172030881732702,0.05794431251175701,-0.5506625824436545
1782811343958884600,5.247884521484375,0.7850783643007277,0.15535539688467978,-0.6257073020339011
1782811343968955600,5.25795556640625,0.8874059353530407,0.26408019469343125,-0.7440630478233099
1782811343979027700,5.26802783203125,0.8772814317017793,0.3248014245726168,-0.8878872891291976
1782811343989098500,5.278098388671875,0.8388099544882773,0.3227788327038288,-1.0428922651410102
1782811343999170600,5.288170654296875,0.8465665599644183,0.2511825000017881,-1.1874328380227088
1782811344009241600,5.29824169921875,0.8067816620647906,0.1422917710416019,-1.279668054127693
1782811344019312600,5.308312744140625,0.6647317369550466,0.06717515525892377,-1.344717741665244
1782811344029382700,5.318382568359375,0.48417877044975755,0.014586889887601137,-1.367023389236629
1782811344039453700,5.32845361328125,0.3051502370327711,0.0529208583265543,-1.2876707433193921
1782811344049524500,5.3385244140625,0.1740244415193796,0.13958324273526668,-1.1357508738413453
1782811344059596500,5.348596435546875,0.07203998481631278,0.2314068092994392,-0.8795391475006937
1782811344069667600,5.35866748046875,-0.008629881179332733,0.2770341496169567,-0.6503308711588383
1782811344079739600,5.36873974609375,0.042885786524415014,0.3632050972469151,-0.5026341723337769
1782811344089810700,5.378810791015625,0.30780104380249973,0.4309137748606503,-0.4095233424380421
1782811344099881700,5.3888818359375,0.6272130304217338,0.4540786696098745,-0.31464433382600543
1782811344109953500,5.39895361328125,0.8793196595311165,0.4163922052942216,-0.21156419084072112
1782811344120024000,5.409024169921875,1.1354051291435956,0.3325502851337194,-0.17053952201306818
1782811344130095000,5.41909521484375,1.3749153115302324,0.2520529992260039,-0.17477672119140625
1782811344140167000,5.4291669921875,1.634858625614643,0.10523512906208633,-0.2001267048947513
1782811344150237700,5.43923779296875,1.8474831391632556,-0.12891951764076948,-0.22533143490850924
1782811344160308700,5.449308837890625,1.9847668727844952,-0.37428894744962454,-0.24110227388367056
1782811344170380800,5.459380859375,2.066253315860033,-0.5196136564463377,-0.21538111878037453
1782811344180451800,5.469451904296875,2.071389509704709,-0.6074369013279676,-0.1761908257730305
1782811344190523000,5.47952294921875,2.0102870984882113,-0.7129166528008878,-0.23016499254480002
1782811344200595000,5.489594970703125,1.9212030398905275,-0.8014221808582543,-0.31425971842259165
1782811344210666000,5.499666015625,1.8018027534842491,-0.8600216693431139,-0.4002599856607616
1782811344220737000,5.509737060546875,1.640662343457341,-0.8903663925938308,-0.4161018440455198
1782811344230809000,5.51980908203125,1.4962357523441314,-0.9558936345152557,-0.4106586300782859
1782811344240879900,5.5298798828125,1.3556675902247428,-1.0544903484761714,-0.40613238482549785
1782811344250952000,5.539951904296875,1.0548860697954892,-1.094048890274018,-0.47846200023815033
1782811344261022700,5.550022705078125,0.5526116706848144,-1.0834636372432112,-0.6507343373931944
1782811344271093800,5.56009375,0.13617898724973201,-0.966207377128303,-0.7774949234344065
1782811344281165800,5.570165771484375,-0.16960545603334903,-0.8503529466353357,-0.7365016726583242
1782811344291236900,5.58023681640625,-0.3659405135601759,-0.9142844437979161,-0.7973271666295826
1782811344301308000,5.590307861328125,-0.3807043674498796,-0.9293979879081249,-0.788115101648122
1782811344311380000,5.6003798828125,-0.26979543053507804,-0.9681595341093837,-0.7566590561546385
1782811344321451000,5.610450927734375,-0.13096680555939674,-0.9142581403128802,-0.5849092815689743
1782811344331522000,5.62052197265625,0.008664952492713927,-0.8201593222931027,-0.400923125744611
1782811344341593900,5.63059375,0.027702245917916295,-0.6776460174553096,-0.27579057929664846
1782811344351665000,5.640664794921875,-0.13351882812976837,-0.4515073578171432,-0.12885142084062098
1782811344361736000,5.65073583984375,-0.34921617325246335,-0.3697432668440044,0.03480564818233251
1782811344371807700,5.660807861328125,-0.5503291127055883,-0.4210004297420382,0.0931932474821806
1782811344381878800,5.670878662109375,-0.7447831787914038,-0.5156210796788334,-0.03708367611691356
1782811344391949800,5.68094970703125,0.33685704241693015,-0.7347229725480079,-0.020564941383898257
1782811344402022000,5.69102197265625,0.7391156545490026,-0.748525580190122,0.09191475197896361
1782811344412093000,5.701093017578125,0.9238140502959489,-0.5456956076860427,0.1662432861238718
1782811344422166800,5.711166748046875,0.5964543195426464,-0.4466530496537685,0.08749766618907451
1782811344432238800,5.72123876953125,0.09377192415297031,-0.4818263621047139,-0.16617562771514058
1782811344442310000,5.731309814453125,-0.3239256646513939,-0.5999747487537562,-0.34282296508401633
1782811344452381000,5.741380859375,-0.5897814176499844,-0.7573341789372265,-0.5251620843537151
