time,seconds_elapsed,z,y,x
1782663456007745800,0.069745849609375,-0.7924035926222801,-0.5858567915521562,-0.5243491605356335
1782663456017815800,0.07981591796875,-0.3811293148636818,-0.34611462704055007,-0.38985286567583677
1782663456027885600,0.089885498046875,0.29491818135380743,-0.21669567197766154,-0.08957987929061055
1782663456037954800,0.099954833984375,1.0231348407477139,-0.14462711865399033,0.10866948742493987
1782663456048024600,0.110024658203125,1.5867968977570532,-0.13662559850607067,-0.014368424831330776
1782663456058094800,0.1200947265625,1.8490362138241527,-0.07569445220325141,0.06808861684203148
1782663456068163800,0.130163818359375,2.0031798968315124,0.035906668226793406,0.3870101895958185
1782663456078233600,0.140233642578125,2.0241087030917404,0.10690883442796766,0.647860097131133
1782663456088302800,0.150302734375,1.7291636337310075,0.2759441258905455,0.6021893560633063
1782663456098372600,0.16037255859375,1.149192246955633,0.6031610141070559,0.388181425332278
1782663456108443000,0.17044287109375,0.5409738398611545,0.9455987427331507,0.3817376560203731
1782663456118511600,0.18051171875,0.06808043353557586,0.9267537570096552,0.5969318739265204
1782663456128582000,0.190581787109375,-0.24911153894662855,0.5435021527623758,0.6368393752925098
1782663456138652000,0.20065185546875,-0.20074410614073276,0.19798954673558472,0.5551259915933012
1782663456148720600,0.210720703125,0.12228840906322001,0.1567391976595856,0.31896409672126175
1782663456158791000,0.220791015625,0.3738268828958273,-0.13586005749367178,0.053045069228112696
1782663456168860700,0.230860595703125,0.4788818330854177,-0.6217500157754868,0.10750760403871536
1782663456178930000,0.240929931640625,-0.3177835086345672,-0.5710765345169231,0.46282092512249945
1782663456188999700,0.250999755859375,-1.6473586262255906,-0.026730934934038667,0.8464410338886081
1782663456199069700,0.261069580078125,-2.4705688605219125,0.7717261307746172,0.8863087877660989
1782663456209139000,0.271138916015625,-2.400406360015273,1.4753933091931044,0.5899614503920078
1782663456219208700,0.281208740234375,-1.8552806611716746,2.4980624321252107,0.6054458736412227
1782663456229278000,0.29127783203125,-1.5734557701468468,1.8476254702433943,0.264746914973855
1782663456239347700,0.30134765625,-0.9477467145472764,2.084949540762603,0.44316834934316574
1782663456249417700,0.311417724609375,-1.5563590893954038,1.1706468306556344,0.36061274266615506
1782663456259486700,0.32148681640625,-1.9529478391975164,0.1531081294145435,-0.3374353537615388
1782663456269556700,0.331556640625,-1.722879438894987,-0.18113405432887375,-0.8506270143363625
1782663456279626800,0.341626708984375,-2.848509608477354,-0.5761198259137571,-1.0086372365787624
1782663456289695700,0.35169580078125,-4.631775419273972,-0.48493821051493285,-0.967343468486145
1782663456299765800,0.361765869140625,-5.661464503970742,0.3837041337877512,-0.5942321865137666
1782663456309835800,0.371835693359375,-5.659253257662058,1.529243118932843,-0.258016145414114
1782663456319904800,0.38190478515625,-5.4334623885482545,2.210660910011828,0.08325126079097389
1782663456329974500,0.391974609375,-6.214654851326346,2.8145734366059303,-0.32385661800317467
1782663456340044800,0.402044921875,-7.055320078292489,2.9138477575674653,-1.4493198335207997
1782663456350113800,0.41211376953125,-5.637632962006331,1.8011093643926084,-1.5384890861839056
1782663456360183800,0.422183837890625,-4.451104379346966,0.16471870690509677,-2.2803666066616772
1782663456370252800,0.432252685546875,-1.9936855077773332,-2.4346855001054704,-2.8849837743937967
1782663456380322800,0.44232275390625,-0.6584715075165033,-4.919596920365095,-3.648833472704887
1782663456390392800,0.452392822265625,-0.7158516833394766,-6.011822248473763,-3.9031878807410596
1782663456400461600,0.462461669921875,0.05786474446952343,-4.869328330112993,-2.6113649861782786
1782663456410531800,0.47253173828125,1.1179594888240099,-2.8051602960944173,-0.40287941091153767
1782663456420601900,0.482601806640625,0.8158645477086305,-1.3533433850608765,1.0124577447149903
1782663456430670800,0.4926708984375,-1.1984154198080301,0.5320450488004833,2.041761264160275
1782663456440740900,0.502740966796875,-3.207332983508706,1.9874843150496482,3.065694269548356
1782663456450810000,0.51281005859375,-3.0175334652304646,1.947081285251677,3.3564559157446023
1782663456460879000,0.522879150390625,-1.6859890933930872,1.027537313490361,2.9783167226076124
1782663456470949000,0.53294921875,-0.5451350511938333,-0.03536896288720891,2.004169200129807
1782663456481019100,0.54301904296875,-0.15398878470659255,-1.1444990476381034,0.5071654225552454
1782663456491088100,0.553088134765625,0.2718681451559067,-2.6366362055569885,-1.5538776478432117
1782663456501158100,0.563158203125,1.0735095217227935,-4.445215321308374,-3.645469841490686
1782663456511228200,0.573228271484375,1.9847826548755167,-5.729844212713838,-5.049066765365004
1782663456521297200,0.583297119140625,2.4516636690437794,-6.346811158931255,-5.564342684867977
1782663456531367200,0.5933671875,3.5234424214512106,-5.444571227061748,-4.7747824989780785
1782663456541436200,0.603436279296875,5.310948354035616,-3.8191657817080613,-2.744315951292217
1782663456551506000,0.613505859375,6.227120365145802,-2.4788030203819273,-0.6813273363165557
1782663456561576200,0.623576171875,5.552687318387627,-1.3769725363209844,0.8652817818284034
1782663456571645000,0.63364501953125,4.227591976559162,-0.3012352555461228,2.1370302950032056
1782663456581715200,0.643715087890625,4.279920714211464,0.6992864791162312,3.0420544507637617
1782663456591785200,0.65378515625,4.738354802551865,0.9663279347680509,3.451691190448403
1782663456601854200,0.663854248046875,4.698422605136036,0.7186970628332346,3.620935411953926
1782663456611924200,0.67392431640625,5.121111426356435,0.6017679523134604,3.505071190719306
1782663456621994200,0.683994140625,6.025642099511623,0.24366911043068393,3.17862243733108
1782663456632063200,0.694063232421875,6.8116101061284535,-0.17849619837226344,2.840603073136508
1782663456642133200,0.70413330078125,7.581743414753675,-0.4385259303648025,2.5174118602395055
1782663456652203000,0.714203125,7.978499337816238,-0.6543998010981827,2.1268068610221147
1782663456662272300,0.724272216796875,8.212730118495225,-0.7905503659710288,1.9341858555823563
1782663456672342000,0.734342041015625,7.986320240700245,-0.748722052610293,2.091421074864268
1782663456682412000,0.744412109375,7.293819037809968,-0.17229027467053382,2.2908418234467507
1782663456692481000,0.75448095703125,6.718710288634896,0.6329624607939273,2.249292253962159
1782663456702551000,0.764551025390625,5.832001687896251,1.456400001040101,2.0683611017942427
1782663456712621300,0.774621337890625,4.494942352029681,2.2255343617558476,1.8078491940416395
1782663456722690000,0.78468994140625,3.557433538380265,3.5208094425991177,1.636302833073586
1782663456732760000,0.794760009765625,3.3651766900777815,4.461375305731594,1.8968313997000454
1782663456742829000,0.8048291015625,4.729851178100705,3.988561686643958,1.558483972594887
1782663456752899000,0.814899169921875,6.0285465887814755,2.784848744949698,1.18045116244182
1782663456762969300,0.82496923828125,4.105129964494705,2.2690986320637165,1.157381325564906
1782663456773038000,0.8350380859375,0.603133651176095,2.520266665148735,1.169139129506424
1782663456783108400,0.8451083984375,-1.7220879962563513,2.2885111885420977,-0.010509630511328577
1782663456793178000,0.85517822265625,-3.984710271912813,1.4225829255037008,-1.1485557026177644
1782663456803247000,0.8652470703125,-6.9923676552951335,-1.487291252257675,-0.8157635715521872
1782663456813317000,0.875317138671875,-7.9040891167372465,-5.003796129530668,-1.1491723001461476
1782663456823387100,0.88538720703125,-6.730618168571591,-6.671650431296229,-2.875303799639642
1782663456833456000,0.8954560546875,-9.749482590144872,-5.57218989123702,-2.9508661133632064
1782663456843526100,0.905526123046875,-15.916325304460525,-2.944845830160379,-1.479071705444902
1782663456853596200,0.91559619140625,-18.929771792638302,-0.6842803409032523,-0.7278718645442277
1782663456863665200,0.9256650390625,-18.568330344063043,0.8763124405391514,-0.13652243039254097
1782663456873735200,0.935735107421875,-16.29948174123764,1.669580248775333,0.09892806480713189
1782663456883805000,0.945804931640625,-13.408941501760482,0.7408180745527148,-0.37169549689032133
1782663456893874200,0.955874267578125,-11.628670196604729,-0.9047146514199673,-0.9333568085364997
1782663456903944200,0.965944091796875,-9.586306290376186,-2.2210379271194336,-1.8238553030773996
1782663456914014200,0.97601416015625,-8.56584096109867,-3.1525597753137347,-2.5006518640965223
1782663456924083200,0.986083251953125,-9.280882497099041,-3.463647293440997,-2.4442281122155487
1782663456934153000,0.996153076171875,-9.301799612921476,-3.1553190108940004,-1.9678971326567232
1782663456944222200,1.00622216796875,-7.895216074451803,-2.4663711165711284,-1.3594685899429022
1782663456954292000,1.0162919921875,-5.749223451444506,-1.6680511395119129,-0.5046601252034306
1782663456964362200,1.0263623046875,-3.2025878348082304,-0.9121556150756776,0.6445652933694422
1782663456974431000,1.036430908203125,-0.819617762762308,-0.400515567857027,1.6120502892181277
1782663456984501200,1.046501220703125,0.8960580283641815,-0.5404219781320542,1.6623251630805431
1782663456994571300,1.0565712890625,2.1104490159392357,-1.043485554859042,1.3187319442763923
1782663457004640000,1.066639892578125,3.555589371818304,-1.1684427447400987,0.928388810865581
1782663457014710300,1.076710205078125,4.533600876247883,-1.3027639752939342,0.6697516840089112
1782663457024780000,1.086780029296875,5.154121131032705,-1.3876115653656422,0.6968014573674649
1782663457034849300,1.096849365234375,5.664855899974704,-0.7908007605355233,0.9160646052129566
1782663457044919300,1.106919189453125,5.74958994666934,0.279074861664325,1.412073514188081
1782663457054989000,1.116989013671875,5.411623481705784,0.6598391426078974,1.98608686934188
1782663457065058300,1.127058349609375,5.6538692265361545,0.7993172444682568,2.0715889777995646
1782663457075128000,1.137128173828125,6.300353359138965,0.8354007305666804,1.8136665020182727
1782663457085198000,1.147197998046875,7.160920387405157,0.6951730524480343,1.7398516164839266
1782663457095267000,1.15726708984375,7.999982855349779,0.34840211692322043,1.853252662475407
1782663457105337000,1.167337158203125,8.46559721058309,0.3539293193794787,2.0473234283320605
1782663457115406000,1.177406005859375,7.786036737808585,0.590204794161208,2.1767298527069388
1782663457125476000,1.18747607421875,6.545868919420242,1.1191090972505509,2.363206802433729
1782663457135546000,1.197546142578125,5.936957269364595,1.2954787867218256,2.624332604300976
1782663457145615000,1.207614990234375,5.6811231441646814,0.8949848461747169,2.6342379122436044
1782663457155685000,1.21768505859375,6.288956351333856,0.47286366877444086,2.5873250621601938
1782663457165755100,1.227755126953125,7.337440152871609,-0.0454686060918495,2.671059576423466
1782663457175824100,1.23782421875,8.284735031998157,-0.5495305827390402,2.3789773491479456
1782663457185894100,1.24789404296875,8.719262759572267,-0.44304413844160734,2.2025036147803068
1782663457195964200,1.257964111328125,7.941517222377658,-0.5858355295684188,2.4257377851486206
1782663457206033200,1.268033203125,6.555844954511523,-0.5356469457499683,2.1446784716688096
1782663457216103200,1.278103271484375,5.866353454831242,-0.15446801959089934,1.7737525709114967
1782663457226173200,1.288173095703125,5.525414111536741,0.1543841406997293,1.9614291056863962
1782663457236242200,1.2982421875,5.069986219274997,0.7445789614561945,2.193721611779183
1782663457246312200,1.308312255859375,4.708047927093506,0.9791540985934436,2.1554398119188845
1782663457256382200,1.31838232421875,4.506756123942137,0.6647193158648907,1.7723256068482993
1782663457266451200,1.328451171875,4.6892280758112665,0.2421462299786508,1.2659541476823388
1782663457276521200,1.338521240234375,5.120481311759352,0.11037132290676235,0.7354260793160646
1782663457286590200,1.348590087890625,5.133624870970845,0.30460867750197645,0.61720272773467
1782663457296660200,1.35866015625,3.5529379805266856,1.1499714146345854,0.7085626953750849
1782663457306730000,1.36872998046875,0.6143120477944612,2.257577267226577,0.4349347009398043
1782663457316799200,1.37879931640625,-3.080907913032174,2.6148347081154584,-0.6737766286760568
1782663457326869200,1.388869140625,-6.711009797260165,2.1500838378436864,-2.1984435257345436
1782663457336939000,1.39893896484375,-9.136434278675914,1.3372865687511861,-2.985171118547022
1782663457347008300,1.40900830078125,-9.217887404003738,-0.13655059704110026,-2.6106249814659357
1782663457357078000,1.419078125,-7.222402737849951,-1.4772138026185333,-2.9273893761858343
1782663457367148300,1.429148193359375,-6.00421820321083,-1.8159446760833262,-4.004982952351868
1782663457377217000,1.439217041015625,-7.452965059149265,-2.143657604188472,-3.730996792128682
1782663457387287000,1.449287109375,-9.53622328582406,-2.5241189566627145,-2.490242113763094
1782663457397357300,1.459357421875,-11.343367400336264,-2.162342723175138,-2.0505247085914013
1782663457407426000,1.469426025390625,-12.923732219219207,-0.6890539850458502,-2.288806664357334
1782663457417496300,1.479496337890625,-15.063451753306389,0.8621589736327528,-2.54536924996227
1782663457427566000,1.489566162109375,-16.64196948301792,1.7082826121352612,-2.4176596926331517
1782663457437635000,1.499635009765625,-15.521161619025468,1.461353239533305,-2.044222539707273
1782663457447705000,1.509705078125,-12.467046435850857,0.22590689670890568,-2.1459704111754894
1782663457457774000,1.519774169921875,-9.54122211702466,-1.0565931659743188,-2.693503755682707
1782663457467844400,1.52984423828125,-6.5434267869651315,-1.7793964220173657,-2.3880749939695
1782663457477914000,1.5399140625,-2.8578865086317062,-1.8951310255229472,-1.8088072254188359
1782663457487983000,1.549983154296875,0.4925485393881798,-1.572873294083774,-1.8305548007160424
1782663457498053000,1.56005322265625,1.8721300891637802,-1.2560958937518298,-0.981814549974352
1782663457508123100,1.570123046875,0.953262263098359,-1.771915857003629,-0.6060498308837413
1782663457518192000,1.580192138671875,1.1951619709700345,-1.8712983145147561,-1.0308721570014954
1782663457528262100,1.59026220703125,1.199694938224554,-2.071957226590067,-1.641177307242155
1782663457538332200,1.600332275390625,1.0926292327344418,-2.0286986612305045,-1.9509322615914046
1782663457548401200,1.610401123046875,1.7275947769790887,-2.1587289165921506,-1.7723948726922272
1782663457558471200,1.62047119140625,2.9351866059333083,-2.240954487597197,-0.7046024134419858
1782663457568540200,1.6305400390625,3.695557814478874,-2.0734645624130965,0.7062516419537365
1782663457578610200,1.640610107421875,4.598653486394882,-1.5603101651087403,1.9630179823130367
1782663457588680000,1.650679931640625,6.055754329180717,-1.2549930470764636,2.6427146486878392
1782663457598749200,1.660749267578125,6.618188890221715,-0.905759776558727,3.3092993200331926
1782663457608819200,1.670819091796875,6.571383299905062,-0.10065309850145131,3.9623254216253754
1782663457618889200,1.68088916015625,6.323286490958929,0.5104249723404646,4.459702404083311
1782663457628958200,1.690958251953125,4.617378645130992,0.6604574937019497,4.530476022225618
1782663457639028000,1.701028076171875,3.0388714368134737,0.8295071424834429,3.508896886487305
1782663457649098200,1.71109814453125,2.9131138903349636,0.9290606457125395,2.515563017502427
1782663457659167000,1.7211669921875,3.814796188321709,0.5657865383500233,2.1966743241049347
1782663457669237200,1.7312373046875,5.096311916142702,-0.160298625440523,1.9829190529607235
1782663457679307300,1.741307373046875,6.1635577012956135,-0.6639876405894756,1.8762877933651207
1782663457689376000,1.7513759765625,6.954771207350492,-0.6782374074772,2.0427455990225076
1782663457699446300,1.7614462890625,7.492341960769891,-0.5729503290321678,2.350964868237078
1782663457709515000,1.771514892578125,7.837118690270185,-0.4492466463435441,2.609354230877757
1782663457719585300,1.781585205078125,8.030181009736657,-0.4640831270780414,2.582956053295731
1782663457729655000,1.791655029296875,7.8056152985036364,-0.5804710799258201,2.565491123753786
1782663457739724000,1.80172412109375,7.604402990329265,-0.4970159671258181,2.716690862263739
1782663457749794300,1.811794189453125,6.821535287815332,-0.34477205332517624,2.949432865689695
1782663457759864000,1.821864013671875,5.578302236637473,-0.10226166620925069,3.0330545672282576
1782663457769933300,1.831933349609375,4.9769864485383035,-0.18056582598686216,2.613219674134254
1782663457780003000,1.842003173828125,4.896171036592126,-0.5427388037070632,1.8696258512578903
1782663457790073000,1.852072998046875,4.599819607564807,-0.5124718218676746,1.4927465950541197
1782663457800142000,1.86214208984375,4.125173220092058,-0.3207961344540119,1.3517379956908524
1782663457810212000,1.872212158203125,2.104125658136606,-0.2578561325468123,1.0968199624225496
1782663457820282000,1.8822822265625,-1.951391257405281,-0.5391488163910806,0.016960341020673512
1782663457830351000,1.89235107421875,-3.0907553533077237,-0.368011328484863,-1.0680630928851664
1782663457840421000,1.902421142578125,-3.430800378111005,0.017503946378082037,-1.8282498847745359
1782663457850490000,1.912489990234375,-4.434702110600472,0.5338878271229565,-2.051274942436814
1782663457860560100,1.92256005859375,-5.862058972507715,1.0786151742987333,-1.6235193393461405
1782663457870630100,1.932630126953125,-6.842751678845286,0.9731019589476286,-0.9535800968758761
1782663457880699100,1.94269921875,-6.670824501866102,-0.3594045359201729,-0.8285100942701101
1782663457890769200,1.95276904296875,-6.215951320877671,-1.7523513248339295,-1.6616287052489815
1782663457900839200,1.962839111328125,-6.397227925482392,-1.802863952974975,-2.7116467306166885
1782663457910908200,1.972908203125,-8.05005709207356,-1.453529706300795,-2.976886982065439
1782663457920978200,1.982978271484375,-10.102018263208866,-1.3319389241129158,-2.8288544754147527
1782663457931048200,1.993048095703125,-11.184127270972729,-0.8630404326424003,-2.874748211583495
1782663457941117000,2.003116943359375,-12.385981433057784,-0.34538653196170926,-3.101328185248375
1782663457951187200,2.013187255859375,-12.878733386063574,0.11172566012516617,-3.2641865051090715
1782663457961256000,2.023255859375,-11.720398047709464,0.4826658816687762,-2.9352345367282626
1782663457971326200,2.033326171875,-9.95027287351489,0.2947377102203667,-2.327644490665197
1782663457981396200,2.043396240234375,-8.101500863584876,-0.6804891319267451,-2.0582497498854995
1782663457991465200,2.05346533203125,-5.7145671486049885,-1.8349951212510465,-2.0621169467076657
1782663458001535200,2.06353515625,-3.485239239785075,-3.086568715272844,-2.133355844274163
1782663458011605000,2.07360498046875,-2.731948344889283,-3.5427363199859854,-1.9169279929198324
1782663458021674200,2.08367431640625,-3.626321196645498,-1.8590189709171652,-1.4003835147857666
1782663458031744300,2.093744140625,-4.358251323604583,0.7091815579257905,-0.5457224956929684
1782663458041814000,2.10381396484375,-4.511152897596359,2.4786662422597407,0.6144055712968111
1782663458051883300,2.11388330078125,-4.191182108050585,3.2484590668842195,1.7599103619113563
1782663458061953000,2.123953125,-2.5434330212026834,3.167966603282094,2.597612355157733
1782663458072023000,2.13402294921875,-0.0824397982776165,2.4164452022768557,3.057382076016068
1782663458082092000,2.144092041015625,2.3830998359054325,1.3770705898679791,3.308050781276822
1782663458092162000,2.154162109375,4.621108479309082,0.4579892671823501,3.3410075867220757
1782663458102231000,2.16423095703125,6.401731666642427,-0.4296384211625904,3.0803567088901995
1782663458112301000,2.174301025390625,7.343118198508024,-1.0928545659229159,2.74187586466372
1782663458122371000,2.18437109375,7.44353672106862,-1.1545010939534752,2.4014903558596967
1782663458132440000,2.194440185546875,7.600865463852882,-0.9010347207982092,1.9398679928719997
1782663458142510000,2.204510009765625,7.1475102862119675,-0.8538007490016519,1.8510620205633341
1782663458152580000,2.214580078125,6.053715516829491,-1.0230575377278028,1.5679881523907184
1782663458162649000,2.224649169921875,5.561963096255064,-0.8811921023394912,1.3283714408896863
1782663458172719400,2.23471923828125,6.1191024734973904,-0.43669433102346955,1.286590400736779
1782663458182789000,2.2447890625,6.620283816674351,-0.15016097004674375,1.3977392838872968
1782663458192858000,2.254858154296875,6.916470995050668,0.07478110021799803,1.6045087877973914
1782663458202928000,2.26492822265625,7.433696879577636,0.22707637887969612,1.8921024714820085
1782663458212997000,2.2749970703125,7.982525524592399,0.2489545948192477,2.0878497922487558
1782663458223067100,2.285067138671875,8.225499583697319,0.23927958850115535,2.1170754483416676
1782663458233137200,2.29513720703125,8.323196572339535,0.252692466173321,1.9712053804218768
1782663458243206100,2.3052060546875,8.4382392480582,0.28946079273074865,1.759380346687883
1782663458253276200,2.315276123046875,8.260401385730505,0.28260668905228375,1.483976720882207
1782663458263346200,2.32534619140625,7.916231389951705,0.22566300495043395,1.1796227487936615
1782663458273415200,2.335415283203125,7.624753704440593,0.037527912753075356,0.8660844765134155
1782663458283485200,2.345485107421875,7.061275187304616,-0.2587169871598482,0.6138092128388584
1782663458293555000,2.355554931640625,6.006958441829681,-0.15837839796766637,0.6750276516504585
1782663458303624200,2.365624267578125,4.311947837591171,0.4405637928679585,0.9785738144874572
1782663458313694200,2.375694091796875,2.213922834417224,1.0642900040872394,1.131688300577551
1782663458323763200,2.38576318359375,0.23434710053503513,1.5418689378805457,0.7664975824713707
1782663458333833200,2.395833251953125,-2.161590589633584,1.6835963530376552,-0.18990955452397465
1782663458343903000,2.405903076171875,-5.143128027853369,1.1425669835969805,-1.6347800074204801
1782663458353972200,2.41597216796875,-8.73132203067839,0.03141410604789853,-3.1127088264405725
1782663458364042000,2.4260419921875,-12.083098556435107,-1.9137360650107262,-4.142038430175185
1782663458374112300,2.4361123046875,-12.900837665843962,-4.134433215868473,-5.322290416783094
1782663458384181000,2.446180908203125,-11.713720469641684,-4.278502079585194,-6.839190186971425
1782663458394251000,2.4562509765625,-12.255113996219634,-2.81127264149487,-7.334872932732105
1782663458404321300,2.4663212890625,-13.975167856299876,-1.788551642245054,-6.610131255972385
1782663458414390000,2.47639013671875,-15.119655871087312,-1.273612699611485,-5.478836484757066
1782663458424460300,2.486460205078125,-16.262727004814145,-0.2942510957472026,-5.005808053874969
1782663458434529000,2.496529052734375,-16.301359225547312,0.6305579569354653,-4.922015671944618
1782663458444599600,2.506599609375,-14.200726670223474,0.508239298864454,-4.539737187045812
1782663458454669800,2.516669921875,-10.81558154335022,-0.6914999168932437,-3.7183956692308184
1782663458464738600,2.526738525390625,-7.094526299521327,-2.0201221176736057,-2.678863235911727
1782663458474808600,2.53680859375,-3.874532571882009,-2.926205427098274,-1.9306147190973162
1782663458484878800,2.54687890625,-1.7310434561282395,-3.4125720629811287,-1.4224712818227707
1782663458494947600,2.556947509765625,-0.7418196528106927,-3.6194372823506593,-1.0552169091850518
1782663458505017900,2.567017822265625,-0.3176601745158434,-2.852893522650003,-0.3000176964499056
1782663458515087600,2.577087646484375,-0.16499065571427343,-1.3270739484250544,0.9807705938793718
1782663458525156900,2.587156982421875,-0.4406973561197519,0.15696005560234189,2.3165366750650107
1782663458535226600,2.5972265625,-0.4957698395222425,1.136800894350931,3.4269922179996963
1782663458545295600,2.607295654296875,0.5210574255138636,1.518622063936293,4.163516102489829
1782663458555365600,2.61736572265625,2.3372896863669155,1.3319576288133859,4.433527806124091
1782663458565435600,2.627435546875,4.222300299891829,0.7547229735255241,4.237964317491651
1782663458575505000,2.6375048828125,5.908766363146901,-0.03959470908977091,3.7689489216431973
1782663458585574700,2.64757470703125,7.201509587424993,-0.7168013852797448,3.2160248240083456
1782663458595644700,2.657644775390625,7.815337066572904,-0.8752988795824348,2.875788660547137
1782663458605713700,2.667713623046875,8.083915522533655,-0.7011001774746924,2.750283627524972
1782663458615783700,2.67778369140625,8.052987884828449,-0.5578640382550657,2.70588100669682
1782663458625853700,2.687853759765625,7.937848178476095,-0.5549348529353737,2.582244690155983
1782663458635922700,2.697922607421875,7.674623358502983,-0.46402620925903315,2.3592633255049584
1782663458645992700,2.70799267578125,7.422877963921427,-0.214964354673028,2.163202408744395
1782663458656061700,2.718061767578125,7.180722819983958,0.021667349667847155,2.1300867594756183
1782663458666131700,2.728131591796875,7.014493562385439,0.07321312024891376,2.00127230964452
1782663458676201500,2.738201416015625,7.007373501247167,0.0895471460647881,1.8090642689198255
1782663458686270700,2.748270751953125,7.285746205991506,0.22636019343435762,1.6885545599669216
1782663458696340700,2.7583408203125,7.813437954953312,0.538787143471837,1.7839073235705494
1782663458706410800,2.76841064453125,8.493374859824776,1.3673993829421698,2.618346515628695
1782663458716479700,2.778479736328125,8.133047509971261,0.9349196739390492,3.0106594878077506
1782663458726549500,2.788549560546875,7.701594952058792,0.34114494886919855,2.2413958016239106
1782663458736619800,2.798619873046875,7.806589111971855,0.726324562036991,1.6293267104506493
1782663458746688500,2.8086884765625,7.671642881387472,1.2913811421446502,1.226253713195771
1782663458756758800,2.8187587890625,7.433195944318175,1.517411811363697,0.9133901253066956
1782663458766828800,2.828828857421875,7.204066286170482,1.3377683609187603,0.6306529417425394
1782663458776897800,2.838897705078125,7.266040219524502,1.0269891780883074,0.41301162294521926
1782663458786967800,2.8489677734375,7.521534152984619,0.6252813317067921,0.3062060296960175
1782663458797036500,2.85903662109375,6.8343661278158425,0.34879312553480263,0.1959641783878207
1782663458807106800,2.86910693359375,3.3116414992451664,0.3452650975391269,0.23791458375826477
1782663458817176600,2.879176513671875,0.5414034634500742,1.1690396877199412,-0.10059007973521947
1782663458827245800,2.889245849609375,-1.7905016072690485,1.975089528378844,-0.5688372676901519
1782663458837315800,2.89931591796875,-4.575034710398316,1.701329285866022,-1.3466511939458548
1782663458847385600,2.909385498046875,-6.716721160644292,0.5063283506765961,-2.0392237085066736
1782663458857454800,2.919454833984375,-6.7253411049515,-0.7216986558020114,-2.0945028203971683
1782663458867524600,2.929524658203125,-6.30302988487184,-2.4406503998592495,-1.663320457728207
1782663458877594600,2.9395947265625,-6.889428089824318,-4.082584370687604,-2.142176279589534
1782663458887663600,2.94966357421875,-7.972084794598818,-4.195614245279133,-3.721403034353256
1782663458897733600,2.959733642578125,-10.40660326757431,-2.9978453066810964,-4.617600178927183
1782663458907802600,2.969802734375,-12.988146531462668,-2.2389567379087207,-4.675715975548327
1782663458917872600,2.97987255859375,-14.07290693051815,-1.533318405547738,-4.27908777051866
1782663458927942700,2.989942626953125,-14.216252740657328,-0.6021352877885103,-3.8324265375584363
1782663458938011600,3.00001171875,-13.830461279201506,0.3364367711782455,-3.7342856045410033
1782663458948081700,3.01008154296875,-12.406348513782024,1.1740414415299891,-3.889697407788038
1782663458958151700,3.020151611328125,-10.05732338143587,1.5911767202764748,-3.7680306377545
1782663458968220700,3.030220703125,-7.665251134523749,1.54489603061676,-3.2935219051867723
1782663458978290700,3.040290771484375,-6.63261255237162,-0.05356324788331985,-3.31828429826051
1782663458988360700,3.050360595703125,-4.475583571565151,-0.5869917869314552,-2.93052095220983
1782663458998429700,3.0604296875,-1.6522732862740754,0.2115356953985989,-2.015648040999472
1782663459008499700,3.070499755859375,0.547893994513154,0.24389701916873455,-1.491618906198442
1782663459018569700,3.08056982421875,1.3679542403459548,0.11560936969071627,-1.1101853476911783
1782663459028638700,3.090638671875,1.064194580888748,0.3960515741854906,-1.130503328576684
1782663459038708700,3.100708740234375,0.8225006247222423,1.0721455398932098,-0.9689002694740891
1782663459048777500,3.110777587890625,1.0514286228179932,1.7724746599301695,-0.5016039525032043
1782663459058847700,3.12084765625,1.6440034705787896,1.749839926534891,0.03990019484236836
1782663459068917800,3.130917724609375,2.502573187547922,1.3988101279892027,0.6559831978321075
1782663459078986800,3.14098681640625,3.3602181908875703,1.0503574133899063,1.3887901076257227
1782663459089056800,3.151056884765625,3.7647704669147726,0.5488114016190171,1.8872715441942214
1782663459099126500,3.16112646484375,3.672021456068754,-0.15899473976772277,1.9223127546980976
1782663459109195800,3.17119580078125,3.4322125829964873,-0.8349171117682009,1.7521660313948988
1782663459119265800,3.181265869140625,3.1650334724396467,-1.3215053545124829,1.5789450152128934
1782663459129335600,3.19133544921875,2.98870893728435,-1.5216165695771575,1.6861977677077054
1782663459139404800,3.20140478515625,2.4057500591307877,-1.6055303859300911,2.0438868780121204
1782663459149474600,3.211474609375,1.7484762369662523,-1.75143654807657,2.3686221054807306
1782663459159543800,3.221543701171875,1.8235013750731943,-1.7339076133877038,2.9275971737176176
1782663459169613600,3.231613525390625,1.9409113644450902,-1.6293249568849801,3.5789608950555323
1782663459179683600,3.24168359375,2.2811551266908645,-1.40262427944988,4.071432862076163
1782663459189752600,3.251752685546875,3.0236037250548597,-1.4548163851104676,4.315388917955756
1782663459199822600,3.261822509765625,3.8193653959333895,-1.6258678021684287,4.541609702919423
1782663459209892900,3.271892822265625,4.3126381579428905,-1.8017824413485823,4.691137416563928
1782663459219961600,3.281961669921875,4.655173245996236,-1.8387258322119713,4.716709664715826
1782663459230031600,3.292031494140625,5.135775327003002,-1.7364236878618597,4.477749517427385
1782663459240101600,3.3021015625,5.823585157206654,-1.5661388712622224,4.149882129412889
1782663459250170600,3.312170654296875,6.399695776900649,-1.3903063574075698,3.9512379181608557
1782663459260241000,3.322240966796875,6.789339822131395,-1.3076888644754885,3.8949431994870305
1782663459270310700,3.332310546875,6.864552591764927,-1.2896071182094513,3.7728590808242557
1782663459280379600,3.342379638671875,6.365947821077704,-1.2536563916452228,3.5341532005578276
1782663459290449700,3.35244970703125,5.602843388175964,-1.0404583159923553,3.244932938584685
1782663459300518700,3.3625185546875,5.092781403928995,-0.544958890909329,2.9329017098665235
1782663459310588700,3.372588623046875,4.274547204479575,0.005511420365236699,2.552258424954116
1782663459320658700,3.38265869140625,3.287914002177119,0.48447987228818234,2.1001405340231956
1782663459330727700,3.392727783203125,2.06351716889441,0.9720251234963536,1.7747673009119926
1782663459340797700,3.402797607421875,2.237943176952004,1.39984546238631,1.7930838788472114
1782663459350867700,3.41286767578125,1.472502410057187,1.5844263692334293,2.0492183021679518
1782663459360936700,3.422936767578125,-1.1889198617100716,1.487412978941202,1.7335221212014555
1782663459371006700,3.4330068359375,-3.833150175657868,1.2823448721215127,0.5495386929802596
1782663459381076500,3.443076416015625,-4.339902596965432,0.8802372127674519,-0.684646543867141
1782663459391145700,3.453145751953125,-4.470699891176819,-0.37482407723963257,-1.3820901715956628
1782663459401215700,3.4632158203125,-4.5044338184744115,-2.608361712709069,-1.3597390774473548
1782663459411285800,3.47328564453125,-3.7773844492942095,-4.548409153801202,-1.0048853366993367
1782663459421354800,3.483354736328125,-5.202278720480203,-4.9193449914306395,-1.2738109986625612
1782663459431424500,3.493424560546875,-8.989268617987632,-3.3597745387732982,-1.7021235049836336
1782663459441493800,3.50349365234375,-12.381445543193816,-0.5879743682280183,-1.6035257681094108
1782663459451563300,3.513563232421875,-14.420034607058763,1.4812646854445337,-1.7464198889583349
1782663459461633500,3.523633544921875,-15.618258888208866,2.596079154241085,-2.673566298547387
1782663459471702300,3.533702392578125,-15.29817703950405,3.0405835014283653,-3.889094765719771
1782663459481772500,3.5437724609375,-13.550082495331763,2.6812957237556576,-4.426002086794376
1782663459491842600,3.553842529296875,-10.679739825230836,1.8013558864995836,-4.22107601879388
1782663459501911300,3.563911376953125,-7.6639084877431385,0.8956628915667534,-3.769364808967709
1782663459511981600,3.573981689453125,-5.07600621021688,0.11600129161775112,-3.2811639433950184
1782663459522051300,3.58405126953125,-3.220520381861925,-0.4533806043431163,-2.739372941932082
1782663459532120600,3.59412060546875,-1.9130746784925459,-0.8153709189727902,-1.9797864540234207
1782663459542190300,3.6041904296875,-0.8986819471269846,-1.0833451254300772,-1.3255769878655672
1782663459552260400,3.61426025390625,-0.2614583948224783,-1.1368569353871048,-0.8089718655854463
1782663459562329300,3.624329345703125,-0.2820195368140936,-0.9542603342249989,-0.33007629623562096
1782663459572399400,3.6343994140625,-0.6703495768368244,-0.627697599068284,0.02218377475738525
1782663459582469400,3.644469482421875,-0.9113175568163394,-0.6432422280721366,0.3400219361886382
1782663459592538400,3.654538330078125,-0.6805974146068096,-0.6824572171293198,0.6715536919295787
1782663459602608400,3.6646083984375,-0.1904459994882345,-0.39959626105502244,1.0125897735968232
1782663459612677400,3.674677490234375,0.19957213975191115,-0.02239128002822399,1.4962600100025534
1782663459622747400,3.684747314453125,0.5455448010385037,0.12323708809018134,2.0743948290005325
1782663459632817400,3.6948173828125,1.099241928872466,-0.01753434151634574,2.445546647468209
1782663459642886400,3.704886474609375,1.8202841665923595,-0.4409047152601182,2.5344044960945844
1782663459652956400,3.714956298828125,2.8410131152421236,-0.9367285499919206,2.646915022987127
1782663459663026400,3.7250263671875,3.8532980606734752,-1.2594821751892566,2.6913892477467654
1782663459673095400,3.735095458984375,4.691991695305704,-1.353009769192338,2.680500189463794
1782663459683165200,3.745165283203125,5.244671170529723,-1.2984724155798553,2.7268171194806694
1782663459693235500,3.7552353515625,5.526345254907012,-1.180511587392166,2.878572738307714
1782663459703304200,3.76530419921875,5.569014183810353,-1.111811706783995,2.954434911760688
1782663459713374500,3.77537451171875,5.40905743061006,-1.1005835527397692,2.93996711820811
1782663459723444500,3.785444580078125,5.336108514255285,-1.0143889319732784,2.9011896437853575
1782663459733513500,3.795513427734375,5.284615058383345,-0.8789856052711605,2.8324326261624693
1782663459743583500,3.80558349609375,5.223854592472314,-0.7085244822565466,2.707343772725761
1782663459753652200,3.81565234375,5.1510827862501145,-0.5514104782015085,2.522919810006022
1782663459763722500,3.825722412109375,5.307318473100662,-0.4153836127735674,2.3524127289578316
1782663459773792500,3.83579248046875,5.64149489813149,-0.29945224458687003,2.270790092281997
1782663459783861500,3.845861572265625,6.171746852970123,-0.23568287918344138,2.18140471265018
1782663459793931500,3.855931640625,6.722780899074674,-0.2796115988895297,2.111278160239756
1782663459804001300,3.866001220703125,6.775049430972337,-0.28760793140567836,1.9122949262917042
1782663459814070500,3.876070556640625,6.632164808604121,-0.16325374891906977,1.5716045893222093
1782663459824140300,3.886140380859375,6.260254572984576,-0.03948299234360456,1.2911731984823942
1782663459834210300,3.896210205078125,5.014308171194791,0.1545860199473798,0.8562459501966834
1782663459844279300,3.906279296875,3.3671979667723178,0.47182796905115243,0.1813727584555745
1782663459854349300,3.916349365234375,1.4703759194225072,1.1048425253584981,-0.38509807236418125
1782663459864419600,3.926419677734375,-0.5548258396029472,1.930124305231869,-0.7154368189282715
1782663459874488300,3.93648828125,-1.2237398306787013,2.6704285850435494,-0.797759858958423
1782663459884558300,3.946558349609375,-1.757430527794361,2.850333316773176,-0.640593174868077
1782663459894628400,3.95662841796875,-2.601561385044455,2.23300864315927,-0.48292716295346616
1782663459904697300,3.966697265625,-2.6622517083287236,1.1131795610710977,-0.5434677025035023
1782663459914767600,3.976767578125,-2.8560896883428093,0.035274434737861154,-0.807294360827282
1782663459924837400,3.98683740234375,-3.7986914412170645,-1.1466831867441534,-1.541611894379556
1782663459934906400,3.99690625,-4.705068034499884,-2.8747023266151546,-2.713808877086639
1782663459944976400,4.006976318359375,-5.425962972703576,-4.5734234758093955,-3.604674012982845
1782663459955045400,4.01704541015625,-5.292008675765991,-4.968714294755459,-3.8257846153259276
1782663459965115400,4.027115478515625,-5.4766264074921605,-4.222389147219062,-3.3777187762647864
1782663459975185400,4.037185302734375,-6.460552104401588,-3.3724335293382404,-2.5750071401178833
1782663459985254400,4.04725439453125,-7.483513342148065,-2.0728210038125514,-1.9204297174304723
1782663459995324400,4.057324462890625,-8.21380330068469,-0.8135872504264116,-1.8519218522630632
1782663460005394400,4.06739453125,-8.228186630824208,-0.6034370180368424,-2.218702469909191
1782663460015463400,4.07746337890625,-7.979027745604514,-1.300987028749287,-2.436806437782198
1782663460025533400,4.087533447265625,-8.429711658209563,-1.8155849028602242,-2.4613240623146293
1782663460035603200,4.097603271484375,-8.721918827039003,-1.711651942437887,-2.1964184496477244
1782663460045672400,4.10767236328125,-8.360500759339333,-1.6722680265545844,-1.7637769742116332
1782663460055742500,4.117742431640625,-7.262172438180446,-1.9327575763449072,-1.1477847182452678
1782663460065812200,4.127812255859375,-5.7498804540485144,-2.092908975334465,-0.3880578720178455
1782663460075881500,4.137881591796875,-4.871574355474114,-1.8356746279478071,0.3408482309449464
1782663460085951200,4.147951171875,-4.056021942454576,-1.175408930490911,0.8227729388576001
1782663460096020500,4.1580205078125,-3.2628438583284614,-0.4597320191964507,1.3331772337362169
1782663460106090200,4.16809033203125,-2.20055774140954,0.10297449065372347,1.7396151773795485
1782663460116160500,4.178160400390625,-0.9611813656598329,0.6567610503368079,1.8953518286667763
1782663460126229200,4.188229248046875,0.018270985227823257,0.7298093354128301,1.9071506952710449
1782663460136299300,4.19829931640625,0.9770289231330156,0.572641628409177,1.931171622327715
1782663460146369500,4.20836962890625,1.7779636127352714,0.20572744751125574,1.9785418607898055
1782663460156438300,4.218438232421875,2.432003275284171,-0.31120237667858597,1.7036816942110657
1782663460166508500,4.228508544921875,3.1512644748061893,-0.8815491721488535,1.1518014065407216
1782663460176578300,4.238578369140625,3.750613346746564,-1.1596386760376394,0.7996807440184056
1782663460186647300,4.248647216796875,3.972617098537087,-1.1733863386221228,0.7824275575309991
1782663460196717600,4.258717529296875,3.8129596205443144,-1.152744532609731,0.9102095955744385
1782663460206787300,4.268787353515625,3.9082565623074768,-1.0450435248907655,1.1280039129763841
1782663460216856600,4.278856689453125,4.448065450042486,-0.9313515331286937,1.418524297762662
1782663460226926300,4.28892626953125,5.133965647232532,-0.7352024996932596,1.618928066033125
1782663460236996400,4.298996337890625,5.687497939893603,-0.511796845215559,1.8274970205806194
1782663460247065300,4.3090654296875,6.100569622462988,-0.4000655590672046,2.019273538020253
1782663460257135400,4.31913525390625,6.43229397816658,-0.33078597887493666,2.164163654991984
1782663460267204400,4.329204345703125,6.587122720828652,-0.2394363134328276,2.3343223609939217
1782663460277274400,4.3392744140625,6.53638037558496,-0.12816942992582916,2.473691376456618
1782663460287344400,4.349344482421875,6.561732843506336,0.09832418062984943,2.5703467470914125
1782663460297413400,4.359413330078125,6.658192399308085,0.4720518409349024,2.6012013195604085
1782663460307483400,4.3694833984375,6.695597124072909,0.7969520497068763,2.5348008019357917
1782663460317553400,4.379553466796875,6.557385169690847,0.9162382082141936,2.3397464318692682
1782663460327622400,4.389622314453125,6.557023350641131,0.7885587537623941,2.047836200159788
1782663460337692400,4.3996923828125,6.681762659987807,0.5378884410664438,1.7341928600698708
1782663460347762400,4.409762451171875,6.6878229829400775,0.4102576480619609,1.374820618984103
1782663460357831400,4.41983154296875,6.34706308786571,0.43329599382206796,1.088511714413017
1782663460367901400,4.4299013671875,5.58078820823431,0.5058301918961108,0.8201942474760114
1782663460377971500,4.439971435546875,4.869999068981409,0.6952944868706167,0.39714346107542514
1782663460388040200,4.450040283203125,4.108801346483826,0.7914055214956403,-0.06761530024185776
1782663460398110500,4.4601103515625,3.336704628831148,0.9112515058428049,-0.40523382855057716
1782663460408179200,4.47017919921875,2.7639824825316666,0.9645695467934012,-0.6007708675675094
1782663460418249500,4.48024951171875,2.1630454646170136,0.8589239372342824,-0.7312943132735789
1782663460428319500,4.490319580078125,1.0537795698583126,0.7766337765604258,-0.9691299865767359
1782663460438388200,4.50038818359375,-0.8749006740450859,0.6742270027920604,-1.4145853508785367
1782663460448458500,4.51045849609375,-3.023179946684837,0.5128524917483329,-2.059612416540831
1782663460458528500,4.520528564453125,-4.200876403591036,-0.13019699023067952,-2.3633853738710284
1782663460468597500,4.530597412109375,-4.414959883776307,-1.791332505135238,-2.1336432829134164
1782663460478667500,4.54066748046875,-3.9595787532657383,-3.6232340442851183,-1.9996924931071698
1782663460488737500,4.550737548828125,-3.8200393496721983,-4.239650663143396,-2.795636680945754
1782663460498806500,4.560806640625,-4.694845331171154,-3.443438618148863,-3.724694477114081
1782663460508876500,4.57087646484375,-6.583792115101218,-2.492317458732426,-3.723537123772502
1782663460518946300,4.5809462890625,-8.254131803941727,-1.6599416289448736,-3.3184342281252146
1782663460529015600,4.591015625,-9.568779986035823,-0.3148980163261294,-3.0946310256972906
1782663460539085600,4.60108544921875,-11.344916383343934,1.0916107033416629,-3.441528692874312
1782663460549154600,4.611154541015625,-13.114772677469253,2.151250689665973,-3.815957048794627
1782663460559224600,4.621224609375,-13.60851948673129,2.5305422677084803,-3.716223878149688
1782663460569294300,4.63129443359375,-12.457330513000487,2.6220538457140323,-3.0948613273218273
1782663460579363600,4.641363525390625,-10.103293689972162,2.450803106691688,-2.1941734471999106
1782663460589433300,4.651433349609375,-7.247361822539568,1.8292093774564564,-1.316646808565408
1782663460599503600,4.661503662109375,-4.5802305254757405,0.9836560861878096,-0.7438511586382984
1782663460609572400,4.671572265625,-1.8353186541169881,-0.0817620451465249,-0.6681470983564853
1782663460619642600,4.681642578125,0.407332262134552,-1.3475073723837732,-0.8388505787596106
1782663460629712600,4.691712646484375,1.391307643404603,-2.4559675037175417,-0.8387202303782105
1782663460639781400,4.701781494140625,1.05785018029809,-2.8701497778773306,-0.7783157382979988
1782663460649851600,4.7118515625,0.2570996150910854,-2.3273586594611406,-0.530935553188622
1782663460659920400,4.72192041015625,-0.5379629676073789,-1.239176323132962,0.185907479275763
1782663460669990700,4.73199072265625,-1.175612051847577,-0.4071278256036341,1.1436074325606227
1782663460680060700,4.742060791015625,-1.3160644786328077,-0.08396963819339871,1.8083362469062207
1782663460690129400,4.75212939453125,-0.5535159260481596,-0.34338286398909984,2.0536548233106733
1782663460700199700,4.76219970703125,0.5812491516262293,-0.4358123970897868,2.044032131701708
1782663460710269400,4.77226953125,1.187085632020235,-0.6994945689089596,2.066823516963422
1782663460720338700,4.782338623046875,1.6662889521449804,-1.2058349022842942,2.152563233569264
1782663460730408400,4.792408447265625,2.416027707517147,-1.6724769931301473,2.1422376543879507
1782663460740478500,4.802478515625,3.10083426425159,-1.9382759013749657,2.128490284064412
1782663460750547500,4.81254736328125,3.467074053019285,-1.9880054163143037,2.143603974305093
1782663460760617500,4.822617431640625,3.896514102065563,-1.9164868250235914,2.237843515969813
1782663460770686700,4.832686767578125,4.546432300770283,-1.5852854702807961,2.4794793122082948
1782663460780756500,4.842756591796875,5.1866509432375425,-1.1568200384203344,2.7529499241247772
1782663460790826500,4.852826416015625,5.721794761770964,-0.7078563006713986,3.0299846582636234
1782663460800895500,4.8628955078125,6.056743340218067,-0.2998755845654756,3.4024621723771094
1782663460810965500,4.872965576171875,6.058581661561131,-0.05258081271722913,3.7610201744705436
1782663460821035500,4.883035400390625,6.116161743870377,0.07360730719827115,3.861196997229755
1782663460831104500,4.8931044921875,6.290771291801333,0.17929639057293534,3.740854753798246
1782663460841174500,4.903174560546875,6.2793222615480415,0.28952786661759017,3.547444643807411
1782663460851244500,4.91324462890625,5.9142696367383,0.33216099355518813,3.259090935535729
1782663460861313500,4.9233134765625,5.267079986214638,0.3011895167082548,2.767801164036989
1782663460871383600,4.933383544921875,4.877407883933186,0.31454876449704167,2.2477175519913435
1782663460881453600,4.94345361328125,4.622161787754297,0.37965719648450613,2.047152894070744
1782663460891522300,4.953522216796875,4.362504889395833,0.37168256434351205,1.9279989836409688
1782663460901592600,4.963592529296875,4.452244781553745,0.43569998622387646,1.7864988013684748
1782663460911661600,4.97366162109375,4.84015805746913,0.49585722554475065,1.6448863908931612
1782663460921731600,4.983731689453125,4.734906707924604,0.5734202115662396,1.707237340866029
1782663460931801600,4.993801513671875,3.9782121420651673,0.7255752049744129,1.630960741393268
1782663460941870300,5.003870361328125,2.825451973494887,0.9517907292410731,1.0507233971580863
1782663460951940600,5.013940673828125,1.2278858444422482,1.0734291499629616,0.20723229911625385
1782663460962010600,5.0240107421875,-0.822698777642846,0.8061126767620443,-0.8828130546048283
1782663460972079600,5.03407958984375,-2.107279738253355,0.24097324067652223,-2.165296458414197
1782663460982149600,5.044149658203125,-2.167132441669702,-0.6151996442839502,-2.899569056846201
1782663460992219400,5.054219482421875,-2.5225848789632317,-1.782945785062015,-2.9332778497025367
1782663461002288600,5.06428857421875,-3.6500451865822074,-2.46850316016376,-2.777234470553696
1782663461012358400,5.0743583984375,-5.495789957645536,-1.80247203104794,-2.7100372495934364
1782663461022427600,5.084427734375,-6.770573746863007,0.4264388214036822,-2.336033548825979
1782663461032497400,5.094497314453125,-7.2857508821666235,1.9408011820688842,-1.4732958985224365
1782663461042567400,5.1045673828125,-7.3586594665110105,2.4123037185579537,-0.889510798677802
1782663461052636700,5.11463671875,-6.998239177677035,2.5954016933709383,-0.896501826608926
1782663461062706400,5.12470654296875,-6.186166423466801,2.2328701114714145,-0.8752703841403127
1782663461072776400,5.1347763671875,-5.436203796210885,1.0838766019582748,-0.6677478699058293
1782663461082845400,5.144845458984375,-5.168779186460376,-0.1782943739235401,-0.8620544903449714
1782663461092915500,5.15491552734375,-5.659657162287831,-1.0180065379485488,-1.641327383237332
1782663461102985700,5.16498583984375,-6.379708050882816,-1.4040104731112717,-2.2265341864481565
1782663461113054500,5.175054443359375,-6.395480789554119,-1.3993968418359755,-2.3217189000084995
1782663461123124500,5.18512451171875,-5.526033704739809,-1.3211679392516613,-2.038774649564922
1782663461133193500,5.195193359375,-4.199114654615522,-1.3232108432561158,-1.5178385123431681
1782663461143263500,5.205263427734375,-2.896881717458367,-1.184870294058323,-0.8949486058175563
1782663461153333500,5.21533349609375,-1.9072785594344137,-0.9767883923754096,-0.34945378140062094
1782663461163402500,5.225402587890625,-1.299580961343646,-0.7690718168735504,0.08280731641575693
1782663461173472500,5.235472412109375,-0.7806061873227358,-0.5466776044607162,0.423459951723367
1782663461183542500,5.24554248046875,-0.3579968610793352,-0.347109264101088,0.5588749688632786
1782663461193611500,5.255611572265625,-0.002176174995303154,-0.1899699064090848,0.483964397046715
1782663461203681500,5.265681640625,0.2788940982699394,-0.12048574355542659,0.29336715251952405
1782663461213751600,5.27575146484375,0.1512286723434925,-0.1993956141412258,0.03620148645490408
1782663461223820500,5.285820556640625,-0.47157706303000446,-0.35081688644737,-0.2455953475192189
1782663461233890600,5.295890625,-0.48045828862190243,-0.48552697018831964,-0.5660790550231933
1782663461243959600,5.30595947265625,0.578030774101615,-0.515539831136167,-0.6153897600285708
1782663461254029600,5.316029541015625,1.5112117876797913,-0.5588450121164321,-0.3271199306480586
1782663461264097500,5.32609765625,2.6785125227779147,-0.7104954170033335,0.00560600331351161
1782663461274167600,5.33616748046875,3.7202854285001754,-0.6636877808600664,0.43560807015672326
1782663461284237600,5.346237548828125,3.84090561209023,-0.3713397422552109,0.9901995164819061
1782663461294306600,5.356306640625,3.3471307457774877,-0.008615268132090568,1.4483334528319536
1782663461304376600,5.36637646484375,2.8646295531511305,0.2073155934855342,1.5746455644533037
1782663461314446300,5.3764462890625,2.493778471195698,0.15275252090990543,1.3724141423642635
1782663461324515600,5.386515625,2.0690631125837564,-0.0011059154152870177,1.0437057734809816
1782663461334585300,5.39658544921875,1.5547031388819217,-0.2370277179211378,0.5924798629537225
1782663461344654600,5.406654541015625,1.2329431278318166,-0.5890574872896075,0.23661431481465695
1782663461354724400,5.416724365234375,0.759721220204234,-0.8630851485669613,0.03295344444438815
1782663461364794400,5.42679443359375,0.3767880707889795,-0.8817816657304763,-0.17324483544901012
1782663461374863600,5.436863525390625,-0.005846387940645218,-0.7217264205917716,-0.17183949869573115
1782663461384933400,5.446933349609375,-0.17263503298759458,-0.3935606341525912,-0.036505583968013525
1782663461395003600,5.457003662109375,-0.117465518951416,-0.043241175833344456,0.12341916665881872
1782663461405072400,5.467072265625,-0.09847148014605045,0.08058569484353065,-0.0777317667171359
1782663461415142700,5.477142578125,-0.3732885382354259,-0.1671580628812313,-0.562479130835086
1782663461425212700,5.487212646484375,-0.7377876208156346,-0.1198667348742485,-0.6811636701874435
1782663461435281400,5.497281494140625,-1.0215729982584714,0.19431202726662158,-0.32504560859203335
1782663461445351700,5.5073515625,-0.7949164522260427,0.35739217318445443,0.1516527429744601
1782663461455420700,5.517420654296875,-0.02792904041111469,0.3126119512155652,0.4705241929762065
1782663461465490700,5.52749072265625,0.7897545394182205,0.09145838651359081,0.5808418859995901
1782663461475560700,5.537560791015625,1.4375234511345625,-0.35142537373453375,0.6809314688667655
1782663461485629400,5.54762939453125,2.1845973712116478,-0.8746069517955184,0.7859031246870756
1782663461495699700,5.55769970703125,1.6930612237364053,-0.7870914576888084,0.6076433836854994
1782663461505769700,5.567769775390625,1.2636147449493407,-0.5906316047385335,0.35485885531455275
1782663461515838700,5.577838623046875,0.6508861669540404,-0.5862693178758025,0.1380637780830264
1782663461525908700,5.58790869140625,0.20709727455973623,-0.4134498682320118,0.17493936440721153
1782663461535978500,5.597978515625,-0.3659907824426889,-0.2398793079599738,0.12723098003193736
1782663461546047700,5.6080478515625,-0.8986001140624285,-0.2760188350945711,-0.09606909517943858
1782663461556117500,5.618117431640625,-1.152232345303893,-0.4151631018906832,-0.27247780148684975
