time,seconds_elapsed,z,y,x
1782663456007745800,0.069745849609375,-0.0873594656586647,0.20855465531349182,0.1418856531381607
1782663456017815800,0.07981591796875,-0.104428730905056,0.3990503251552582,0.09395141899585724
1782663456027885600,0.089885498046875,-0.11116226762533188,0.509207010269165,-0.013250916264951229
1782663456037954800,0.099954833984375,-0.12754975259304047,0.521903395652771,-0.1554488092660904
1782663456048024600,0.110024658203125,-0.15955345332622528,0.4522326588630676,-0.2686574459075928
1782663456058094800,0.1200947265625,-0.15877367556095123,0.37467342615127563,-0.33467215299606323
1782663456068163800,0.130163818359375,-0.11200027167797089,0.2744109034538269,-0.3513939082622528
1782663456078233600,0.140233642578125,-0.06015519052743912,0.14782820641994476,-0.3174037039279938
1782663456088302800,0.150302734375,-0.02214573509991169,0.07021994143724442,-0.25211766362190247
1782663456098372600,0.16037255859375,0.02580687776207924,0.1001269742846489,-0.19381919503211975
1782663456108443000,0.17044287109375,0.08815427869558334,0.1838245838880539,-0.1563025861978531
1782663456118511600,0.18051171875,0.1555442363023758,0.34706225991249084,-0.13230778276920319
1782663456128582000,0.190581787109375,0.20399533212184906,0.552000880241394,-0.13004297018051147
1782663456138652000,0.20065185546875,0.25997844338417053,0.6662797927856445,-0.16209757328033447
1782663456148720600,0.210720703125,0.2854643166065216,0.6798939108848572,-0.19995997846126556
1782663456158791000,0.220791015625,0.23625177145004272,0.46151599287986755,-0.17031313478946686
1782663456168860700,0.230860595703125,0.19675569236278534,0.12150752544403076,-0.038927603513002396
1782663456178930000,0.240929931640625,0.32637840509414673,-0.07651074975728989,0.28013718128204346
1782663456188999700,0.250999755859375,0.6724710464477539,-0.08083759248256683,0.6788756251335144
1782663456199069700,0.261069580078125,1.0902488231658936,0.0886494442820549,1.045917272567749
1782663456209139000,0.271138916015625,1.592543125152588,0.4735991954803467,1.257979393005371
1782663456219208700,0.281208740234375,2.089540719985962,0.98726487159729,1.3368656635284424
1782663456229278000,0.29127783203125,2.5029098987579346,1.3428475856781006,1.4640671014785767
1782663456239347700,0.30134765625,2.798354148864746,1.5514130592346191,1.5947648286819458
1782663456249417700,0.311417724609375,2.789930582046509,1.5712478160858154,1.6928446292877197
1782663456259486700,0.32148681640625,2.476853370666504,1.169447898864746,1.7167412042617798
1782663456269556700,0.331556640625,1.9379864931106567,0.5720310211181641,1.688778281211853
1782663456279626800,0.341626708984375,1.3392159938812256,0.13563695549964905,1.702675461769104
1782663456289695700,0.35169580078125,0.801483690738678,0.013785096816718578,1.76756751537323
1782663456299765800,0.361765869140625,0.4066101908683777,-0.04273064434528351,1.8049033880233765
1782663456309835800,0.371835693359375,0.24539059400558472,-0.24351222813129425,1.7507860660552979
1782663456319904800,0.38190478515625,0.2946438789367676,-0.37107524275779724,1.5829793214797974
1782663456329974500,0.391974609375,0.5091378688812256,0.333866685628891,0.9873542189598083
1782663456340044800,0.402044921875,0.7915176153182983,0.814773440361023,0.3966000974178314
1782663456350113800,0.41211376953125,0.9774256348609924,1.5809576511383057,-0.2565400302410126
1782663456360183800,0.422183837890625,0.7968529462814331,1.7463148832321167,-0.7861087918281555
1782663456370252800,0.432252685546875,0.25642675161361694,1.5094091892242432,-1.2071714401245117
1782663456380322800,0.44232275390625,-0.5057728290557861,1.1692970991134644,-1.381016492843628
1782663456390392800,0.452392822265625,-1.1286731958389282,0.7336284518241882,-1.4771982431411743
1782663456400461600,0.462461669921875,-1.398512840270996,0.1279297024011612,-1.6726970672607422
1782663456410531800,0.47253173828125,-1.4699482917785645,-0.535345733165741,-1.966160535812378
1782663456420601900,0.482601806640625,-1.405059814453125,-0.8860414624214172,-2.2286477088928223
1782663456430670800,0.4926708984375,-1.1504795551300049,-0.7649487853050232,-2.3225433826446533
1782663456440740900,0.502740966796875,-0.8131036758422852,-0.47241461277008057,-2.293720006942749
1782663456450810000,0.51281005859375,-0.4994741380214691,-0.3962043821811676,-2.1294596195220947
1782663456460879000,0.522879150390625,-0.25960347056388855,-0.5365718603134155,-1.8452430963516235
1782663456470949000,0.53294921875,-0.06699226051568985,-0.720526397228241,-1.4461421966552734
1782663456481019100,0.54301904296875,-0.0017749075777828693,-0.6563215851783752,-1.1166554689407349
1782663456491088100,0.553088134765625,-0.14191922545433044,-0.2144608497619629,-1.1164695024490356
1782663456501158100,0.563158203125,-0.48739221692085266,0.4232833981513977,-1.3782098293304443
1782663456511228200,0.573228271484375,-0.997183620929718,1.0304875373840332,-1.6369813680648804
1782663456521297200,0.583297119140625,-1.501294732093811,1.339229941368103,-1.6424353122711182
1782663456531367200,0.5933671875,-1.8453809022903442,1.1389878988265991,-1.4126840829849243
1782663456541436200,0.603436279296875,-1.9883804321289062,0.4745684564113617,-1.067505121231079
1782663456551506000,0.613505859375,-1.9303070306777954,-0.24806097149848938,-0.6703665852546692
1782663456561576200,0.623576171875,-1.7482801675796509,-0.6750335693359375,-0.1699138730764389
1782663456571645000,0.63364501953125,-1.467045545578003,-1.0111173391342163,0.4377185106277466
1782663456581715200,0.643715087890625,-1.1223723888397217,-1.372929573059082,1.0240886211395264
1782663456591785200,0.65378515625,-0.7942315936088562,-1.545650601387024,1.4519377946853638
1782663456601854200,0.663854248046875,-0.48446235060691833,-1.3622978925704956,1.645540714263916
1782663456611924200,0.67392431640625,-0.2510759234428406,-0.9823365211486816,1.5994806289672852
1782663456621994200,0.683994140625,-0.10482178628444672,-0.4972532093524933,1.3870857954025269
1782663456632063200,0.694063232421875,-0.008510921150445938,-0.030785446986556053,1.0884041786193848
1782663456642133200,0.70413330078125,0.04976782947778702,0.35331693291664124,0.7853434085845947
1782663456652203000,0.714203125,0.06375931948423386,0.5875977277755737,0.5585160851478577
1782663456662272300,0.724272216796875,0.05452534183859825,0.6554095149040222,0.46197274327278137
1782663456672342000,0.734342041015625,0.08666370809078217,0.6631873250007629,0.5220306515693665
1782663456682412000,0.744412109375,0.17419010400772095,0.657437264919281,0.6900997757911682
1782663456692481000,0.75448095703125,0.32252371311187744,0.6818148493766785,0.9510977864265442
1782663456702551000,0.764551025390625,0.5221156477928162,0.9093124270439148,1.2617043256759644
1782663456712621300,0.774621337890625,0.837052583694458,1.3876696825027466,1.5440219640731812
1782663456722690000,0.78468994140625,1.337348461151123,2.0054752826690674,1.7018084526062012
1782663456732760000,0.794760009765625,1.7397106885910034,2.460386037826538,1.543233871459961
1782663456742829000,0.8048291015625,1.8662455081939697,2.3589513301849365,1.1118558645248413
1782663456752899000,0.814899169921875,1.885435938835144,1.852640986442566,0.7952347993850708
1782663456762969300,0.82496923828125,2.012695550918579,1.2650176286697388,0.8503537178039551
1782663456773038000,0.8350380859375,2.097149610519409,0.5125094652175903,1.2094660997390747
1782663456783108400,0.8451083984375,1.9694191217422485,-0.3665262758731842,1.6106725931167603
1782663456793178000,0.85517822265625,1.7659486532211304,-0.8489611148834229,1.8544162511825562
1782663456803247000,0.8652470703125,1.6023224592208862,-0.8779885172843933,1.8550455570220947
1782663456813317000,0.875317138671875,1.1646627187728882,-1.0663154125213623,1.3556236028671265
1782663456823387100,0.88538720703125,0.4542064070701599,-1.2619256973266602,0.4406379163265228
1782663456833456000,0.8954560546875,0.013162290677428246,-0.8867389559745789,-0.2853606641292572
1782663456843526100,0.905526123046875,-0.21596837043762207,-0.3112460672855377,-0.5810064077377319
1782663456853596200,0.91559619140625,-0.3745953440666199,-0.0815410241484642,-0.5583873987197876
1782663456863665200,0.9256650390625,-0.3917919099330902,-0.15879108011722565,-0.4190678298473358
1782663456873735200,0.935735107421875,-0.4130076467990875,-0.48975950479507446,-0.36807554960250854
1782663456883805000,0.945804931640625,-0.4581141173839569,-0.7413119077682495,-0.43166303634643555
1782663456893874200,0.955874267578125,-0.6013615131378174,-0.847461462020874,-0.6498537659645081
1782663456903944200,0.965944091796875,-0.8794336318969727,-0.9337012767791748,-0.9713135957717896
1782663456914014200,0.97601416015625,-1.1867557764053345,-0.9205895066261292,-1.171532154083252
1782663456924083200,0.986083251953125,-1.4373900890350342,-0.7916322946548462,-1.1827735900878906
1782663456934153000,0.996153076171875,-1.6042461395263672,-0.72419673204422,-1.0615042448043823
1782663456944222200,1.00622216796875,-1.672616958618164,-0.7225064635276794,-0.8905715346336365
1782663456954292000,1.0162919921875,-1.6264759302139282,-0.7303573489189148,-0.792293131351471
1782663456964362200,1.0263623046875,-1.4803745746612549,-0.73580002784729,-0.7869827747344971
1782663456974431000,1.036430908203125,-1.2984203100204468,-0.8485044836997986,-0.7811712026596069
1782663456984501200,1.046501220703125,-1.188450574874878,-0.9741830229759216,-0.7149032354354858
1782663456994571300,1.0565712890625,-1.1410044431686401,-1.102421522140503,-0.6584556102752686
1782663457004640000,1.066639892578125,-1.1472101211547852,-1.2182872295379639,-0.6331031322479248
1782663457014710300,1.076710205078125,-1.2018777132034302,-1.3041458129882812,-0.6228244304656982
1782663457024780000,1.086780029296875,-1.263074517250061,-1.3997514247894287,-0.6259536743164062
1782663457034849300,1.096849365234375,-1.2310529947280884,-1.4305038452148438,-0.6560103297233582
1782663457044919300,1.106919189453125,-1.0970996618270874,-1.2091211080551147,-0.7270342111587524
1782663457054989000,1.116989013671875,-0.9064204692840576,-0.8675459027290344,-0.7980117797851562
1782663457065058300,1.127058349609375,-0.7300715446472168,-0.6526003479957581,-0.849135160446167
1782663457075128000,1.137128173828125,-0.6127077341079712,-0.5937492847442627,-0.8516418933868408
1782663457085198000,1.147197998046875,-0.5817724466323853,-0.7284016013145447,-0.7317543625831604
1782663457095267000,1.15726708984375,-0.5949098467826843,-1.0206114053726196,-0.5304117202758789
1782663457105337000,1.167337158203125,-0.591958224773407,-1.240931749343872,-0.3472219407558441
1782663457115406000,1.177406005859375,-0.5079362392425537,-1.1462563276290894,-0.15936128795146942
1782663457125476000,1.18747607421875,-0.3563309907913208,-0.831294059753418,0.0326174721121788
1782663457135546000,1.197546142578125,-0.22842974960803986,-0.3977765440940857,0.22387292981147766
1782663457145615000,1.207614990234375,-0.14472420513629913,-0.0047685569152235985,0.38001859188079834
1782663457155685000,1.21768505859375,-0.10606406629085541,0.30416879057884216,0.43807220458984375
1782663457165755100,1.227755126953125,-0.1691383719444275,0.495649516582489,0.38516131043434143
1782663457175824100,1.23782421875,-0.31433674693107605,0.5411491990089417,0.27268290519714355
1782663457185894100,1.24789404296875,-0.45842307806015015,0.6103333830833435,0.13835063576698303
1782663457195964200,1.257964111328125,-0.5811122059822083,0.7792307734489441,0.15985213220119476
1782663457206033200,1.268033203125,-0.7253766655921936,0.9893299341201782,0.414193332195282
1782663457216103200,1.278103271484375,-0.773327112197876,1.0380938053131104,0.8019388318061829
1782663457226173200,1.288173095703125,-0.7005844712257385,1.0193909406661987,1.2181514501571655
1782663457236242200,1.2982421875,-0.5434833765029907,1.0425549745559692,1.5895975828170776
1782663457246312200,1.308312255859375,-0.3995962142944336,1.1624031066894531,1.876875638961792
1782663457256382200,1.31838232421875,-0.3273478150367737,1.3041006326675415,2.0124733448028564
1782663457266451200,1.328451171875,-0.3507932126522064,1.2973111867904663,1.9690663814544678
1782663457276521200,1.338521240234375,-0.36676523089408875,0.9635179042816162,1.767462134361267
1782663457286590200,1.348590087890625,-0.23373450338840485,0.4696701467037201,1.418769121170044
1782663457296660200,1.35866015625,0.06585576385259628,0.09265467524528503,0.9678862690925598
1782663457306730000,1.36872998046875,0.3739970624446869,0.0022795069962739944,0.5554244518280029
1782663457316799200,1.37879931640625,0.5350009202957153,0.23548200726509094,0.313111811876297
1782663457326869200,1.388869140625,0.5488643050193787,0.7904070019721985,0.2578411102294922
1782663457336939000,1.39893896484375,0.531365692615509,1.3185193538665771,0.3425917327404022
1782663457347008300,1.40900830078125,0.5124585628509521,1.3509327173233032,0.4420458972454071
1782663457357078000,1.419078125,0.3776535391807556,0.6939894556999207,0.41962215304374695
1782663457367148300,1.429148193359375,0.08509839326143265,-0.09429583698511124,0.23014861345291138
1782663457377217000,1.439217041015625,-0.15589271485805511,-0.5559479594230652,-0.11397379636764526
1782663457387287000,1.449287109375,-0.2386682778596878,-0.8069245219230652,-0.5047566890716553
1782663457397357300,1.459357421875,-0.21710002422332764,-1.0992263555526733,-0.8311983346939087
1782663457407426000,1.469426025390625,-0.1575019508600235,-1.365993857383728,-0.9941462278366089
1782663457417496300,1.479496337890625,-0.021730463951826096,-1.3402159214019775,-0.8861311674118042
1782663457427566000,1.489566162109375,0.23732320964336395,-1.1612285375595093,-0.6113177537918091
1782663457437635000,1.499635009765625,0.4784354865550995,-1.0956453084945679,-0.336065411567688
1782663457447705000,1.509705078125,0.5503040552139282,-1.0950101613998413,-0.1056537851691246
1782663457457774000,1.519774169921875,0.5357882976531982,-1.002002477645874,0.10509754717350006
1782663457467844400,1.52984423828125,0.5698213577270508,-0.8517608046531677,0.2135864794254303
1782663457477914000,1.5399140625,0.5680135488510132,-0.7158941030502319,0.1299223005771637
1782663457487983000,1.549983154296875,0.584549605846405,-0.705657422542572,-0.10345850139856339
1782663457498053000,1.56005322265625,0.6222648620605469,-0.39541682600975037,-0.35259541869163513
1782663457508123100,1.570123046875,0.6836650967597961,0.06633374840021133,-0.542499840259552
1782663457518192000,1.580192138671875,0.6828677654266357,0.4737357497215271,-0.768977701663971
1782663457528262100,1.59026220703125,0.54836505651474,0.8065688014030457,-1.0657912492752075
1782663457538332200,1.600332275390625,0.3158337473869324,1.0330888032913208,-1.3954548835754395
1782663457548401200,1.610401123046875,0.020614346489310265,0.992294430732727,-1.6796306371688843
1782663457558471200,1.62047119140625,-0.25406473875045776,0.8061078190803528,-1.8861873149871826
1782663457568540200,1.6305400390625,-0.4371999502182007,0.6329850554466248,-1.9416310787200928
1782663457578610200,1.640610107421875,-0.5437694191932678,0.28560787439346313,-1.8277801275253296
1782663457588680000,1.650679931640625,-0.6057278513908386,-0.21028630435466766,-1.6039023399353027
1782663457598749200,1.660749267578125,-0.5502541661262512,-0.6532387733459473,-1.2903265953063965
1782663457608819200,1.670819091796875,-0.3662875294685364,-1.0028889179229736,-0.9944363832473755
1782663457618889200,1.68088916015625,-0.11230932921171188,-1.1555894613265991,-0.6985685229301453
1782663457628958200,1.690958251953125,0.1293962448835373,-1.0667331218719482,-0.35448703169822693
1782663457639028000,1.701028076171875,0.26777976751327515,-0.7929337620735168,0.019858509302139282
1782663457649098200,1.71109814453125,0.26416242122650146,-0.46699535846710205,0.3711145520210266
1782663457659167000,1.7211669921875,0.1527586132287979,-0.22721147537231445,0.6177067756652832
1782663457669237200,1.7312373046875,-0.01242314837872982,-0.13901185989379883,0.76064532995224
1782663457679307300,1.741307373046875,-0.1736605167388916,-0.13624641299247742,0.8710263967514038
1782663457689376000,1.7513759765625,-0.3071173429489136,-0.18268582224845886,0.952598512172699
1782663457699446300,1.7614462890625,-0.37809932231903076,-0.28154218196868896,1.0148745775222778
1782663457709515000,1.771514892578125,-0.3980005979537964,-0.4656220078468323,1.0392651557922363
1782663457719585300,1.781585205078125,-0.4278412163257599,-0.5954028367996216,1.0462394952774048
1782663457729655000,1.791655029296875,-0.4622897207736969,-0.6409343481063843,1.030900239944458
1782663457739724000,1.80172412109375,-0.46286627650260925,-0.599985659122467,1.0150458812713623
1782663457749794300,1.811794189453125,-0.4080736041069031,-0.34540021419525146,0.9880052804946899
1782663457759864000,1.821864013671875,-0.332107812166214,0.03516625985503197,0.9146552085876465
1782663457769933300,1.831933349609375,-0.3220498561859131,0.24684734642505646,0.8564308285713196
1782663457780003000,1.842003173828125,-0.3346368670463562,0.24764621257781982,0.8208590745925903
1782663457790073000,1.852072998046875,-0.3047492802143097,0.15966682136058807,0.7638030052185059
1782663457800142000,1.86214208984375,-0.18889835476875305,0.04475751519203186,0.6243256330490112
1782663457810212000,1.872212158203125,-0.027308929711580276,0.5302882790565491,0.4731893241405487
1782663457820282000,1.8822822265625,0.08775118738412857,1.160069227218628,0.31997835636138916
1782663457830351000,1.89235107421875,0.07999099791049957,1.4739563465118408,0.16972307860851288
1782663457840421000,1.902421142578125,-0.028659211471676826,1.6233091354370117,0.04997739568352699
1782663457850490000,1.912489990234375,-0.09282275289297104,1.6844044923782349,0.05629361420869827
1782663457860560100,1.92256005859375,0.02610490471124649,1.6152325868606567,0.2237394005060196
1782663457870630100,1.932630126953125,0.24515949189662933,1.1984769105911255,0.4564077854156494
1782663457880699100,1.94269921875,0.2969440519809723,0.41197457909584045,0.6218802332878113
1782663457890769200,1.95276904296875,0.08735300600528717,-0.42122572660446167,0.589026927947998
1782663457900839200,1.962839111328125,-0.20519322156906128,-0.9270044565200806,0.3305240869522095
1782663457910908200,1.972908203125,-0.401111364364624,-0.9404417276382446,-0.021446455270051956
1782663457920978200,1.982978271484375,-0.43280133605003357,-0.7867151498794556,-0.4186127185821533
1782663457931048200,1.993048095703125,-0.39196309447288513,-0.5316905379295349,-0.7761967182159424
1782663457941117000,2.003116943359375,-0.3955906629562378,-0.18320690095424652,-1.0234761238098145
1782663457951187200,2.013187255859375,-0.4220675528049469,0.056685857474803925,-1.1348596811294556
1782663457961256000,2.023255859375,-0.39075982570648193,0.08564300090074539,-1.1481884717941284
1782663457971326200,2.033326171875,-0.35380738973617554,0.029735524207353592,-1.1197075843811035
1782663457981396200,2.043396240234375,-0.40481331944465637,-0.07065606117248535,-1.1415313482284546
1782663457991465200,2.05346533203125,-0.6031519770622253,-0.2972002625465393,-1.2846155166625977
1782663458001535200,2.06353515625,-0.9641045928001404,-0.6596908569335938,-1.518920660018921
1782663458011605000,2.07360498046875,-1.3163517713546753,-0.8443019986152649,-1.686355710029602
1782663458021674200,2.08367431640625,-1.458253026008606,-0.6830814480781555,-1.718239426612854
1782663458031744300,2.093744140625,-1.3601088523864746,-0.3326302468776703,-1.6195077896118164
1782663458041814000,2.10381396484375,-1.08455228805542,0.13279259204864502,-1.3822189569473267
1782663458051883300,2.11388330078125,-0.7333665490150452,0.5427918434143066,-1.0442547798156738
1782663458061953000,2.123953125,-0.4017074406147003,0.717816948890686,-0.6250160932540894
1782663458072023000,2.13402294921875,-0.1397773027420044,0.6162053942680359,-0.17160044610500336
1782663458082092000,2.144092041015625,0.06195072457194328,0.2778421938419342,0.2716553211212158
1782663458092162000,2.154162109375,0.20583945512771606,-0.24378293752670288,0.6428288817405701
1782663458102231000,2.16423095703125,0.27941277623176575,-0.7848215699195862,0.8777260780334473
1782663458112301000,2.174301025390625,0.31527116894721985,-1.122244954109192,0.9593122601509094
1782663458122371000,2.18437109375,0.3457825779914856,-1.2886770963668823,0.9103887677192688
1782663458132440000,2.194440185546875,0.3589215576648712,-1.3148123025894165,0.8130718469619751
1782663458142510000,2.204510009765625,0.32039955258369446,-1.0244145393371582,0.7462027072906494
1782663458152580000,2.214580078125,0.24828863143920898,-0.5065487623214722,0.7249927520751953
1782663458162649000,2.224649169921875,0.17492257058620453,0.0035872848238795996,0.6903170347213745
1782663458172719400,2.23471923828125,0.09309109300374985,0.39012542366981506,0.6149753928184509
1782663458182789000,2.2447890625,0.020455356687307358,0.6961203217506409,0.5490673780441284
1782663458192858000,2.254858154296875,-0.010906560346484184,0.8966358304023743,0.5213683843612671
1782663458202928000,2.26492822265625,-0.01501067727804184,0.9469372034072876,0.5259925723075867
1782663458212997000,2.2749970703125,-0.003376391250640154,0.8956593871116638,0.5494185090065002
1782663458223067100,2.285067138671875,0.02108529582619667,0.8188730478286743,0.593517541885376
1782663458233137200,2.29513720703125,0.04617387056350708,0.7280614376068115,0.6426571607589722
1782663458243206100,2.3052060546875,0.06332290917634964,0.6481545567512512,0.6769284009933472
1782663458253276200,2.315276123046875,0.06509017944335938,0.6107592582702637,0.6946339011192322
1782663458263346200,2.32534619140625,0.050453078001737595,0.5597482323646545,0.6809171438217163
1782663458273415200,2.335415283203125,-0.003361149225383997,0.43379512429237366,0.6075238585472107
1782663458283485200,2.345485107421875,-0.05158046633005142,0.27183929085731506,0.4733408987522125
1782663458293555000,2.355554931640625,-0.014300206676125526,0.10349396616220474,0.3195965886116028
1782663458303624200,2.365624267578125,0.15608587861061096,-0.023254074156284332,0.1816462129354477
1782663458313694200,2.375694091796875,0.4340687394142151,-0.18347729742527008,0.05800256505608559
1782663458323763200,2.38576318359375,0.738274335861206,-0.38661614060401917,-0.023957708850502968
1782663458333833200,2.395833251953125,0.9775053262710571,-0.6137949824333191,-0.017489688470959663
1782663458343903000,2.405903076171875,1.07469642162323,-0.7723915576934814,0.13963086903095245
1782663458353972200,2.41597216796875,0.9953280687332153,-0.7038747668266296,0.45306575298309326
1782663458364042000,2.4260419921875,0.6718123555183411,-0.5959440469741821,0.7640106081962585
1782663458374112300,2.4361123046875,0.15356436371803284,-0.8728768825531006,0.8125413656234741
1782663458384181000,2.446180908203125,-0.4002639651298523,-1.1092090606689453,0.419080913066864
1782663458394251000,2.4562509765625,-0.7839362621307373,-0.7922098636627197,-0.2745282053947449
1782663458404321300,2.4663212890625,-0.8825498819351196,-0.29365378618240356,-1.0154318809509277
1782663458414390000,2.47639013671875,-0.7632301449775696,0.16300299763679504,-1.550458550453186
1782663458424460300,2.486460205078125,-0.6025143265724182,0.6570979952812195,-1.7832956314086914
1782663458434529000,2.496529052734375,-0.5055278539657593,0.9677953720092773,-1.7282023429870605
1782663458444599600,2.506599609375,-0.4891618490219116,0.9309197068214417,-1.499042272567749
1782663458454669800,2.516669921875,-0.5354416966438293,0.6171505451202393,-1.249803066253662
1782663458464738600,2.526738525390625,-0.6522006988525391,0.17441195249557495,-1.0821634531021118
1782663458474808600,2.53680859375,-0.813080906867981,-0.25738525390625,-1.0050837993621826
1782663458484878800,2.54687890625,-1.0231095552444458,-0.58122718334198,-0.9680700898170471
1782663458494947600,2.556947509765625,-1.2526730298995972,-0.6822712421417236,-0.9629826545715332
1782663458505017900,2.567017822265625,-1.39150071144104,-0.5932685136795044,-0.9716036915779114
1782663458515087600,2.577087646484375,-1.3544007539749146,-0.3388631343841553,-0.9278314113616943
1782663458525156900,2.587156982421875,-1.1283248662948608,0.008024578914046288,-0.7461492419242859
1782663458535226600,2.5972265625,-0.8007341623306274,0.2735542356967926,-0.4089674651622772
1782663458545295600,2.607295654296875,-0.47465980052948,0.32079654932022095,0.011484815739095211
1782663458555365600,2.61736572265625,-0.1940302699804306,0.1585938036441803,0.4509817659854889
1782663458565435600,2.627435546875,-0.0019243535352870822,-0.11831893771886826,0.8253163695335388
1782663458575505000,2.6375048828125,0.07373978197574615,-0.4395962953567505,1.0606012344360352
1782663458585574700,2.64757470703125,0.08573306351900101,-0.6444554328918457,1.1328566074371338
1782663458595644700,2.657644775390625,0.10810042172670364,-0.6671825647354126,1.0647547245025635
1782663458605713700,2.667713623046875,0.15289857983589172,-0.5237131714820862,0.9032891392707825
1782663458615783700,2.67778369140625,0.19082386791706085,-0.2981897294521332,0.7028878927230835
1782663458625853700,2.687853759765625,0.21052734553813934,-0.0676225796341896,0.5344949960708618
1782663458635922700,2.697922607421875,0.21796582639217377,0.14682579040527344,0.42159056663513184
1782663458645992700,2.70799267578125,0.22372226417064667,0.31841644644737244,0.3777239918708801
1782663458656061700,2.718061767578125,0.2302808314561844,0.42982205748558044,0.3959549367427826
1782663458666131700,2.728131591796875,0.2100699543952942,0.5076896548271179,0.46221083402633667
1782663458676201500,2.738201416015625,0.18535181879997253,0.5263096690177917,0.5707149505615234
1782663458686270700,2.748270751953125,0.15884549915790558,0.47145316004753113,0.7044683694839478
1782663458696340700,2.7583408203125,0.19935563206672668,0.3202687203884125,0.8137525320053101
1782663458706410800,2.76841064453125,0.3089722990989685,0.14869128167629242,0.8781308531761169
1782663458716479700,2.778479736328125,0.40857210755348206,0.11792725324630737,0.9321954250335693
1782663458726549500,2.788549560546875,0.4783523678779602,0.1083795353770256,0.9633132815361023
1782663458736619800,2.798619873046875,0.4741823673248291,0.1510966420173645,0.9693953990936279
1782663458746688500,2.8086884765625,0.4210564196109772,0.25116756558418274,0.9410144686698914
1782663458756758800,2.8187587890625,0.35775068402290344,0.38300496339797974,0.8887025713920593
1782663458766828800,2.828828857421875,0.3011848032474518,0.49698904156684875,0.8190751075744629
1782663458776897800,2.838897705078125,0.22629697620868683,0.43754008412361145,0.6975001692771912
1782663458786967800,2.8489677734375,0.11683794856071472,0.14764954149723053,0.480177640914917
1782663458797036500,2.85903662109375,0.012013525702059269,-0.11345501244068146,0.3409734070301056
1782663458807106800,2.86910693359375,0.029137445613741875,-0.0014329655095934868,0.3930983245372772
1782663458817176600,2.879176513671875,0.14852562546730042,0.10136131942272186,0.4992798864841461
1782663458827245800,2.889245849609375,0.24478144943714142,0.29327160120010376,0.6253618001937866
1782663458837315800,2.89931591796875,0.2368050217628479,0.681269109249115,0.7900474667549133
1782663458847385600,2.909385498046875,0.18617185950279236,0.976932168006897,0.8850443363189697
1782663458857454800,2.919454833984375,0.15937753021717072,0.8208991885185242,0.7712149620056152
1782663458867524600,2.929524658203125,0.07660911232233047,0.36983147263526917,0.6218580007553101
1782663458877594600,2.9395947265625,-0.16696706414222717,-0.22774934768676758,0.4661400318145752
1782663458887663600,2.94966357421875,-0.5452006459236145,-0.6585633158683777,0.23005081713199615
1782663458897733600,2.959733642578125,-0.9283519983291626,-0.6274874210357666,-0.05193665996193886
1782663458907802600,2.969802734375,-1.1933739185333252,-0.3792550563812256,-0.31963589787483215
1782663458917872600,2.97987255859375,-1.2733851671218872,-0.1449483036994934,-0.5710047483444214
1782663458927942700,2.989942626953125,-1.2354813814163208,0.07710258662700653,-0.7505338191986084
1782663458938011600,3.00001171875,-1.1616806983947754,0.2079245150089264,-0.8115804195404053
1782663458948081700,3.01008154296875,-1.0782527923583984,0.08911501616239548,-0.8160660266876221
1782663458958151700,3.020151611328125,-0.9642924666404724,-0.3188468813896179,-0.7946795225143433
1782663458968220700,3.030220703125,-0.9658677577972412,-0.49681001901626587,-0.887158215045929
1782663458978290700,3.040290771484375,-1.0516021251678467,-0.48736459016799927,-1.1730376482009888
1782663458988360700,3.050360595703125,-1.0374692678451538,-0.5415501594543457,-1.5467194318771362
1782663458998429700,3.0604296875,-0.9644227027893066,-0.7329161167144775,-1.9201465845108032
1782663459008499700,3.070499755859375,-0.9349057078361511,-1.1349197626113892,-2.187350273132324
1782663459018569700,3.08056982421875,-0.9822311997413635,-1.5574241876602173,-2.2627830505371094
1782663459028638700,3.090638671875,-1.034637451171875,-1.8609249591827393,-2.1733436584472656
1782663459038708700,3.100708740234375,-0.9888022541999817,-2.026662826538086,-1.9887480735778809
1782663459048777500,3.110777587890625,-0.8942075967788696,-2.0832488536834717,-1.8022682666778564
1782663459058847700,3.12084765625,-0.8061315417289734,-2.0806264877319336,-1.6682499647140503
1782663459068917800,3.130917724609375,-0.6980738043785095,-2.1072165966033936,-1.596394658088684
1782663459078986800,3.14098681640625,-0.5423973798751831,-2.1949546337127686,-1.5682381391525269
1782663459089056800,3.151056884765625,-0.3781350255012512,-2.2506582736968994,-1.5812994241714478
1782663459099126500,3.16112646484375,-0.26917895674705505,-2.171566963195801,-1.6559715270996094
1782663459109195800,3.17119580078125,-0.23704390227794647,-1.914162516593933,-1.807421326637268
1782663459119265800,3.181265869140625,-0.2542908191680908,-1.5203243494033813,-1.9966684579849243
1782663459129335600,3.19133544921875,-0.2779482901096344,-1.0116760730743408,-2.136502981185913
1782663459139404800,3.20140478515625,-0.29007554054260254,-0.40905866026878357,-2.103675365447998
1782663459149474600,3.211474609375,-0.2684660851955414,0.1510239541530609,-1.9050511121749878
1782663459159543800,3.221543701171875,-0.2173619121313095,0.6140912175178528,-1.585079312324524
1782663459169613600,3.231613525390625,-0.13973867893218994,0.9974210858345032,-1.1936033964157104
1782663459179683600,3.24168359375,-0.03081538714468479,1.2711797952651978,-0.7984036207199097
1782663459189752600,3.251752685546875,0.09637977927923203,1.3565995693206787,-0.4197292625904083
1782663459199822600,3.261822509765625,0.21745507419109344,1.292483925819397,-0.06095803529024124
1782663459209892900,3.271892822265625,0.3133602440357208,1.2334479093551636,0.29017552733421326
1782663459219961600,3.281961669921875,0.3785325884819031,1.224839448928833,0.6221862435340881
1782663459230031600,3.292031494140625,0.403298020362854,1.203770637512207,0.9217507243156433
1782663459240101600,3.3021015625,0.399635910987854,1.1463830471038818,1.1707993745803833
1782663459250170600,3.312170654296875,0.3840905725955963,1.0060092210769653,1.3761471509933472
1782663459260241000,3.322240966796875,0.36308008432388306,0.7721663117408752,1.5439393520355225
1782663459270310700,3.332310546875,0.3252337574958801,0.5081362724304199,1.7092589139938354
1782663459280379600,3.342379638671875,0.257252037525177,0.3369940221309662,1.8978402614593506
1782663459290449700,3.35244970703125,0.17839297652244568,0.20737949013710022,2.1066904067993164
1782663459300518700,3.3625185546875,0.09900414943695068,0.11331931501626968,2.3421244621276855
1782663459310588700,3.372588623046875,0.027512118220329285,0.10549161583185196,2.596599817276001
1782663459320658700,3.38265869140625,-0.01216871477663517,0.1567433476448059,2.826272964477539
1782663459330727700,3.392727783203125,0.020513517782092094,0.07516206055879593,2.8593552112579346
1782663459340797700,3.402797607421875,0.24395805597305298,-0.10256612300872803,2.648073434829712
1782663459350867700,3.41286767578125,0.5481712222099304,-0.02839452400803566,2.492447853088379
1782663459360936700,3.422936767578125,0.7720026969909668,0.424885094165802,2.422288179397583
1782663459371006700,3.4330068359375,0.8812958002090454,1.002135157585144,2.122716188430786
1782663459381076500,3.443076416015625,0.9037010073661804,1.3902513980865479,1.5588980913162231
1782663459391145700,3.453145751953125,0.819200873374939,1.629433274269104,0.9658887386322021
1782663459401215700,3.4632158203125,0.6314491033554077,1.1921379566192627,0.42240142822265625
1782663459411285800,3.47328564453125,0.2961929440498352,0.17500758171081543,-0.047404296696186066
1782663459421354800,3.483354736328125,-0.1112254410982132,-0.7259256839752197,-0.2965281009674072
1782663459431424500,3.493424560546875,-0.3765107989311218,-1.24869704246521,-0.27113229036331177
1782663459441493800,3.50349365234375,-0.3669029176235199,-1.6168385744094849,-0.08527187258005142
1782663459451563300,3.513563232421875,-0.2157870978116989,-1.730238676071167,0.18204361200332642
1782663459461633500,3.523633544921875,-0.08087613433599472,-1.646254301071167,0.4848509132862091
1782663459471702300,3.533702392578125,0.0062018330208957195,-1.4251023530960083,0.7161312103271484
1782663459481772500,3.5437724609375,0.09502624720335007,-1.177133560180664,0.7274277806282043
1782663459491842600,3.553842529296875,0.16178905963897705,-0.9361622929573059,0.4927484095096588
1782663459501911300,3.563911376953125,0.17035777866840363,-0.6884411573410034,0.07080836594104767
1782663459511981600,3.573981689453125,0.1565881222486496,-0.4510212242603302,-0.4567829966545105
1782663459522051300,3.58405126953125,0.15799959003925323,-0.22528158128261566,-0.9726018309593201
1782663459532120600,3.59412060546875,0.1494087278842926,-0.10409277677536011,-1.4369335174560547
1782663459542190300,3.6041904296875,0.09948937594890594,-0.21420010924339294,-1.7874891757965088
1782663459552260400,3.61426025390625,0.019650038331747055,-0.5294024348258972,-1.9602341651916504
1782663459562329300,3.624329345703125,-0.057798948138952255,-0.8577566146850586,-1.9062103033065796
1782663459572399400,3.6343994140625,-0.15882204473018646,-1.1100925207138062,-1.6639715433120728
1782663459582469400,3.644469482421875,-0.30118265748023987,-1.290698528289795,-1.3264163732528687
1782663459592538400,3.654538330078125,-0.4113460183143616,-1.4134019613265991,-0.9888350367546082
1782663459602608400,3.6646083984375,-0.420836478471756,-1.3685050010681152,-0.7428883910179138
1782663459612677400,3.674677490234375,-0.2810698449611664,-1.0881853103637695,-0.6269680857658386
1782663459622747400,3.684747314453125,-0.05685991793870926,-0.6117789149284363,-0.6099379658699036
1782663459632817400,3.6948173828125,0.16817706823349,-0.04652318358421326,-0.6620100736618042
1782663459642886400,3.704886474609375,0.34958121180534363,0.4399987757205963,-0.7485654950141907
1782663459652956400,3.714956298828125,0.44334959983825684,0.7486271858215332,-0.8150413036346436
1782663459663026400,3.7250263671875,0.4543931782245636,0.8953369855880737,-0.8387383222579956
1782663459673095400,3.735095458984375,0.43089932203292847,0.9300896525382996,-0.8274540305137634
1782663459683165200,3.745165283203125,0.3947240114212036,0.9136624932289124,-0.7689201235771179
1782663459693235500,3.7552353515625,0.37818506360054016,0.8498249650001526,-0.6635115146636963
1782663459703304200,3.76530419921875,0.3728816509246826,0.7958616018295288,-0.5082148313522339
1782663459713374500,3.77537451171875,0.3789684474468231,0.7655671834945679,-0.3215748369693756
1782663459723444500,3.785444580078125,0.3850228786468506,0.7297990918159485,-0.10428033024072647
1782663459733513500,3.795513427734375,0.3824217915534973,0.7081002593040466,0.12551982700824738
1782663459743583500,3.80558349609375,0.3646361529827118,0.7345440983772278,0.3731253445148468
1782663459753652200,3.81565234375,0.3362935781478882,0.810839056968689,0.623036801815033
1782663459763722500,3.825722412109375,0.3060557544231415,0.8955182433128357,0.8631229400634766
1782663459773792500,3.83579248046875,0.2729594111442566,0.9242677688598633,1.081133246421814
1782663459783861500,3.845861572265625,0.23433904349803925,0.8209440112113953,1.2479909658432007
1782663459793931500,3.855931640625,0.18734361231327057,0.6153324842453003,1.3675199747085571
1782663459804001300,3.866001220703125,0.12059388309717178,0.41428908705711365,1.4325168132781982
1782663459814070500,3.876070556640625,0.022779354825615883,0.22216999530792236,1.4612488746643066
1782663459824140300,3.886140380859375,-0.10716132819652557,0.11013080179691315,1.4858721494674683
1782663459834210300,3.896210205078125,-0.2652249336242676,0.20227260887622833,1.5398362874984741
1782663459844279300,3.906279296875,-0.4031876027584076,0.5047200918197632,1.6204746961593628
1782663459854349300,3.916349365234375,-0.4558669626712799,1.043235421180725,1.679387092590332
1782663459864419600,3.926419677734375,-0.37827709317207336,1.6445616483688354,1.6146224737167358
1782663459874488300,3.93648828125,-0.16127124428749084,2.1391100883483887,1.5107744932174683
1782663459884558300,3.946558349609375,0.11335764080286026,2.5532233715057373,1.4584659337997437
1782663459894628400,3.95662841796875,0.37203070521354675,2.6595382690429688,1.4082804918289185
1782663459904697300,3.966697265625,0.5826143622398376,2.4160287380218506,1.3496196269989014
1782663459914767600,3.976767578125,0.7035509943962097,2.0639071464538574,1.3561375141143799
1782663459924837400,3.98683740234375,0.6318302154541016,1.6943047046661377,1.4352688789367676
1782663459934906400,3.99690625,0.2894499897956848,1.2983204126358032,1.537162184715271
1782663459944976400,4.006976318359375,-0.2399800419807434,0.7418693900108337,1.5848517417907715
1782663459955045400,4.01704541015625,-0.7831426858901978,0.09481902420520782,1.4289897680282593
1782663459965115400,4.027115478515625,-1.158925175666809,-0.34921994805336,1.0421264171600342
1782663459975185400,4.037185302734375,-1.250999927520752,-0.46161800622940063,0.4817577004432678
1782663459985254400,4.04725439453125,-1.0539557933807373,-0.22027625143527985,-0.16837716102600098
1782663459995324400,4.057324462890625,-0.7735315561294556,0.15439501404762268,-0.7875251173973083
1782663460005394400,4.06739453125,-0.6017633080482483,0.3426048457622528,-1.3337551355361938
1782663460015463400,4.07746337890625,-0.5826098918914795,0.3396844267845154,-1.6792031526565552
1782663460025533400,4.087533447265625,-0.6208031177520752,0.20918741822242737,-1.7666701078414917
1782663460035603200,4.097603271484375,-0.6548395752906799,-0.006967621855437756,-1.6593170166015625
1782663460045672400,4.10767236328125,-0.703995943069458,-0.28266018629074097,-1.4652162790298462
1782663460055742500,4.117742431640625,-0.7580998539924622,-0.6836313605308533,-1.3028290271759033
1782663460065812200,4.127812255859375,-0.7971037030220032,-1.1279683113098145,-1.1961867809295654
1782663460075881500,4.137881591796875,-0.791728138923645,-1.444388508796692,-1.1148097515106201
1782663460085951200,4.147951171875,-0.7174086570739746,-1.6318060159683228,-1.0220998525619507
1782663460096020500,4.1580205078125,-0.5710061192512512,-1.7332308292388916,-0.8781600594520569
1782663460106090200,4.16809033203125,-0.3947623670101166,-1.865059733390808,-0.7447077035903931
1782663460116160500,4.178160400390625,-0.19631069898605347,-1.9045913219451904,-0.6627852320671082
1782663460126229200,4.188229248046875,0.034239694476127625,-1.801884651184082,-0.6571707725524902
1782663460136299300,4.19829931640625,0.31013473868370056,-1.5727317333221436,-0.7225099205970764
1782663460146369500,4.20836962890625,0.574643075466156,-1.2321816682815552,-0.8330220580101013
1782663460156438300,4.218438232421875,0.7200300693511963,-0.8939676880836487,-0.9564672112464905
1782663460166508500,4.228508544921875,0.7178057432174683,-0.6704126000404358,-1.06304132938385
1782663460176578300,4.238578369140625,0.6348319053649902,-0.5331442356109619,-1.108672022819519
1782663460186647300,4.248647216796875,0.5380696654319763,-0.38555318117141724,-1.0554522275924683
1782663460196717600,4.258717529296875,0.44590455293655396,-0.2168223112821579,-0.8999395370483398
1782663460206787300,4.268787353515625,0.36857354640960693,-0.08353350311517715,-0.6857923865318298
1782663460216856600,4.278856689453125,0.30355605483055115,0.01911785826086998,-0.46663326025009155
1782663460226926300,4.28892626953125,0.2592735290527344,0.1334201991558075,-0.25695645809173584
1782663460236996400,4.298996337890625,0.23382507264614105,0.2528611123561859,-0.05949336662888527
1782663460247065300,4.3090654296875,0.22820420563220978,0.3301423192024231,0.1311551332473755
1782663460257135400,4.31913525390625,0.24733367562294006,0.3340132236480713,0.3146362900733948
1782663460267204400,4.329204345703125,0.288027822971344,0.29948028922080994,0.4938172399997711
1782663460277274400,4.3392744140625,0.3446318209171295,0.26355984807014465,0.6738466024398804
1782663460287344400,4.349344482421875,0.4167797565460205,0.19559411704540253,0.8541774749755859
1782663460297413400,4.359413330078125,0.4925784468650818,0.11671121418476105,1.0268272161483765
1782663460307483400,4.3694833984375,0.5700076818466187,0.055450793355703354,1.1964601278305054
1782663460317553400,4.379553466796875,0.6180674433708191,0.01978622004389763,1.3502933979034424
1782663460327622400,4.389622314453125,0.6275264620780945,-0.017047163099050522,1.4618949890136719
1782663460337692400,4.3996923828125,0.590681791305542,-0.08704233169555664,1.539105772972107
1782663460347762400,4.409762451171875,0.5246891975402832,-0.18452735245227814,1.59782075881958
1782663460357831400,4.41983154296875,0.43755966424942017,-0.23785828053951263,1.665135383605957
1782663460367901400,4.4299013671875,0.3468172252178192,-0.2579004466533661,1.7405563592910767
1782663460377971500,4.439971435546875,0.2465496063232422,-0.29168999195098877,1.8012762069702148
1782663460388040200,4.450040283203125,0.16040299832820892,-0.3106066882610321,1.8051646947860718
1782663460398110500,4.4601103515625,0.11274183541536331,-0.3164924383163452,1.7160810232162476
1782663460408179200,4.47017919921875,0.09903082251548767,-0.3259067237377167,1.571968913078308
1782663460418249500,4.48024951171875,0.10771945863962173,-0.34073665738105774,1.3812118768692017
1782663460428319500,4.490319580078125,0.10720014572143555,-0.2788730263710022,1.1740951538085938
1782663460438388200,4.50038818359375,0.07877854257822037,0.02560790628194809,1.0345536470413208
1782663460448458500,4.51045849609375,0.04208577796816826,0.45154350996017456,0.9368151426315308
1782663460458528500,4.520528564453125,-0.029580852016806602,0.7971463799476624,0.7798115611076355
1782663460468597500,4.530597412109375,-0.17864996194839478,0.7857714891433716,0.49152594804763794
1782663460478667500,4.54066748046875,-0.44142240285873413,0.3489910364151001,0.07414543628692627
1782663460488737500,4.550737548828125,-0.7688969373703003,-0.18878479301929474,-0.42502227425575256
1782663460498806500,4.560806640625,-1.081284523010254,-0.5988771915435791,-0.9805266261100769
1782663460508876500,4.57087646484375,-1.2820688486099243,-0.8614305257797241,-1.5048558712005615
1782663460518946300,4.5809462890625,-1.315684199333191,-1.0985867977142334,-1.9617748260498047
1782663460529015600,4.591015625,-1.2328308820724487,-1.2577998638153076,-2.2598066329956055
1782663460539085600,4.60108544921875,-1.115249752998352,-1.1755149364471436,-2.296983480453491
1782663460549154600,4.611154541015625,-0.9927780628204346,-0.8422821164131165,-2.119276285171509
1782663460559224600,4.621224609375,-0.8805391788482666,-0.3933103084564209,-1.8146321773529053
1782663460569294300,4.63129443359375,-0.6909011006355286,-0.06481070071458817,-1.4777913093566895
1782663460579363600,4.641363525390625,-0.40773335099220276,0.07007929682731628,-1.1825031042099
1782663460589433300,4.651433349609375,-0.10320141911506653,0.10224788635969162,-0.9576819539070129
1782663460599503600,4.661503662109375,0.09418974071741104,0.0006021300796419382,-0.8309203386306763
1782663460609572400,4.671572265625,0.10755987465381622,-0.31964460015296936,-0.8881791234016418
1782663460619642600,4.681642578125,-0.01318817213177681,-0.7477961182594299,-1.152387022972107
1782663460629712600,4.691712646484375,-0.20367582142353058,-1.013039469718933,-1.5299527645111084
1782663460639781400,4.701781494140625,-0.3796619176864624,-0.9766398668289185,-1.9276336431503296
1782663460649851600,4.7118515625,-0.43150168657302856,-0.7237231731414795,-2.211533784866333
1782663460659920400,4.72192041015625,-0.337063729763031,-0.43442922830581665,-2.3063268661499023
1782663460669990700,4.73199072265625,-0.16584990918636322,-0.21840107440948486,-2.188554525375366
1782663460680060700,4.742060791015625,-0.0367395281791687,-0.20762614905834198,-1.8606820106506348
1782663460690129400,4.75212939453125,0.03889051824808121,-0.4888002872467041,-1.4317764043807983
1782663460700199700,4.76219970703125,0.09848466515541077,-0.7815343737602234,-0.9884673953056335
1782663460710269400,4.77226953125,0.16711220145225525,-0.827667236328125,-0.5509401559829712
1782663460720338700,4.782338623046875,0.22692562639713287,-0.6852306127548218,-0.1479763686656952
1782663460730408400,4.792408447265625,0.24811533093452454,-0.514556884765625,0.19050633907318115
1782663460740478500,4.802478515625,0.23037153482437134,-0.33807244896888733,0.46773606538772583
1782663460750547500,4.81254736328125,0.17212820053100586,-0.11339378356933594,0.6688702702522278
1782663460760617500,4.822617431640625,0.068091481924057,0.0851256474852562,0.7990943193435669
1782663460770686700,4.832686767578125,-0.03858702629804611,0.1956697404384613,0.883359968662262
1782663460780756500,4.842756591796875,-0.13856014609336853,0.25770875811576843,0.9245443344116211
1782663460790826500,4.852826416015625,-0.17789743840694427,0.28303593397140503,0.9261637926101685
1782663460800895500,4.8628955078125,-0.12063629180192947,0.3316924571990967,0.9171777963638306
1782663460810965500,4.872965576171875,-0.01043708622455597,0.42006388306617737,0.9167428612709045
1782663460821035500,4.883035400390625,0.1006198450922966,0.49724307656288147,0.9078120589256287
1782663460831104500,4.8931044921875,0.1791604608297348,0.5216663479804993,0.898810863494873
1782663460841174500,4.903174560546875,0.22797740995883942,0.5214346051216125,0.9218323826789856
1782663460851244500,4.91324462890625,0.23596395552158356,0.5291604399681091,1.020111083984375
1782663460861313500,4.9233134765625,0.18739494681358337,0.5200574398040771,1.1938296556472778
1782663460871383600,4.933383544921875,0.10876938700675964,0.5015172958374023,1.4127963781356812
1782663460881453600,4.94345361328125,0.03041010908782482,0.48063045740127563,1.6459606885910034
1782663460891522300,4.953522216796875,-0.029312077909708023,0.43287011981010437,1.8106184005737305
1782663460901592600,4.963592529296875,-0.06764459609985352,0.28792575001716614,1.8304115533828735
1782663460911661600,4.97366162109375,-0.08646675199270248,0.07585584372282028,1.6860580444335938
1782663460921731600,4.983731689453125,-0.04204106703400612,-0.10726628452539444,1.4430376291275024
1782663460931801600,4.993801513671875,0.040180571377277374,-0.23110246658325195,1.1647402048110962
1782663460941870300,5.003870361328125,0.14065667986869812,-0.26593196392059326,0.9004764556884766
1782663460951940600,5.013940673828125,0.1891895979642868,-0.09561324119567871,0.7042770981788635
1782663460962010600,5.0240107421875,0.16338345408439636,0.23273965716362,0.6043226718902588
1782663460972079600,5.03407958984375,0.06928730010986328,0.4405607581138611,0.5062952041625977
1782663460982149600,5.044149658203125,-0.1410689800977707,0.37042418122291565,0.3311767280101776
1782663460992219400,5.054219482421875,-0.47417446970939636,0.09072435647249222,0.1519704908132553
1782663461002288600,5.06428857421875,-0.8305095434188843,-0.13752450048923492,0.07806013524532318
1782663461012358400,5.0743583984375,-1.037572979927063,-0.1345987468957901,0.10220568627119064
1782663461022427600,5.084427734375,-0.9976222515106201,0.00041005993261933327,0.12140218913555145
1782663461032497400,5.094497314453125,-0.7734956741333008,0.23300042748451233,0.08554831892251968
1782663461042567400,5.1045673828125,-0.47291913628578186,0.4703642725944519,0.021920111030340195
1782663461052636700,5.11463671875,-0.17597052454948425,0.5863257646560669,-0.007935788482427597
1782663461062706400,5.12470654296875,0.06455185264348984,0.42517808079719543,0.02138928323984146
1782663461072776400,5.1347763671875,0.2073843777179718,0.03476371988654137,0.0963309034705162
1782663461082845400,5.144845458984375,0.19322311878204346,-0.39686959981918335,0.19099603593349457
1782663461092915500,5.15491552734375,0.07094460725784302,-0.5985398292541504,0.29412269592285156
1782663461102985700,5.16498583984375,-0.05456238612532616,-0.5188480615615845,0.3631954491138458
1782663461113054500,5.175054443359375,-0.13584819436073303,-0.23666511476039886,0.3304923474788666
1782663461123124500,5.18512451171875,-0.19935889542102814,0.06275755912065506,0.17911207675933838
1782663461133193500,5.195193359375,-0.22529089450836182,0.30917906761169434,-0.05770818889141083
1782663461143263500,5.205263427734375,-0.2127966433763504,0.46809902787208557,-0.31801703572273254
1782663461153333500,5.21533349609375,-0.17649802565574646,0.5151288509368896,-0.5263776779174805
1782663461163402500,5.225402587890625,-0.12888963520526886,0.44398415088653564,-0.657739520072937
1782663461173472500,5.235472412109375,-0.060076747089624405,0.3256942629814148,-0.7355589866638184
1782663461183542500,5.24554248046875,0.028777427971363068,0.2285744696855545,-0.7804787158966064
1782663461193611500,5.255611572265625,0.11246726661920547,0.16946588456630707,-0.797102689743042
1782663461203681500,5.265681640625,0.15584130585193634,0.10271943360567093,-0.7358185052871704
1782663461213751600,5.27575146484375,0.14187036454677582,0.1696808785200119,-0.5448262095451355
1782663461223820500,5.285820556640625,0.08964100480079651,0.3898961842060089,-0.21304431557655334
1782663461233890600,5.295890625,0.009358681738376617,0.5593736171722412,0.13691821694374084
1782663461243959600,5.30595947265625,-0.059582650661468506,0.6628220677375793,0.41418877243995667
1782663461254029600,5.316029541015625,-0.13417166471481323,0.6731231808662415,0.5413174629211426
1782663461264097500,5.32609765625,-0.22351093590259552,0.5376343131065369,0.4920562207698822
1782663461274167600,5.33616748046875,-0.26736360788345337,0.3453066945075989,0.3349563479423523
1782663461284237600,5.346237548828125,-0.2045212984085083,0.2427232563495636,0.14911247789859772
1782663461294306600,5.356306640625,-0.058500710874795914,0.23118430376052856,-0.02643190510571003
1782663461304376600,5.36637646484375,0.08322426676750183,0.20186454057693481,-0.177656888961792
1782663461314446300,5.3764462890625,0.16807736456394196,0.1467943638563156,-0.2907610833644867
1782663461324515600,5.386515625,0.20281344652175903,0.1301177591085434,-0.35462361574172974
1782663461334585300,5.39658544921875,0.18376705050468445,0.11974474042654037,-0.3598785698413849
1782663461344654600,5.406654541015625,0.12219309061765671,0.0749685987830162,-0.29169410467147827
1782663461354724400,5.416724365234375,0.008146943524479866,-0.02609703317284584,-0.1334083378314972
1782663461364794400,5.42679443359375,-0.12296736240386963,-0.09657911211252213,0.08515992015600204
1782663461374863600,5.436863525390625,-0.2438218742609024,-0.12730106711387634,0.34044575691223145
1782663461384933400,5.446933349609375,-0.3250819146633148,-0.182517871260643,0.5889073014259338
1782663461395003600,5.457003662109375,-0.35217931866645813,-0.20073549449443817,0.7404792904853821
1782663461405072400,5.467072265625,-0.3426600396633148,-0.1301940381526947,0.7000851631164551
1782663461415142700,5.477142578125,-0.365688681602478,0.07077794522047043,0.5994001030921936
1782663461425212700,5.487212646484375,-0.404229074716568,0.263882577419281,0.6119768023490906
1782663461435281400,5.497281494140625,-0.38519707322120667,0.4685283899307251,0.6588338017463684
1782663461445351700,5.5073515625,-0.32880714535713196,0.5752512812614441,0.6232889890670776
1782663461455420700,5.517420654296875,-0.25173285603523254,0.6373498439788818,0.47080621123313904
1782663461465490700,5.52749072265625,-0.1964954435825348,0.6349835991859436,0.31401526927948
1782663461475560700,5.537560791015625,-0.1925896555185318,0.2716863751411438,0.08947057276964188
1782663461485629400,5.54762939453125,-0.18987055122852325,-0.017226282507181168,-0.14291155338287354
1782663461495699700,5.55769970703125,-0.16679398715496063,-0.228890061378479,-0.3617440462112427
1782663461505769700,5.567769775390625,-0.21729125082492828,-0.3904888331890106,-0.5079233050346375
1782663461515838700,5.577838623046875,-0.25305938720703125,-0.4743179380893707,-0.6041414737701416
1782663461525908700,5.58790869140625,-0.2382858395576477,-0.43146461248397827,-0.6524093747138977
1782663461535978500,5.597978515625,-0.21097858250141144,-0.25789016485214233,-0.5868117213249207
1782663461546047700,5.6080478515625,-0.2115544229745865,-0.09592953324317932,-0.4425974488258362
1782663461556117500,5.618117431640625,-0.2586292326450348,0.013524787500500679,-0.23842594027519226
