time,seconds_elapsed,z,y,x
1782663480784069400,0.0700693359375,0.0005463233683258295,0.0012140346225351095,0.0011252476833760738
1782663480794139100,0.08013916015625,-0.003470994532108307,-0.00022616726346313953,-0.0008572932565584779
1782663480804208400,0.09020849609375,0.002348012290894985,0.0016047561075538397,-0.0001523545361123979
1782663480814278100,0.100278076171875,0.0025062072090804577,0.0010090176947414875,-0.0012010534992441535
1782663480824348200,0.11034814453125,0.0021775730419903994,-0.00008181319572031498,0.0015265559777617455
1782663480834417200,0.120417236328125,-0.0010662419954314828,-0.0004951551090925932,-0.0021927813068032265
1782663480844487200,0.130487060546875,-0.000733879511244595,0.0007221759296953678,0.0018978340085595846
1782663480854557200,0.14055712890625,0.00003925745841115713,-0.0005383254028856754,-0.00019008750678040087
1782663480864626200,0.150626220703125,-0.0017831436125561595,-0.00007626693695783615,-0.00010380108142271638
1782663480874696200,0.1606962890625,-0.0016374888364225626,-0.0004851631820201874,0.0004070220747962594
1782663480884765200,0.17076513671875,-0.00041616312228143215,0.00018169241957366467,-0.0019157871138304472
1782663480894835200,0.180835205078125,-0.002385387197136879,-0.0013329945504665375,-0.0002802779490593821
1782663480904905200,0.1909052734375,0.0013259940315037966,-0.0006389745976775885,-0.000059501908253878355
1782663480914974200,0.20097412109375,0.0006226544501259923,-0.0014327247627079487,-0.0008504340657964349
1782663480925044200,0.211044189453125,0.0005092037608847022,0.0010117909405380487,-0.000359879806637764
1782663480935114200,0.2211142578125,-0.00010227959137409925,0.0006171376444399357,0.0009538591839373112
1782663480945183200,0.231183349609375,-0.0002695261500775814,0.002397194504737854,-0.0005593489622697234
1782663480955253200,0.241253173828125,-0.000050430651754140854,0.00015732808969914913,-0.00027459365082904696
1782663480965322200,0.251322265625,0.0006973849958740175,0.00008595525287091732,-0.0013585002161562443
1782663480975392000,0.26139208984375,0.0011600188445299864,-0.001392419682815671,0.0004862658679485321
1782663480985462300,0.271462158203125,0.0003663968527689576,-0.0012874908279627562,-0.0007172166369855404
1782663480995531000,0.281531005859375,0.00003915582783520222,-0.0006849090568721294,-0.00005361629882827401
1782663481005601300,0.291601318359375,0.00185330118983984,-0.0005104721058160067,0.0013751696096733212
1782663481015671300,0.30167138671875,0.0011646494967862964,0.0003303615376353264,-0.0010981373488903046
1782663481025740000,0.311739990234375,-0.0011094235815107822,-0.0008992196526378393,-0.0009165097726508975
1782663481035810300,0.321810302734375,-0.0004593261983245611,-0.0016016606241464615,-0.004325652029365301
1782663481045879000,0.331879150390625,0.0004892917349934578,-0.00040350458584725857,0.0003679029759950936
1782663481055949300,0.34194921875,0.0015445778844878078,-0.002747041406109929,0.002191194798797369
1782663481066019300,0.352019287109375,0.0015698779607191682,-0.0013028092216700315,0.0015339268138632178
1782663481076088000,0.362088134765625,0.0012187117245048285,0.0008613958489149809,-0.0018893624655902386
1782663481086158300,0.372158447265625,0.00033400964457541704,0.0006781704723834991,0.0002030831528827548
1782663481096227000,0.38222705078125,-0.0018199969781562686,0.001494089257903397,-0.002064569154754281
1782663481106297300,0.39229736328125,-0.00024207402020692825,0.0011231109965592623,-0.0007122160168364644
1782663481116367000,0.4023671875,0.000045382766984403133,-0.002316251862794161,0.0009239127393811941
1782663481126436400,0.412436279296875,0.0032989666797220707,0.0016028560930863023,0.0010288413614034653
1782663481136506400,0.42250634765625,-0.003293749876320362,-0.00026499340310692787,-0.001107220770791173
1782663481146576100,0.432576171875,-0.0008537619141861796,0.0016753857489675283,-0.001021467032842338
1782663481156645400,0.442645263671875,0.0028075105510652065,0.00013840198516845703,-0.0038739475421607494
1782663481166715100,0.452715087890625,-0.0010918899206444621,-0.001432863064110279,-0.0004573781625367701
1782663481176784400,0.462784423828125,0.0011860346421599388,-0.0005102616269141436,-0.00005695794243365526
1782663481186854100,0.472854248046875,-0.0002462133998051286,-0.0017483651172369719,-0.0007624293211847544
1782663481196924200,0.482924072265625,0.0002717101015150547,-0.0016476062592118979,0.0005985056050121784
1782663481206993200,0.4929931640625,-0.0004918181803077459,0.001253375317901373,-0.0013970009749755263
1782663481217063200,0.503063232421875,-0.00015072757378220558,-0.000018319813534617424,0.00027901254361495376
1782663481227133200,0.51313330078125,0.0008463599951937795,-0.00006678933277726173,0.0006036518607288599
1782663481237202200,0.5232021484375,0.0008371006115339696,-0.0013529215939342976,-0.0007069488056004047
1782663481247272200,0.533272216796875,0.00036385684506967664,0.0009821380954235792,-0.001784730120562017
1782663481257341200,0.543341064453125,0.0003378594992682338,-0.0007589270826429129,0.0006125298095867038
1782663481267411200,0.5534111328125,0.0005482491687871516,0.0009313812479376793,0.0003760411636903882
1782663481277481200,0.563481201171875,0.00039015919901430607,-0.0025817505083978176,0.00043398188427090645
1782663481287550200,0.57355029296875,0.002052770694717765,0.0002803485840559006,-0.001792687107808888
1782663481297620200,0.5836201171875,-0.0012313578044995666,-0.0011393737513571978,-0.0014537542592734098
1782663481307690200,0.593690185546875,-0.0013043285580351949,-0.0014517626259475946,0.0021305943373590708
1782663481317759200,0.60375927734375,0.0012390115298330784,0.0010561090894043446,-0.002179468981921673
1782663481327829200,0.613829345703125,0.001000126008875668,-0.000655770767480135,-0.0009168641408905387
1782663481337898200,0.623898193359375,0.001076865242794156,-0.0006848641205579042,-0.0013142642565071583
1782663481347968000,0.633968017578125,-0.0003276858478784561,0.001607052399776876,-0.0028285374864935875
1782663481358038300,0.644038330078125,-0.00001738686114549637,-0.0009104984346777201,-0.000013897253666073084
1782663481368107300,0.654107177734375,-0.0011284577194601297,0.0013143063988536596,-0.0013297651894390583
1782663481378177300,0.66417724609375,0.0014912938931956887,-0.0016311497893184423,-0.00013640266843140125
1782663481388247300,0.674247314453125,-0.0019345965702086687,0.000024271197617053986,0.00007372075924649835
1782663481398316000,0.68431591796875,-0.0001704978058114648,-0.0007880202028900385,-0.0006152440910227597
1782663481408386300,0.69438623046875,-0.0003481307066977024,-0.0005291609559208155,0.0004726571496576071
1782663481418455000,0.704455078125,-0.001232709502801299,-0.00128355179913342,-0.0021229786798357964
1782663481428525300,0.714525390625,0.0017484328709542751,0.0013670922489836812,-0.0014931410551071167
1782663481438595300,0.72459521484375,-0.0010003186762332916,0.0002914599608629942,0.0004851464182138443
1782663481448664000,0.7346640625,-0.00018698920030146837,0.0014605876058340073,-0.0008781257783994079
1782663481458734300,0.744734375,0.0008167772321030498,0.0008453705813735723,0.001708598923869431
1782663481468803800,0.754803955078125,-0.0021715557668358088,0.0024581809993833303,0.0010239002294838428
1782663481478873000,0.764873046875,-0.0007775754202157259,-0.001022562151774764,-0.0008127034525386989
1782663481488942800,0.77494287109375,-0.0008140606805682182,-0.00005849776789546013,-0.0013173725455999374
1782663481499012000,0.78501220703125,-0.0007005888037383556,0.0004496064502745867,-0.00040178000926971436
1782663481509081900,0.795081787109375,0.0025458047166466713,-0.0026306055951863527,-0.000549319083802402
1782663481519151900,0.80515185546875,-0.00038070150185376406,0.00030666845850646496,0.0019915730226784945
1782663481529221000,0.81522119140625,-0.0008808431448414922,0.0014251961838454008,0.0009010087233036757
1782663481539291000,0.825290771484375,-0.0008099630940705538,-0.0015517498832195997,0.001773668103851378
1782663481549361000,0.83536083984375,-0.0003590898122638464,-0.0004124497063457966,0.0006617982871830463
1782663481559430000,0.845429931640625,0.0014189998619258404,0.00009516649879515171,-0.0018289657309651375
1782663481569500000,0.8555,0.0028768142219632864,-0.0010270897764712572,-0.0008193613612093031
1782663481579569000,0.86556884765625,0.0011778004700317979,-0.0010754112154245377,-0.0009856040123850107
1782663481589639000,0.875638916015625,0.0014736776938661933,0.00037574535235762596,-0.000034589204005897045
1782663481599709000,0.885708984375,-0.0005944730946794152,0.0004159947857260704,0.0006723942933604121
1782663481609778000,0.89577783203125,-0.0003292221808806062,0.001093236729502678,0.0007538869976997375
1782663481619848000,0.905847900390625,3.9534643292427063e-7,-0.0007507451809942722,-0.0005163532332517207
1782663481629918000,0.91591796875,-0.0010073449229821563,0.0013784521725028753,-0.0009563073981553316
1782663481639987000,0.925987060546875,0.0005605086334981024,-0.0003249247092753649,0.00027640024200081825
1782663481650057000,0.936056884765625,0.00036609784001484513,0.00077229761518538,-0.003149223979562521
1782663481660126000,0.9461259765625,-0.0006782150594517589,-0.000034082215279340744,-0.001269240747205913
1782663481670196000,0.956196044921875,-0.0001868618419393897,0.00041758990846574306,-0.0005576441180892289
1782663481680266000,0.966265869140625,0.0004659552942030132,0.00038080988451838493,-0.001720600062981248
1782663481690335000,0.9763349609375,0.00022600445663556457,-0.0005358501803129911,-0.00037490480463020504
1782663481700405000,0.986405029296875,0.00003497372381389141,-0.0004355963319540024,-0.00022871856344863772
1782663481710475000,0.99647509765625,-0.0001988518051803112,-0.0010483895894140005,0.00266027869656682
1782663481720543700,1.006543701171875,-0.0004479580093175173,-0.00040207128040492535,-0.0008011372992768884
1782663481730614000,1.016614013671875,-0.0008751290151849389,-0.0014279207680374384,0.00015839963452890515
1782663481740682800,1.026682861328125,-0.001881665550172329,-0.0008936778176575899,0.000914884964004159
1782663481750753000,1.0367529296875,0.0012110634706914425,0.00018543517217040062,0.0029806988313794136
1782663481760823000,1.046822998046875,0.00021287740673869848,-0.0015497924759984016,0.000770778045989573
1782663481770892000,1.05689208984375,-0.00026835582684725523,-0.00028425850905478,0.00045492721255868673
1782663481780962000,1.066962158203125,-0.0008504787692800164,-0.00019166991114616394,-0.002802609233185649
1782663481791030800,1.07703076171875,0.00017989822663366795,0.00043470575474202633,0.000025401473976671696
1782663481801101000,1.08710107421875,0.001381637412123382,-0.0007377597503364086,0.00007487402763217688
1782663481811171000,1.097171142578125,-0.00007244851440191269,0.00044974382035434246,-0.0007467111572623253
1782663481821240000,1.107239990234375,-0.001507243374362588,0.0012479089200496674,-0.0012940287124365568
1782663481831310000,1.11731005859375,-0.001054772175848484,0.003326506121084094,-0.0011470222380012274
1782663481841379800,1.1273798828125,-0.0014752347487956285,0.002535560866817832,0.00007116986671462655
1782663481851449000,1.137448974609375,0.0006118845194578171,0.00029530981555581093,-0.0008098038379102945
1782663481861518800,1.147518798828125,0.000295573438052088,-0.0000741342082619667,0.00023700622841715813
1782663481871588000,1.157588134765625,0.000426334619987756,-0.0006658886559307575,-0.0008101486600935459
1782663481881657900,1.167657958984375,-0.0008500356925651431,0.001236966927535832,0.0007237248355522752
1782663481891728000,1.177727783203125,-0.0008484377758577466,0.0011991501087322831,-0.00030265742680057883
1782663481901797000,1.187797119140625,-0.001294234418310225,0.0013035590527579188,-0.0008900959510356188
1782663481911867000,1.197866943359375,0.0014911657199263573,0.0005783801898360252,0.00022843171609565616
1782663481921937000,1.20793701171875,0.00012213224545121193,0.0012480327859520912,-0.0008713867282494903
1782663481932006000,1.218005859375,0.001565299229696393,-0.0009687826968729496,-0.0002641860337462276
1782663481942076000,1.228075927734375,-0.0017383296508342028,0.00022479542531073093,0.0019850132521241903
1782663481952145000,1.238144775390625,0.00019912008428946137,-0.0010436680167913437,-0.0006725552957504988
1782663481962215000,1.24821484375,0.00016649963799864054,-0.0028055068105459213,0.0011649092193692923
1782663481972285000,1.258284912109375,-0.00015387858729809523,0.0036622462794184685,-0.0006681446684524417
1782663481982354000,1.26835400390625,0.00003942917101085186,0.0012869255151599646,-0.0019737014081329107
1782663481992424000,1.278423828125,-0.0010713753290474415,-0.00203456892631948,0.0010439262259751558
1782663482002493000,1.288492919921875,-0.0007038697367534041,0.0008067202288657427,-0.0013672660570591688
1782663482012563000,1.29856298828125,-0.0005853590555489063,-0.001672948943451047,-0.00016165300621651113
1782663482022633000,1.308633056640625,0.00032632838701829314,0.0011599670397117734,0.0021202932111918926
1782663482032702000,1.318701904296875,-0.001414313679561019,-0.0015399458352476358,0.00022412242833524942
1782663482042772000,1.32877197265625,-0.0009708440629765391,-0.001368616009131074,0.0025931578129529953
1782663482052842000,1.338842041015625,0.001004688674584031,0.00027428800240159035,-0.00014430534793063998
1782663482062911000,1.348910888671875,0.000929290137719363,-0.000929961446672678,-0.00005320430500432849
1782663482072981000,1.35898095703125,-0.0007290602661669254,0.00026286859065294266,0.0010868950048461556
1782663482083050000,1.369050048828125,-0.0002945235464721918,-0.0006984679494053125,0.0011546266032382846
1782663482093119700,1.37911962890625,0.0009712769533507526,-0.0005511951167136431,0.0007173356134444475
1782663482103190000,1.38918994140625,-0.0012861961731687188,0.0008822563104331493,-0.001709973905235529
1782663482113258800,1.3992587890625,-0.00039137399289757013,0.0019033121643587947,0.001383287599310279
1782663482123329000,1.4093291015625,-0.0006093658739700913,0.0006704493425786495,0.000012813194189220667
1782663482133399000,1.41939892578125,-0.000976882060058415,-0.000019042985513806343,-0.0020764365326613188
1782663482143467800,1.4294677734375,-0.00011988449841737747,0.0016458017053082585,-0.001043394673615694
1782663482153538000,1.4395380859375,0.00022712541976943612,0.0006479152943938971,-0.000513958337251097
1782663482163606800,1.449606689453125,-0.0013125452678650618,-0.0004636486992239952,-0.001076233689673245
1782663482173677000,1.459677001953125,-0.0013309209607541561,0.00037285033613443375,-0.0013702467549592257
1782663482183747000,1.4697470703125,-0.0002957155229523778,-0.0025646190624684095,-0.000857827952131629
1782663482193816000,1.479816162109375,-0.0014605821343138814,-0.00022822758182883263,-0.0008887206204235554
1782663482203886000,1.489885986328125,-0.0004905792884528637,-0.00036780559457838535,-0.0004836086300201714
1782663482213955800,1.499955810546875,-0.0026762355118989944,-0.0013947205152362585,-0.00020371042774058878
1782663482224025000,1.510025146484375,-0.001605911529622972,-0.0005154486279934645,-0.001995425671339035
1782663482234094800,1.5200947265625,0.0003887961502186954,0.0013618136290460825,0.0005111414357088506
1782663482244164000,1.5301640625,0.0013285113964229822,0.00043632881715893745,-0.0019229421159252524
1782663482254233900,1.54023388671875,-0.0014997655525803566,-0.0009152253624051809,0.0013940249336883426
1782663482264303900,1.550303955078125,-0.0011932594934478402,-0.00012198998592793941,0.0009655018802732229
1782663482274373000,1.560373046875,-0.0022774324752390385,-0.0002905679866671562,-0.0004829914541915059
1782663482284443000,1.57044287109375,0.001017324742861092,-0.0016920596826821566,0.00007040973287075758
1782663482294513000,1.580512939453125,-0.000987769104540348,0.0001551089808344841,0.0029889680445194244
1782663482304582000,1.590581787109375,-0.0012421496212482452,0.0015403461875393987,-0.0003744636196643114
1782663482314652000,1.60065185546875,0.0000785120646469295,-0.00031800754368305206,0.00004178844392299652
1782663482324721000,1.610720947265625,0.000001214444637298584,-0.0017627924680709839,-0.0005689364043064415
1782663482334791000,1.620791015625,-0.0006270252633839846,0.0006228671409189701,0.00030484673334285617
1782663482344861000,1.63086083984375,-0.003667703829705715,0.0008404084946960211,-0.0008670032257214189
1782663482354930000,1.640929931640625,0.0014655392151325941,-0.000590507872402668,-0.0008531548082828522
1782663482365000000,1.651,0.001503195846453309,0.0007884707301855087,0.0025995217729359865
1782663482375070000,1.661070068359375,-0.0005956414388492703,0.0018622572533786297,0.002873294521123171
1782663482385139000,1.671138916015625,0.001248332904651761,-0.00006844452582299709,-0.0012727259891107678
1782663482395209000,1.681208984375,-0.0007373200496658683,0.0001677779946476221,-0.0005363619420677423
1782663482405278000,1.69127783203125,0.000004506437107920647,-0.0002877286169677973,-0.00022072045248933136
1782663482415348000,1.701347900390625,-0.00025834760162979364,0.001924026757478714,-0.0008590801153331995
1782663482425418000,1.71141796875,0.000444143486674875,-0.00029180850833654404,-0.0005215911660343409
1782663482435487000,1.721487060546875,-0.0008285811636596918,0.0014288597740232944,0.0008051956538110971
1782663482445557000,1.731556884765625,0.0011108405888080597,-0.00025739287957549095,-0.0003179374325554818
1782663482455627000,1.741626953125,0.0008093707729130983,0.002107760403305292,0.0004988540895283222
1782663482465695700,1.75169580078125,-0.0009280883241444826,-0.002356101293116808,-0.0021492065861821175
1782663482475766000,1.76176611328125,-0.002363798441365361,-0.0004950843285769224,-0.00001201988197863102
1782663482485834800,1.771834716796875,0.0013398233568295836,-0.00017106556333601475,-0.0017985079903155565
1782663482495905000,1.781905029296875,-0.002084203064441681,-0.0003007615450769663,0.004146200139075518
1782663482505975000,1.79197509765625,0.0009536950383335352,-0.0007019452750682831,0.0020164204761385918
1782663482516043800,1.802043701171875,-0.0015992112457752228,0.0001068569254130125,0.0021676879841834307
1782663482526114000,1.812114013671875,0.0021039610728621483,-0.0004892940632998943,-0.00025095039745792747
1782663482536182800,1.822182861328125,0.0015353761846199632,-0.0006623994559049606,-0.002695732284337282
1782663482546253000,1.832253173828125,0.00006807479076087475,-0.0011808837298303843,-0.0015947096981108189
1782663482556323000,1.842322998046875,0.001214299350976944,-0.0020240407902747393,-0.00030121239251457155
1782663482566392000,1.85239208984375,0.0024542075116187334,-0.00048145605251193047,0.0015921598533168435
1782663482576462000,1.862462158203125,0.00003632355947047472,-0.0012220810167491436,0.00016736873658373952
1782663482586531800,1.87253173828125,0.000168265076354146,-0.000623754458501935,-0.00037530335248447955
1782663482596601000,1.88260107421875,-0.00018566905055195093,0.0013970520813018084,0.00022523949155583978
1782663482606670800,1.8926708984375,0.0011994143715128303,0.0005883872509002686,-0.0017738472670316696
1782663482616740000,1.902739990234375,-0.0021620276384055614,0.0010368636576458812,-0.0007368124788627028
1782663482626809900,1.912809814453125,-0.0006153830327093601,0.0008256472647190094,0.0012244473909959197
1782663482636880000,1.9228798828125,-0.002974411007016897,-0.00018981611356139183,0.0007189793977886438
1782663482646949000,1.93294921875,-0.0012315455824136734,0.00008031446486711502,-0.0019654252100735903
1782663482657019000,1.943018798828125,-0.0005796038312837481,-0.0019122627563774586,0.00035631866194307804
1782663482667089000,1.9530888671875,-0.0004705252358689904,0.0014491648180410266,-0.0004728336934931576
1782663482677158000,1.963157958984375,-0.001010614330880344,-0.0006270355079323053,-0.0003681714879348874
1782663482687228000,1.973227783203125,-0.0011574591044336557,0.001229497604072094,-0.001910824328660965
1782663482697297000,1.983296875,0.00011499912943691015,0.0005213629920035601,0.0010165225248783827
1782663482707367000,1.993366943359375,-0.0004887201357632875,0.0019422814948484302,0.0010023696813732386
1782663482717437000,2.00343701171875,-0.00012892705854028463,0.00019471533596515656,-0.00025544135132804513
1782663482727506000,2.013505859375,-0.0004744426114484668,-0.0016972583252936602,-0.0030426422599703074
1782663482737576000,2.023575927734375,-0.0004917531041428447,0.001753931981511414,0.0007321222801692784
1782663482747646000,2.03364599609375,-0.0010596278589218855,0.002608566079288721,0.003879059571772814
1782663482757715000,2.04371484375,-0.0004966354463249445,-0.000961401266977191,0.002139216521754861
1782663482767785000,2.053784912109375,-0.0020795848686248064,-0.0007189714815467596,0.0003443651366978884
1782663482777854000,2.06385400390625,0.00047278881538659334,-0.0009581232443451881,-0.0004399357712827623
1782663482787924000,2.073924072265625,0.00013568636495620012,0.002270806347951293,-0.0002320540079381317
1782663482797994000,2.083993896484375,0.0011266486253589392,-0.0012416369281709194,-0.0007345924968831241
1782663482808063000,2.09406298828125,-0.0005293752765282989,-0.001069740392267704,0.0015609015244990587
1782663482818133000,2.104133056640625,-0.0006409616908058524,0.0006242960225790739,-0.001002923701889813
1782663482828202000,2.114201904296875,0.0009020261932164431,0.00099965650588274,-0.0011278778547421098
1782663482838271700,2.124271728515625,-0.00024712784215807915,-0.0003385818563401699,0.0005222167819738388
1782663482848342000,2.134342041015625,-0.0016113980673253536,0.0012952033430337906,0.00006500439485535026
1782663482858410800,2.14441064453125,0.0008658744627609849,-0.00023797852918505669,-0.0014761668862774968
1782663482868481000,2.15448095703125,-0.0008365598041564226,0.00045287166722118855,0.0003429533098824322
1782663482878551000,2.164551025390625,0.0003703847760334611,0.0006597992032766342,-0.0013883677311241627
1782663482888619800,2.174619873046875,-0.0004584880080074072,0.0008953053038567305,0.0005983193987049162
1782663482898690000,2.18468994140625,0.00037801091093569994,-0.00020005274564027786,-0.0004901145584881306
1782663482908758800,2.1947587890625,0.0018554076086729765,-0.0007197142113000154,0.0013497767504304647
1782663482918829000,2.2048291015625,0.0009454055107198656,-0.00046937703154981136,0.0005327188991941512
1782663482928899000,2.214899169921875,0.001336492132395506,-0.0009251534938812256,0.00022239057580009103
1782663482938968000,2.224968017578125,0.0010949433781206608,-0.0029006863478571177,0.00019522628281265497
1782663482949038000,2.2350380859375,-0.0009358827956020832,0.001167485024780035,-0.00022043840726837516
1782663482959106800,2.24510693359375,0.0008300594054162502,-0.0007963299285620451,-0.0010446867672726512
1782663482969177000,2.255177001953125,0.001844589365646243,0.0012900745496153831,0.0009245984838344157
1782663482979246800,2.265246826171875,0.0008911777404136956,-0.0018641732167452574,0.000051880546379834414
1782663482989316000,2.275316162109375,0.0004941878141835332,-0.000690604792907834,0.00134756020270288
1782663482999385900,2.2853857421875,0.0006049752701073885,-0.0011385485995560884,-0.001496695913374424
1782663483009455900,2.295455810546875,-0.000599050777964294,-0.0006685138214379549,0.002713932655751705
1782663483019525000,2.305525146484375,0.0010345322079956532,0.00012457557022571564,-0.0010560380760580301
1782663483029595000,2.315594970703125,0.00006859377026557922,0.00029844045639038086,0.000654558592941612
1782663483039664000,2.3256640625,0.0027149769011884928,-0.0004049004055559635,0.0011589613277465105
1782663483049734000,2.33573388671875,0.0017862075474113226,0.0007430040277540684,0.0017701408360153437
1782663483059804000,2.345803955078125,-0.0005533795338124037,-0.002855192869901657,0.0017277966253459454
1782663483069873000,2.355872802734375,0.0005242048064246774,0.0003111052792519331,0.0020390721037983894
1782663483079943000,2.36594287109375,0.0003827909240499139,0.0010685082525014877,-0.00107096740975976
1782663483090012000,2.376011962890625,0.0013488815166056156,-0.0006389480549842119,-0.00024352027685381472
1782663483100082000,2.38608203125,0.0011174528626725078,-0.0005124479066580534,0.0015445260796695948
1782663483110152000,2.39615185546875,0.0011368892155587673,-0.0007550574373453856,0.0009325204300694168
1782663483120221000,2.406220947265625,0.0012977442238479853,0.0005781210493296385,0.00043584086233749986
1782663483130291000,2.416291015625,0.00014425348490476608,0.0003910202067345381,-0.00045844734995625913
1782663483140361000,2.42636083984375,0.0007906026439741254,0.0006956858560442924,-0.00045951263746246696
1782663483150430000,2.436429931640625,-0.0009534006239846349,-0.0014101609122008085,0.00028569711139425635
1782663483160500000,2.4465,-0.00034833047538995743,0.0006710996385663748,-0.002705565420910716
1782663483170569000,2.45656884765625,0.0001642497954890132,0.0004534204490482807,-0.0002649245725478977
1782663483180639000,2.466638916015625,-0.00006478209979832172,-0.00008720136247575283,0.0006855576648376882
1782663483190709000,2.476708984375,-0.0000745892757549882,-0.0014945452567189932,-0.00038774864515289664
1782663483200778000,2.486778076171875,-0.0006455711554735899,0.0006642132066190243,-0.0013193223858252168
1782663483210847700,2.49684765625,-0.0021552180405706167,-0.0006566348019987345,0.0011127563193440437
1782663483220918000,2.50691796875,0.00036093650851398706,-0.0007549053989350796,0.0001683994778431952
1782663483230986800,2.51698681640625,0.0007512078154832125,0.00029716501012444496,0.00125587428919971
1782663483241057000,2.52705712890625,0.000476103276014328,0.0006380495615303516,-0.001108746393583715
1782663483251126000,2.5371259765625,-0.0006319547537714243,0.002726588863879442,0.0007496636244468391
1782663483261195800,2.54719580078125,0.000719333125744015,0.00025757215917110443,0.000695601396728307
1782663483271266000,2.55726611328125,-0.0014700826723128557,-0.0001998930238187313,0.0007141002570278943
1782663483281334800,2.567334716796875,0.0005326144746504724,0.000005170470103621483,0.0006898653809912503
1782663483291405000,2.577405029296875,0.0007443701615557075,-0.0012372301425784826,-0.0006061099702492356
1782663483301473800,2.587473876953125,-0.0016317020636051893,0.00009514950215816498,-0.0002396589843556285
1782663483311544000,2.5975439453125,-0.0016768639907240868,-0.0009525173809379339,0.0014134009834378958
1782663483321614000,2.607614013671875,-0.0006163932848721743,0.00039211264811456203,-0.0012806528247892857
1782663483331682800,2.617682861328125,-0.0011679355520755053,0.0008553755469620228,-0.0005186661146581173
1782663483341753000,2.627753173828125,0.001938908128067851,-0.0010738181881606579,-0.00007764663314446807
1782663483351822800,2.63782275390625,-0.0014350818237289786,0.00048758741468191147,0.0014854599721729755
1782663483361892000,2.64789208984375,0.0004656161181628704,0.0003216725308448076,-0.0010671799536794424
1782663483371962000,2.657962158203125,0.0011203086469322443,0.0005031202454119921,-0.0009393063955940306
1782663483382030800,2.66803076171875,0.0015019396087154746,-0.0008202046155929565,0.0003704361733980477
1782663483392101000,2.67810107421875,-0.0005065479781478643,-0.000002841698005795479,-0.00012209327542223036
1782663483402171000,2.6881708984375,0.00011237058788537979,-0.0007011224515736103,0.0015780687099322677
1782663483412240100,2.698240234375,0.00044168741442263126,0.0010711703216657043,-0.00048222794430330396
1782663483422310000,2.708309814453125,0.0008233184344135225,-0.0012130227405577898,0.0008325747330673039
1782663483432379000,2.71837890625,-0.000015826430171728134,0.0014720902545377612,0.0018720951629802585
1782663483442449000,2.728448974609375,0.001180465565994382,-0.0005108995828777552,-0.0013868150999769568
1782663483452519000,2.738518798828125,0.0018578540766611695,-0.002165229292586446,-0.00000940816244110465
1782663483462588000,2.748587890625,-0.0012037158012390137,-0.000271189259365201,0.0020561395213007927
1782663483472658400,2.758658447265625,-0.0007190222386270761,0.0007117078639566898,0.00021006946917623281
1782663483482728200,2.768728271484375,0.0028203187976032495,-0.0018987227231264114,0.0006729268934577703
1782663483492797400,2.77879736328125,-0.001456966158002615,0.0019480064511299133,-0.003193832468241453
1782663483502867200,2.7888671875,0.0008053892524912953,0.002316588070243597,-0.00004118221113458276
1782663483512936400,2.7989365234375,-0.0006116479635238647,0.00015918398275971413,-0.0007561842794530094
1782663483523006500,2.80900634765625,-0.002123524434864521,0.0012649284908547997,-0.000880021252669394
1782663483533076200,2.819076171875,-0.0007424302166327834,-0.0007412922568619251,0.00027358613442629576
1782663483543145500,2.8291455078125,-0.0008793167071416974,0.002785532036796212,-0.0007064571836963296
1782663483553215200,2.83921533203125,0.001918594352900982,-0.0003294677007943392,0.001480740262195468
1782663483563284500,2.849284423828125,-0.0020585705060511827,-0.0026482820976525545,-0.0005451262695714831
1782663483573354200,2.859354248046875,0.0007097401539795101,-0.00008933781646192074,-0.0004889093106612563
1782663483583424300,2.86942431640625,0.0006642001098953187,-0.0004794909618794918,-0.000026584602892398834
1782663483593493200,2.8794931640625,-0.0011468903394415975,0.002256689127534628,-0.0012463482562452555
1782663483603563300,2.889563232421875,-0.0009476857958361506,-0.00042218458838760853,0.0003257158095948398
1782663483613633300,2.89963330078125,0.00011972896754741669,0.00044595799408853054,0.0017267534276470542
1782663483623702300,2.909702392578125,-0.001140745123848319,0.001066474593244493,0.0001477653277106583
1782663483633772300,2.919772216796875,0.0008851963211782277,-0.0012079805601388216,-0.000528289470821619
1782663483643841300,2.92984130859375,-0.0007638330571353436,0.0007614269852638245,-0.0009546615183353424
1782663483653911300,2.939911376953125,-0.000605172012001276,0.00221784645691514,0.00036694237496703863
1782663483663981300,2.949981201171875,-0.00013618927914649248,-0.0007198865059763193,-0.001875172951258719
1782663483674050300,2.96005029296875,0.002685029059648514,0.000639080535620451,-0.0011652761604636908
1782663483684120300,2.970120361328125,0.0006831307546235621,-0.0003036786802113056,0.001556208124384284
1782663483694189300,2.980189208984375,0.0025321831926703453,0.00019203615374863148,0.0007013038266450167
1782663483704259300,2.99025927734375,0.0005318830953910947,0.0011768731055781245,0.0001787915825843811
1782663483714329300,3.000329345703125,-0.0003174074226990342,-0.00043612741865217686,-0.00140528311021626
1782663483724398300,3.0103984375,0.0006900664302520454,0.00022327108308672905,-0.00044894195161759853
1782663483734468000,3.020468017578125,0.0013933476293459535,-0.001319534843787551,0.00037619401700794697
1782663483744538400,3.030538330078125,-0.0001869720872491598,-0.000042815227061510086,-0.00004458538023754954
1782663483754607400,3.040607421875,0.00024394155479967594,0.001319016795605421,-0.001063247211277485
1782663483764677400,3.050677490234375,0.0019622130785137415,-0.0002482535783201456,0.0015349327586591244
1782663483774746400,3.060746337890625,0.0017875053454190493,0.000761877978220582,-0.0011172068770974874
1782663483784816400,3.07081640625,-0.0008293167920783162,0.0010305908508598804,0.0001981282839551568
1782663483794886400,3.080886474609375,0.0016623891424387693,-0.0011825405526906252,0.001130568445660174
1782663483804955100,3.090955078125,-0.0009578950703144073,-0.0007638914976269007,-0.0009490940719842911
1782663483815025400,3.101025390625,-0.0017857883358374238,-0.0006141928024590015,-0.0013416004367172718
1782663483825094100,3.11109423828125,0.0018704654648900032,-0.0007513456512242556,-0.0004560993402265012
1782663483835164400,3.121164306640625,-0.00014624034520238638,0.0007159383967518806,-0.000555819773580879
1782663483845234400,3.131234375,-0.00014357722830027342,-0.0002643710467964411,-0.00006952654803171754
1782663483855303200,3.14130322265625,0.00013228075113147497,-0.002286244183778763,-0.0020874706096947193
1782663483865373400,3.15137353515625,-0.0013223378919064999,0.0029631126672029495,0.0007738296408206224
1782663483875443200,3.161443115234375,-0.0006828811019659042,0.0008410075679421425,-0.001746408292092383
1782663483885512400,3.171512451171875,-0.0008519918192178011,-0.00104610831476748,0.0005764007801190019
1782663483895582500,3.18158251953125,-0.00010828394442796707,0.0012323339469730854,-0.000616754696238786
1782663483905651500,3.1916513671875,-0.002015107311308384,0.0004919751081615686,-0.0014572483487427235
1782663483915721500,3.201721435546875,0.0008325253729708493,0.0009829927003011107,0.00004936556797474623
1782663483925791200,3.211791259765625,-0.00027055596001446247,-0.0021406288724392653,-0.0004395908326841891
1782663483935860500,3.221860595703125,0.0006869538337923586,0.0017987708561122417,-0.00045728374971076846
1782663483945930200,3.23193017578125,0.0007383528281934559,0.0002288373652845621,-0.0007675420492887497
1782663483955999500,3.24199951171875,0.0020492123439908028,0.0009901125449687243,0.00015511317178606987
1782663483966069200,3.2520693359375,0.0008190982625819743,-0.0000927287619560957,0.0014723124913871288
1782663483976139300,3.26213916015625,-0.0009790209587663412,0.002021749969571829,0.001268985914066434
1782663483986208500,3.27220849609375,-0.0009750260505825281,0.00005793478339910507,-0.0009656725451350212
1782663483996278300,3.2822783203125,0.0002742350334301591,0.001512249349616468,-0.0005814130418002605
1782663484006348300,3.292348388671875,0.00018049171194434166,0.0005511145573109388,0.00020927947480231524
1782663484016417300,3.302417236328125,-0.00033090682700276375,0.00028096744790673256,-0.0003918421280104667
1782663484026487300,3.3124873046875,-0.0011594162788242102,0.0006644625682383776,-0.0020238272845745087
1782663484036556300,3.322556396484375,1.0780058801174164e-7,-0.001176290912553668,0.0017267903313040733
1782663484046626300,3.332626220703125,0.0019628575537353754,0.00028258864767849445,-0.0004815028514713049
1782663484056696300,3.3426962890625,-0.0005745870294049382,0.0004793743137270212,0.0017976134549826384
1782663484066765300,3.352765380859375,-0.002022014930844307,-0.0007203796412795782,-0.00038751025567762554
1782663484076835300,3.36283544921875,0.0008855648920871317,0.0009274277836084366,0.0005198635044507682
1782663484086904300,3.372904296875,0.0005460118991322815,-0.0015956510324031115,0.0006599457119591534
1782663484096974300,3.382974365234375,-0.0010326500050723553,0.0011283165076747537,-0.00007141177775338292
1782663484107044000,3.393044189453125,0.002449433086439967,-0.0010288441553711891,0.00010435684816911817
1782663484117113300,3.40311328125,-0.00017788459081202745,0.0014283516211435199,-0.0018765917047858238
1782663484127183400,3.413183349609375,0.0012780656106770039,-0.0008877995423972607,-0.0009753779741004109
1782663484137252400,3.42325244140625,-0.00010538473725318909,0.00030075223185122013,0.002544914372265339
1782663484147322400,3.433322265625,-0.0008721088524907827,-0.0005083160940557718,-0.0039675794541835785
1782663484157392400,3.443392333984375,0.000028987997211515903,-0.0013253134675323963,0.0005418548826128244
1782663484167461400,3.45346142578125,0.0019110438879579306,-0.00035059661604464054,-0.0011380671057850122
1782663484177531100,3.46353125,-0.0005698204040527344,-0.0009635468013584614,0.0005804589600302279
1782663484187601400,3.473601318359375,0.000889059214387089,0.0012047990458086133,-0.0008131731883622706
1782663484197670100,3.483670166015625,-0.0014837068738415837,0.00017843837849795818,0.00031316420063376427
1782663484207740400,3.493740478515625,0.0003951531834900379,0.0006697915960103273,-0.0012210828717797995
1782663484217809400,3.503809326171875,-0.0004917478654533625,0.0018272321904078126,0.0003161240601912141
1782663484227879200,3.513879150390625,0.00041319429874420166,0.00018086610361933708,0.0008032162440940738
1782663484237949400,3.523949462890625,0.0012819606345146894,0.0010425506625324488,0.0017607694026082754
1782663484248018200,3.53401806640625,0.0007685031741857529,-0.0008083463180810213,-0.00019212657934986055
1782663484258088400,3.54408837890625,-0.0006276852218434215,-0.0012261795345693827,-0.0019049765542149544
1782663484268157200,3.5541572265625,-0.002254876773804426,0.002980549354106188,-0.0004887074464932084
1782663484278227500,3.5642275390625,0.0019858116284012794,0.000337931327521801,0.002694279421120882
1782663484288297500,3.57429736328125,0.0010164210107177496,-0.0005012305919080973,0.0006028991192579269
1782663484298366200,3.5843662109375,-0.001168342656455934,0.0004014980513602495,-0.00007053441368043423
1782663484308436500,3.5944365234375,0.00005005358252674341,0.000052623916417360306,-0.00037919479655101895
1782663484318506200,3.60450634765625,-0.0000531740952283144,-0.00010981783270835876,0.0005426614661701024
1782663484328575500,3.614575439453125,-0.0008931352058425546,-0.0014520511031150818,-0.0009436486870981753
1782663484338645200,3.624645263671875,0.0003478294238448143,0.001984367845579982,0.001381407491862774
1782663484348714200,3.63471435546875,-0.0015350253088399768,0.00313858175650239,0.0009060330921784043
1782663484358784500,3.644784423828125,0.0012728569563478231,-0.00013955985195934772,0.0008812826126813889
1782663484368854300,3.654854248046875,-0.001202817540615797,0.0028650183230638504,-0.0015334055060520768
1782663484378923500,3.664923583984375,-0.0016302485018968582,-0.00016513746231794357,-0.00035133244819007814
1782663484388993300,3.6749931640625,-0.0005782998632639647,0.0008503259159624577,0.00003322801785543561
1782663484399062300,3.685062255859375,0.0007214288343675435,0.0012623801594600081,-0.000923897372558713
1782663484409132300,3.69513232421875,0.0018125259084627032,0.0006850068457424641,0.001226605148985982
1782663484419202300,3.705202392578125,0.00006887305062264204,-0.00039145187474787235,0.000011493742931634188
1782663484429271300,3.715271240234375,-0.002680574543774128,-0.0003216771874576807,-0.0018639042973518372
1782663484439341300,3.72534130859375,-0.0006169149419292808,0.0011528665199875832,0.0004552878672257066
1782663484449411300,3.735411376953125,0.00105688173789531,-0.000135837122797966,-0.0002991856599692255
1782663484459480300,3.745480224609375,0.000477989437058568,0.0016904812073335052,-0.0009768065065145493
1782663484469550300,3.75555029296875,0.0019307438051328063,-0.0016773524694144726,0.0009806167799979448
1782663484479618800,3.765618896484375,-0.0008732796413823962,0.00004574633203446865,0.0001692885416559875
1782663484489688800,3.775688720703125,0.0005246136570349336,0.00004175165668129921,0.00024412339553236961
1782663484499758800,3.7857587890625,0.0007133309845812619,0.002352722454816103,0.0009215574827976525
1782663484509827800,3.795827880859375,0.00013649032916873693,-0.00008833082392811775,0.00022940186318010092
1782663484519897900,3.80589794921875,-0.001188001362606883,0.0017957915551960468,-0.00021486374316737056
1782663484529966800,3.815966796875,-0.0008508451282978058,-0.0006846766918897629,0.00018594198627397418
1782663484540036900,3.826036865234375,0.0016423240303993225,-0.0013695028610527515,-0.000415648624766618
1782663484550107000,3.83610693359375,0.0016487155808135867,-0.0001463131047785282,0.00008316145977005363
1782663484560175900,3.84617578125,-0.0011983996955677867,0.0000760683324187994,0.0016373967519029975
1782663484570245600,3.85624560546875,-0.0006641695508733392,-0.000472276471555233,-0.00035864245728589594
1782663484580315000,3.86631494140625,-0.00002902268897742033,0.0007496147882193327,0.0009629804990254343
1782663484590384600,3.876384521484375,-0.0002183734904974699,0.0005000766832381487,0.000563506328035146
1782663484600455000,3.886454833984375,0.00002576247788965702,0.0003633557353168726,-0.00046896099229343235
1782663484610524000,3.89652392578125,0.0004196439404040575,-0.002077697543427348,-0.0010181048419326544
1782663484620593700,3.90659375,-0.0010756256524473429,0.00023759156465530396,0.0000861366861499846
1782663484630664000,3.916663818359375,0.0012359980028122663,-0.000285453163087368,-0.00002331926953047514
1782663484640732700,3.926732666015625,-0.0020277239382267,0.0012598643079400063,-0.0005217671860009432
1782663484650803000,3.936802978515625,0.0009728596778586507,-0.0012672091834247112,-0.0006621158099733293
1782663484660871700,3.94687158203125,-0.0006502617616206408,0.0011246567592024803,-0.000701145501807332
1782663484670942000,3.95694189453125,0.0005737270694226027,0.0027081724256277084,0.0015494918916374445
1782663484681012000,3.967011962890625,-0.0008226684294641018,0.0012630319688469172,-0.0010686696041375399
1782663484691080700,3.977080810546875,0.00030438124667853117,-0.002224377589300275,-0.0004934268654324114
1782663484701151000,3.98715087890625,0.0013403671327978373,0.0014036352513357997,0.0008565811440348625
1782663484711219700,3.9972197265625,-0.000043943990021944046,-0.00032715313136577606,-0.0005295941373333335
1782663484721290000,4.0072900390625,-0.0020379945635795593,0.0005749494303017855,-0.0003531911061145365
1782663484731359700,4.01735986328125,0.0019104080274701118,-0.0017768880352377892,0.000053739931900054216
1782663484741428700,4.0274287109375,0.00017337477765977383,-0.0017371526919305325,0.0006926298374310136
1782663484751499000,4.0374990234375,0.0007558081415481865,-0.0007818767335265875,0.00023616407997906208
1782663484761568800,4.04756884765625,0.00000565557274967432,-0.0009798933751881123,-0.00030647710082121193
1782663484771638000,4.057637939453125,-0.0011232583783566952,0.0004970957525074482,-0.0010771958623081446
1782663484781707800,4.067707763671875,0.0008822610252536833,-0.000708484323695302,-0.0000997312308754772
1782663484791776800,4.07777685546875,0.0006556260050274432,0.0024265889078378677,0.0018582248594611883
1782663484801846800,4.0878466796875,-0.0006835954263806343,-0.002089003100991249,0.0008970093913376331
1782663484811916800,4.097916748046875,-0.0002668106462806463,0.0034485075157135725,-0.001977340318262577
1782663484821985800,4.10798583984375,-0.0009191782446578145,-0.0014105630107223988,0.0014285047072917223
1782663484832055800,4.118055908203125,-0.0011799015337601304,-0.001100038643926382,-0.002044789958745241
1782663484842125000,4.128125,0.0008480076212435961,0.000032920390367507935,0.001684760907664895
1782663484852194800,4.13819482421875,-0.00006865244358778,0.00022892910055816174,-0.001814100076444447
1782663484862264800,4.148264892578125,0.0006526187062263489,-0.0003970975521951914,-0.0015205510426312685
1782663484872333800,4.158333740234375,-0.0009846927132457495,-0.00013664038851857185,0.000931687536649406
1782663484882403800,4.16840380859375,0.0011226852657273412,-0.0003418379928916693,-0.0008176045957952738
1782663484892473900,4.178473876953125,-0.000746054807677865,0.00044326181523501873,0.0009776323568075895
1782663484902542800,4.18854296875,0.0002380736405029893,0.00043672160245478153,-0.0025767507031559944
1782663484912612900,4.19861279296875,0.000784287927672267,0.001283340505324304,0.0010203808778896928
1782663484922681900,4.208681884765625,-0.0005988639313727617,-0.0017621193546801805,0.0014039614470675588
1782663484932752000,4.218751953125,-0.001067047705873847,0.0009849313646554947,0.00005373876774683595
1782663484942821600,4.228821533203125,0.0017351799178868532,0.0009091144893318415,0.0011224111076444387
1782663484952891000,4.238890869140625,0.0002629845403134823,-0.0005151440855115652,0.0004664745065383613
1782663484962960600,4.248960693359375,0.0007620498654432595,0.002384880790486932,0.00031850760569795966
1782663484973030000,4.25902978515625,0.000629690766800195,-0.00011875689961016178,-0.00008549392805434763
1782663484983100000,4.269099853515625,-0.00006840412970632315,-0.0007447993848472834,-0.0007434936705976725
1782663484993169700,4.279169677734375,0.0018493381794542074,0.0023066503927111626,-0.0007088725687935948
1782663485003239000,4.289239013671875,0.0013453455176204443,-0.0003658302593976259,0.00006933260010555387
1782663485013308700,4.29930859375,0.0017669239314273,-0.002622326835989952,0.0013513782760128379
1782663485023378000,4.3093779296875,0.000958962133154273,-0.0016076071187853813,0.002085089450702071
1782663485033447700,4.31944775390625,0.0012455182150006294,-0.000670174602419138,-0.00003425410250201821
1782663485043518000,4.32951806640625,-0.0009200898930430412,0.0009501788299530745,-0.0009663717355579138
1782663485053586700,4.339586669921875,0.0018791586626321077,-0.0008775487076491117,-0.0006521187024191022
1782663485063656700,4.34965673828125,0.001639826805330813,0.00011988426558673382,0.00032643903978168964
1782663485073727000,4.35972705078125,0.0008331552962772548,-0.0012862647417932749,-0.0001654468069318682
1782663485083795700,4.369795654296875,0.001887741032987833,0.00019872747361660004,0.0007468523690477014
1782663485093866000,4.379865966796875,0.0016864060889929533,0.00045598880387842655,-0.00007899384945631027
1782663485103934700,4.389934814453125,-0.0009681367082521319,0.001275795977562666,0.00011810509022325277
1782663485114004700,4.400004638671875,-0.002266161609441042,-0.0012805722653865814,0.00016098195919767022
1782663485124075000,4.410074951171875,-0.0022959448397159576,-0.0015092568937689066,-0.00026720939786173403
1782663485134143700,4.420143798828125,0.0014742922503501177,-0.0007675664965063334,0.001983694266527891
1782663485144214000,4.430214111328125,-0.00017948891036212444,0.0016695642843842506,-0.0016489285044372082
1782663485154282800,4.44028271484375,-0.0015121347969397902,-0.000564028974622488,-0.000603904074523598
1782663485164352800,4.450352783203125,0.0019622836261987686,-0.0017025782726705074,0.0018397658132016659
1782663485174422800,4.4604228515625,0.0016381768509745598,0.0013166475109755993,0.0006072547985240817
1782663485184491800,4.47049169921875,-0.0005455135833472013,-0.0022551428992301226,-0.00034208656870760024
1782663485194561800,4.480561767578125,-0.002008654410019517,-0.0004047784022986889,0.00005578971467912197
1782663485204630800,4.490630859375,-0.0017314017750322819,-0.0007427418604493141,0.000051861105021089315
1782663485214701000,4.500701171875,-0.000499956076964736,-0.0003557847812771797,0.0030220847111195326
1782663485224770800,4.510770751953125,-0.001408022246323526,-0.00037421914748847485,0.0014744001673534513
1782663485234839800,4.52083984375,-0.0008261216571554542,0.00006280560046434402,-0.0005477379309013486
1782663485244909800,4.530909912109375,0.0014535592636093497,-0.0017485616263002157,0.0021482370793819427
1782663485254979800,4.540979736328125,-0.000345672364346683,0.0020403177477419376,-0.0005266418447718024
1782663485265048800,4.551048828125,-0.0017344695515930653,0.00031522405333817005,-0.0009552777628414333
1782663485275118800,4.561118896484375,-0.000371730187907815,0.001047593425028026,-0.0013494256418198347
1782663485285187800,4.571187744140625,-0.002211940474808216,0.0005505566950887442,-0.0008552075596526265
1782663485295257900,4.5812578125,-0.00043481297325342894,0.0010775962145999074,0.0003908855142071843
1782663485305327900,4.591327880859375,-0.000682251644320786,-0.00010333326645195484,0.0007666258024983108
1782663485315396900,4.60139697265625,0.0015651899157091975,-0.0013451655395328999,-0.000012348871678113937
1782663485325467000,4.611466796875,-0.0007019990589469671,-0.0005145396571606398,0.0020277355797588825
1782663485335535900,4.621535888671875,0.001130255637690425,-0.0006924387998878956,-0.000278029270702973
1782663485345606000,4.63160595703125,-0.001384749193675816,0.0018522129394114017,-0.000037831778172403574
1782663485355676000,4.641676025390625,0.000722077558748424,-0.00047459080815315247,-0.0004697964759543538
1782663485365745000,4.651744873046875,-0.001029893639497459,0.0011500818654894829,0.0004146662540733814
1782663485375815000,4.66181494140625,0.0002441627439111471,-0.000008925795555114746,0.00054116640239954
1782663485385884000,4.6718837890625,0.0006025885813869536,0.001310122781433165,0.0013922560028731823
1782663485395954000,4.681953857421875,0.0012859557755291462,-0.0026939399540424347,0.0002090135239996016
1782663485406023700,4.692023681640625,0.001048182020895183,-0.0005767792463302612,0.0007899094489403069
1782663485416093000,4.702093017578125,0.0001640125410631299,-0.0013333833776414394,-0.0007768282666802406
1782663485426162700,4.71216259765625,-0.0032180449925363064,0.002181009855121374,0.000051847833674401045
1782663485436232700,4.722232666015625,0.00047416158486157656,-0.0005612471140921116,-0.00006879333523102105
1782663485446302000,4.732302001953125,0.0006066306959837675,-0.0006973252166062593,0.003999474924057722
1782663485456371700,4.742371826171875,-0.0021414849907159805,-0.0017426160629838705,0.00025773380184546113
1782663485466441000,4.75244091796875,-0.0007021281635388732,0.0015368846943601966,0.000881870393641293
1782663485476511000,4.762510986328125,0.0006393061485141516,-0.0015127011574804783,-0.00015756141510792077
1782663485486581000,4.7725810546875,-0.0005753079894930124,-0.00019563292153179646,0.0020416213665157557
1782663485496650000,4.78264990234375,-0.00008049269672483206,-0.0002686034422367811,-0.0001261918805539608
1782663485506720000,4.792719970703125,-0.0015520344022661448,0.0008420152589678764,0.0018884721212089062
1782663485516789000,4.8027890625,-0.0005554794333875179,-0.00006159534677863121,-0.0006745540304109454
1782663485526859000,4.81285888671875,-0.0016479576006531715,-0.0005824225954711437,-0.0013787171337753534
1782663485536929000,4.822928955078125,0.0019457119051367044,-0.0003355476073920727,0.0003611259744502604
1782663485546998000,4.832998046875,0.0014963558642193675,0.000646618427708745,0.0008408632129430771
1782663485557068000,4.843068115234375,-0.001820078701712191,-0.0024732747115194798,-0.000998315867036581
1782663485567138300,4.85313818359375,0.0019115277100354433,-0.00020084483548998833,0.0005370948929339647
1782663485577207000,4.86320703125,0.0027419012039899826,-0.001442943001165986,0.002638062462210655
1782663485587277000,4.873277099609375,-0.0006878686835989356,-0.0009770554024726152,-0.000919085054192692
1782663485597346000,4.883345947265625,0.00010548694990575314,-0.0006454919930547476,-0.0011369315907359123
1782663485607416000,4.893416015625,-0.0001055814791470766,-0.002632543444633484,0.0028794072568416595
1782663485617486000,4.903486083984375,-0.0010022679343819618,-0.00035367649979889393,-0.00006152153946459293
1782663485627555000,4.91355517578125,0.002349439077079296,0.00028228433802723885,0.00037941092159599066
1782663485637625000,4.923625,-0.0013054832816123962,-0.0007134715560823679,-0.0008815958863124251
1782663485647694000,4.933694091796875,-0.000028765876777470112,0.0008710096590220928,-0.0006560472538694739
1782663485657763800,4.943763916015625,-0.0016343857860192657,-0.00046829390339553356,-0.0005846745916642249
1782663485667834000,4.953834228515625,0.0003129105316475034,-0.0006156370509415865,-0.0006507476209662855
1782663485677903000,4.963903076171875,-0.00008603092283010483,0.0026446047704666853,0.0002909461036324501
1782663485687973000,4.97397314453125,0.00008467002771794796,0.001585835125297308,0.00012650620192289352
1782663485698042000,4.9840419921875,-0.0014463812112808228,-0.00020514079369604588,0.0009635377209633589
1782663485708112100,4.994112060546875,0.0008129493799060583,-0.0014579456765204668,-0.00200082384981215
1782663485718182100,5.00418212890625,-0.0016792367678135633,0.0022989758290350437,-0.0028655524365603924
1782663485728251000,5.0142509765625,-0.00016190414316952229,0.0023287024814635515,-0.0003011769731529057
1782663485738321200,5.024321044921875,-0.000032474519684910774,-0.0006540380418300629,0.0005449092714115977
1782663485748391200,5.03439111328125,-0.001001339522190392,0.0016375818522647023,0.000056951597798615694
1782663485758460200,5.044460205078125,0.0002740484196692705,0.0003480792511254549,-0.001025090692564845
1782663485768530200,5.0545302734375,0.002792153973132372,0.0022845573257654905,-0.0019224651623517275
1782663485778599000,5.064598876953125,0.001545261824503541,-0.0017059233505278826,0.0015494979452341795
1782663485788669200,5.074669189453125,0.00009606312960386276,0.001138175604864955,0.00011504016583785415
1782663485798739200,5.0847392578125,0.00042256666347384453,0.0012654747115448117,-0.0009853779338300228
1782663485808808200,5.09480810546875,0.00010665715672075748,-0.0010377212893217802,-0.0004389342211652547
1782663485818878200,5.104878173828125,-0.0009231871226802468,-0.00011680019088089466,0.0031656543724238873
1782663485828947000,5.114947021484375,-0.000969882239587605,-0.0014442484825849533,0.00040576228639110923
1782663485839017200,5.125017333984375,-0.0009797358652576804,-0.002633349969983101,0.001937346300110221
1782663485849087000,5.1350869140625,-0.0018629987025633454,0.002076569711789489,-0.001511680893599987
1782663485859156200,5.14515625,0.0010038941400125623,-0.00160897895693779,0.0021618835162371397
1782663485869226000,5.15522607421875,-0.00004116038326174021,0.002077962039038539,0.00029446359258145094
1782663485879295200,5.165295166015625,0.0038499843794852495,0.00021614623256027699,0.0008603852475062013
1782663485889365000,5.175364990234375,-0.00018651469144970179,-0.0008678194135427475,0.001091460231691599
1782663485899435000,5.18543505859375,0.001601265394128859,-0.0021935408003628254,0.00025629292940720916
1782663485909504300,5.195504150390625,0.001060062670148909,-0.00007969210855662823,-0.00003952698898501694
1782663485919574000,5.205573974609375,0.0007077265181578696,-0.0008131267968565226,-0.0006240908405743539
1782663485929644000,5.21564404296875,0.0017852114979177713,-0.0013879905454814434,0.0020460491068661213
1782663485939713000,5.225713134765625,0.0024033309891819954,-0.0003994251601397991,-0.0008999396814033389
1782663485949783000,5.235782958984375,0.00010816368740051985,0.00032416475005447865,0.0010183164849877357
1782663485959852000,5.24585205078125,0.0021332313772290945,-0.0006356383673846722,-0.0005260506295599043
1782663485969922000,5.255922119140625,-0.000021441839635372162,-0.0015185456722974777,0.00022526527754962444
1782663485979992000,5.265991943359375,0.0014507535379379988,-0.0026131048798561096,0.000729401595890522
1782663485990061000,5.27606103515625,0.0006451571243815124,0.00016356143169105053,0.0008720612968318164
1782663486000131000,5.286131103515625,0.0007721899310126901,-0.0007853228598833084,0.0005636673304252326
1782663486010200000,5.296199951171875,0.0012166565284132957,-0.0015226115938276052,-0.000990093918517232
1782663486020270000,5.30627001953125,-0.0012366474838927388,0.0007160415407270193,0.000881043029949069
1782663486030339000,5.316339111328125,-0.00043866410851478577,-0.001549682579934597,0.0002996546099893749
1782663486040409000,5.3264091796875,0.0039736609905958176,-0.0005350182764232159,-0.0000276479113381356
1782663486050478000,5.33647802734375,0.00039394269697368145,0.0011794577585533261,0.0013646358856931329
1782663486060548000,5.346548095703125,0.000312449992634356,0.000613802345469594,-0.0008428582805208862
1782663486070617000,5.3566171875,-0.00021736242342740297,-0.0005675412248820066,0.00005478563252836466
1782663486080687000,5.36668701171875,-0.0000903295585885644,-0.00035262410528957844,-0.0016861227340996265
1782663486090757000,5.376757080078125,-0.001699751359410584,0.003998079802840948,0.0019419873133301735
1782663486100826000,5.386826171875,0.0002664604689925909,-0.0002376777119934559,0.0016972427256405354
1782663486110896000,5.396896240234375,0.0008579316199757159,-0.0026308915112167597,-0.00002714074798859656
1782663486120965000,5.406965087890625,0.0009380928240716457,-0.0007325902115553617,-0.0005102381692267954
1782663486131035100,5.41703515625,0.00056002929341048,0.000535300699993968,-0.0021103888284415007
1782663486141105200,5.427105224609375,0.0037686056457459927,-0.0005850910674780607,0.0015799535904079676
1782663486151174100,5.437174072265625,0.0006688229623250663,-0.0002121396828442812,0.001399837201461196
1782663486161244200,5.447244140625,-0.0009274758631363511,0.00030717672780156136,-0.0006238989299163222
1782663486171313200,5.457313232421875,-0.0003771960036829114,0.0009064087644219398,-0.000023179425625130534
1782663486181383200,5.467383056640625,-0.003276313189417124,0.0005838999059051275,0.0009608585969544947
1782663486191453000,5.477452880859375,0.0016029838006943464,-0.00298552424646914,-0.0006846304167993367
1782663486201522200,5.487522216796875,-0.0013874798314645886,0.0019668901804834604,0.00004933675518259406
1782663486211592000,5.497592041015625,-0.002232117811217904,0.00031830882653594017,0.001570410211570561
1782663486221662000,5.507661865234375,0.0004347716458141804,-0.000717660877853632,0.0028279549442231655
1782663486231731200,5.517731201171875,0.0002173963002860546,0.0016575065674260259,-0.0008993461960926652
1782663486241801000,5.527801025390625,0.0013167491415515542,-0.000439466442912817,-0.0019307885086163878
1782663486251870200,5.5378701171875,0.0027889618650078773,-0.00042964518070220947,0.001471657189540565
1782663486261940000,5.54793994140625,-0.0013192301848903298,-0.0007889054249972105,0.00024340732488781214
1782663486272010000,5.558010009765625,0.0006239875219762325,0.0013350268127396703,0.0009200122440233827
1782663486282079000,5.568078857421875,0.0014572906075045466,0.0016000113682821393,0.001263027428649366
1782663486292149000,5.57814892578125,0.0015020495047792792,-0.002111098263412714,0.00037231663009151816
1782663486302218000,5.588218017578125,-0.0012260926887392998,-0.0008162693120539188,0.00040187773993238807
1782663486312288000,5.5982880859375,-0.0007829716196283698,-0.00036043510772287846,-0.0012534683337435126
1782663486322358000,5.60835791015625,-0.00010200135875493288,-0.0003162266220897436,-0.0005221643368713558
1782663486332427000,5.618427001953125,0.0005428649019449949,-0.00035527232103049755,0.0006260735681280494
1782663486342497000,5.6284970703125,0.0003239531069993973,0.007280542980879545,0.004573410842567682
1782663486352566000,5.63856591796875,0.003743125591427088,0.007510365918278694,0.0027453943621367216
1782663486362636000,5.648635986328125,0.0027987686917185783,0.00757294986397028,0.0029422021470963955
1782663486372706000,5.6587060546875,0.0012785737635567784,0.0017518502427265048,0.0016595362685620785
1782663486382775000,5.668775146484375,0.0009376891539432108,-0.0001768111251294613,0.0008001342648640275
1782663486392845000,5.678844970703125,0.0007168400334194303,-0.0033937571570277214,-0.0030999337323009968
1782663486402915000,5.6889150390625,-0.00022511999122798443,-0.0041913739405572414,-0.003566785715520382
1782663486412984000,5.698984130859375,-0.0003275949275121093,-0.00566361378878355,-0.002456690650433302
1782663486423056100,5.70905615234375,-0.000317474827170372,-0.00358634814620018,-0.0028244731947779655
1782663486433126000,5.7191259765625,0.00041138031519949436,-0.004888937808573246,0.0005057861562818289
1782663486443195100,5.729195068359375,0.000039602979086339474,-0.000662235077470541,-0.00034003378823399544
1782663486453265200,5.73926513671875,-0.000887254485860467,-0.0014991112984716892,0.0005320626660250127
1782663486463334100,5.749334228515625,-0.0022657066583633423,0.00011529703624546528,-0.0008184262551367283
