time,seconds_elapsed,z,y,x
1782812097877862100,0.068862060546875,0.0004196867167949676,-0.02489859580718912,-0.018081618401873854
1782812097887933200,0.07893310546875,-0.007810381489992141,-0.026874782117828726,-0.0030138062796671874
1782812097898004200,0.089004150390625,-0.012748422414064407,-0.01579829323766753,-0.011920428891014308
1782812097908075300,0.0990751953125,-0.021577625557780266,-0.01216904249037616,-0.015815895109728445
1782812097918146000,0.10914599609375,-0.005868015250563621,-0.0240973167611286,-0.024859690852195488
1782812097928216300,0.11921630859375,-0.0010801964521408081,-0.013860676238592714,-0.007088122496893629
1782812097938287400,0.129287353515625,-0.0037719197541475295,-0.021343451475724577,-0.005636494349897839
1782812097948358400,0.1393583984375,-0.01454641174674034,-0.024436485587619242,-0.013249857713736128
1782812097958429400,0.149429443359375,0.01148819321990013,-0.015305550417816265,-0.014355451185326091
1782812097968500200,0.159500244140625,-0.0021288287222385404,-0.011249562158435582,-0.025716618208785073
1782812097978571300,0.1695712890625,-0.0013818097472190856,-0.011899696630239485,-0.02315999937839806
1782812097988642300,0.179642333984375,-0.02368015079498291,-0.025771771045681086,-0.01562647805142915
1782812097998713300,0.18971337890625,-0.00856675281524658,-0.018287324441270902,-0.00426017134526046
1782812098008784400,0.199784423828125,0.0008598316997289657,-0.012266538914944976,-0.0018566607173532246
1782812098018854100,0.209854248046875,0.0016074351966381072,-0.023300321164540946,-0.011274539052776526
1782812098028925200,0.21992529296875,-0.0022848960667848587,-0.016439906476298345,-0.0038752545477473174
1782812098038996200,0.229996337890625,-0.012910334977507591,-0.004240989437466487,-0.005734712293674238
1782812098049067300,0.2400673828125,0.0019049568384885787,-0.013762814487842842,-0.01988964050479699
1782812098059138300,0.25013818359375,0.006245031869411468,-0.021740040444722396,-0.001782106776954606
1782812098069209300,0.260209228515625,-0.01246025312244892,-0.005353398525621742,-0.011652016895927955
1782812098079280000,0.270280029296875,-0.008717559462785721,-0.020163840636564418,-0.011104372400930151
1782812098089351200,0.28035107421875,-0.019939795222878455,-0.023912342982506378,-0.017689495545439422
1782812098099422200,0.290422119140625,0.0023538696497678755,-0.021315211761929093,-0.010415611535345669
1782812098109493200,0.3004931640625,0.006541968989372253,-0.008943257977440952,-0.015577047135843895
1782812098119563300,0.310563232421875,-0.005581015002727508,-0.020587107549933717,-0.017211157993564846
1782812098129634000,0.320634033203125,0.014320786297321319,-0.02568174554151483,-0.0015733867965638637
1782812098139705000,0.330705078125,0.0029489129334688184,-0.021107669958472252,-0.014725558572774753
1782812098149776100,0.340776123046875,-0.007975216662883759,-0.010412727741803973,-0.00011640433772699907
1782812098159847200,0.35084716796875,0.011626724907755851,-0.013094459372758865,-0.020537834181264043
1782812098169918200,0.360918212890625,-0.009770867908000946,-0.01240225759120658,-0.01037972737121163
1782812098179989200,0.3709892578125,-0.0034849195063114164,-0.01625927094607614,-0.022214172178937588
1782812098190060000,0.38106005859375,-0.008421791386604309,-0.020838451962498946,-0.014720619819464627
1782812098200131000,0.391131103515625,-0.006477671581506729,-0.021497436461038886,-0.008795122777600773
1782812098210201300,0.401201416015625,-0.008423544952273368,-0.017282933171698822,-0.02874192313000094
1782812098220272400,0.4112724609375,-0.007675941455364227,-0.016310891535459084,-0.024124965103168503
1782812098230343400,0.421343505859375,-0.015158406165242194,-0.028376035259943453,-0.03133688294308958
1782812098240414200,0.431414306640625,-0.011119359907507896,-0.016010264621069654,-0.0019950417081592603
1782812098250485200,0.4414853515625,-0.009472761744260788,-0.018326907532988115,-0.01563856121486751
1782812098260556300,0.451556396484375,0.005191723424196243,-0.01367794921598397,-0.012019315838359761
1782812098270627300,0.46162744140625,0.007286065354943275,-0.016908601700281724,-0.015307438697514589
1782812098280698400,0.471698486328125,-0.0022919103294610976,-0.02326775233549997,-0.022782398237660526
1782812098290769400,0.481769287109375,-0.01276654259264469,-0.01920264005474746,-0.010371432183613069
1782812098300839200,0.491839111328125,-0.0018429975181818007,-0.017600739549752324,-0.01644885011786828
1782812098310910200,0.50191015625,-0.011570610806345938,-0.015277283304557203,-0.012945203078200573
1782812098320981200,0.511981201171875,0.003545125260949135,-0.008858511436590924,-0.027859619303559884
1782812098331052300,0.52205224609375,-0.006329787543416023,0.0015857530877925454,-0.003973497607698663
1782812098341123300,0.532123291015625,-0.007674772411584854,-0.014254717057477682,-0.013687662325822747
1782812098351194000,0.542194091796875,-0.009172317492961882,-0.011470748894754797,-0.021462403963564428
1782812098361265200,0.55226513671875,-0.005281739795207977,-0.015075066130189224,-0.012298902248009107
1782812098371336200,0.562336181640625,0.002498246556520462,-0.021411995800444856,-0.011068696016061585
1782812098381407200,0.5724072265625,0.006689268505573272,-0.008531389240920543,-0.014204160480597056
1782812098391478300,0.582478271484375,-0.013362170398235321,-0.02782328761485405,-0.023262039547343738
1782812098401548000,0.592548095703125,-0.006629062750935554,-0.010584120519645511,-0.01313407443051692
1782812098411619000,0.602619140625,-0.012765373548865318,-0.013533462711377068,-0.010593381538335233
1782812098421690000,0.612690185546875,-0.016657704812288284,-0.016400770909152925,-0.012146374000841752
1782812098431761200,0.62276123046875,-0.007231120297312736,-0.00664024173207581,-0.026579993572470265
1782812098441832200,0.632832275390625,-0.011870470535755157,-0.00406713984105736,-0.022174057080969214
1782812098451903200,0.6429033203125,0.0047381344377994536,-0.01520158771984279,0.0034768069818033836
1782812098461974500,0.652974609375,-0.004988894328474998,-0.021627255119476465,-0.00372387479476165
1782812098472045600,0.663045654296875,0.0024929858595132827,-0.024032489630300552,-0.014284950082248542
1782812098482116600,0.67311669921875,-0.013965396988391875,-0.017695322498027233,-0.02134571193146985
1782812098492186600,0.6831865234375,0.003542202651500702,-0.009793582063307986,0.0020759637405513786
1782812098502257700,0.693257568359375,-0.0030418519139289854,-0.01818663141261786,-0.017070443481777327
1782812098512328700,0.70332861328125,-0.011870470535755157,-0.013081408094940706,-0.01665417484806385
1782812098522399700,0.713399658203125,0.015064298141002654,-0.014122980436589569,0.007890488388342783
1782812098532470800,0.723470703125,-0.0030447745233774183,-0.012433438180759548,-0.0039621359634678804
1782812098542541600,0.73354150390625,0.003090367230772972,-0.021587032706942406,-0.010935066548897884
1782812098552612600,0.743612548828125,0.007729132947325706,-0.013305937565816566,-0.015982696194131858
1782812098562683600,0.75368359375,-0.011871055057644844,-0.03515066222772002,-0.023794742201536427
1782812098572754700,0.763754638671875,-0.002745499315857887,-0.016824613211257382,-0.023695841554459182
1782812098582824700,0.77382470703125,0.005035656079649925,-0.01635813734382391,-0.0017492411203915252
1782812098592895500,0.7838955078125,-0.0190577516913414,-0.0027836393691599366,-0.008783274792891461
1782812098602966500,0.793966552734375,0.00024549919366836546,-0.025329077912634237,-0.020400211242283695
1782812098613037600,0.80403759765625,-0.0042442134410142895,-0.002988633022503927,-0.019570751847932114
1782812098623108600,0.814108642578125,0.007426935130357742,-0.009943776789493859,-0.014539790209708735
1782812098633179600,0.8241796875,0.0005436053574085235,-0.02313074588445015,-0.007579657457058783
1782812098643250700,0.834250732421875,-0.005442483314871788,-0.019325846309307962,-0.013502275271958205
1782812098653321500,0.844321533203125,0.00892448021173477,-0.018707148155383765,0.000963935961597599
1782812098663392500,0.854392578125,-0.007983984491229057,-0.017410952598694712,-0.004267726747342385
1782812098673462500,0.864462646484375,-0.006337386327981948,-0.01356213168343529,-0.011622521373385097
1782812098683533600,0.874533447265625,-0.013968319597840308,-0.025865888203075154,-0.019035062652209306
1782812098693604600,0.8846044921875,0.012218261060118675,-0.026174862820701673,-0.0057458821416599675
1782812098703675400,0.89467529296875,0.002792261067032814,-0.016083293324662372,-0.022237790516542736
1782812098713746400,0.904746337890625,-0.012321136912703513,-0.014898933245148509,-0.011674644286266992
1782812098723817500,0.9148173828125,-0.0037941315859556196,-0.024845349516300484,-0.02627166969210375
1782812098733888500,0.924888427734375,-0.007236380994319915,-0.01491352802608162,-0.021784642204851844
1782812098743959600,0.93495947265625,-0.02489478728175163,-0.02606703679836355,-0.007988685782521498
1782812098754030600,0.945030517578125,-0.0040963294029235835,-0.03078377225510776,-0.020964475795230825
1782812098764100600,0.9551005859375,-0.012176760005950927,-0.0026242018905933947,-0.020201053674682043
1782812098774171600,0.965171630859375,-0.0027507600128650663,-0.010765797229483723,-0.019467503819300326
1782812098784242700,0.97524267578125,0.004732289218902588,-0.004542894993489608,-0.009940164626878686
1782812098794313700,0.985313720703125,0.0026379472881555557,-0.011900883940327912,-0.019226737882965243
1782812098804384800,0.995384765625,-0.007238134559988975,-0.025049210658483204,-0.005736744420556351
1782812098814455600,1.00545556640625,0.0033878888726234435,-0.013970785549562423,-0.020621850069751962
1782812098824526600,1.015526611328125,0.009075871381163596,-0.0169347590548452,-0.021548988551762883
1782812098834597600,1.02559765625,-0.0030459435671567913,-0.020477628426626322,-0.007412171386065892
1782812098844668700,1.035668701171875,0.004136661413311958,-0.006874479746213183,-0.027803329388925338
1782812098854738700,1.04573876953125,-0.015015782824158668,-0.00367876157797873,-0.030593996720493302
1782812098864809500,1.0558095703125,-0.005139116454124451,-0.009083369701029732,-0.02432734667431796
1782812098874880500,1.065880615234375,-0.004542319604754447,-0.021392587847076355,-0.00751533264972968
1782812098884951600,1.07595166015625,-0.002747252881526947,-0.018827623596740884,-0.013163590502657462
1782812098895022600,1.086022705078125,-0.013071078497171401,-0.006156239341106266,-0.01563545594232855
1782812098905093600,1.09609375,-0.018907529565691947,-0.010743713261839002,-0.0031029344514012336
1782812098915164700,1.10616455078125,-0.008282675176858902,-0.020253619545558467,-0.0037635743341990742
1782812098925235500,1.1162353515625,0.0023415946900844573,-0.015327533920761197,-0.007177684493467677
1782812098935306500,1.126306396484375,-0.008731003466248511,-0.004583062607096508,-0.003983502978482284
1782812098945377500,1.13637744140625,-0.010675707793235779,-0.00565964233004488,-0.020111939202679785
1782812098955447600,1.146447509765625,-0.005439560705423355,-0.006771357298456132,-0.015068213981005827
1782812098965518600,1.1565185546875,-0.011427402943372725,-0.010054680684907362,-0.009315822183457202
1782812098975589600,1.166589599609375,-0.007238134559988975,-0.029447637413674965,-0.013873588235804344
1782812098985660700,1.17666064453125,-0.013821020081639289,-0.017834100781055167,-0.008566784781287425
1782812098995731700,1.186731689453125,0.011466565909981727,-0.02047520814067684,-0.007319643397559411
1782812099005802800,1.196802734375,-0.00993102690577507,-0.019944224802823735,-0.01667195025006076
1782812099015873800,1.206873779296875,-0.015466449201107024,-0.02390179418902844,-0.006269097731588408
1782812099025944800,1.21694482421875,-0.0009510171145200729,-0.01255669010109268,-0.014171482053701764
1782812099036014600,1.2270146484375,-0.00978022025823593,-0.02061752095450647,-0.01826884806966409
1782812099046085600,1.237085693359375,-0.0008037175983190536,-0.019930232810089363,-0.033118261350970714
1782812099056156700,1.24715673828125,0.012214169406890869,-0.012377625473449005,-0.01781568605824141
1782812099066227700,1.257227783203125,-0.01172784719467163,-0.023596646363148465,-0.002556429317430593
1782812099076298800,1.267298828125,-0.000803133076429367,-0.02888833216363564,-0.018083383383986074
1782812099086369500,1.27736962890625,-0.0031979192584753032,-0.023743699284177272,-0.014402372766705229
1782812099096440600,1.287440673828125,-0.006039864686131477,-0.020546720740618182,-0.033659941896062806
1782812099106511600,1.29751171875,-0.011578209590911865,-0.017288961053686217,-0.010936427388922311
1782812099116582700,1.307582763671875,0.00577916792333126,-0.009446878384333104,-0.012460412952653132
1782812099126652700,1.317652587890625,0.0053308396339416505,-0.007684216093365103,-0.0061918974596657786
1782812099136723500,1.327723388671875,-0.010679214924573898,-0.010019353643199428,-0.014034183341707102
1782812099146794500,1.33779443359375,-0.01621639078557491,-0.021619126611948012,-0.008300948335777502
1782812099156865500,1.347865478515625,-0.0075374097675085065,-0.012235239594383164,-0.00882406117771752
1782812099166936600,1.3579365234375,-0.0018517653465270996,-0.017736439959704874,-0.021122867527604103
1782812099177007600,1.368007568359375,-0.012774725899100304,0.000011452975776046514,-0.0069101104653091164
1782812099187078700,1.37807861328125,-0.015019289955496787,-0.0149537230391521,-0.008496228879282716
1782812099197149400,1.3881494140625,-0.0021510405540466305,-0.02614820314263925,-0.01640277563657146
1782812099207220500,1.398220458984375,0.00293839153945446,-0.019227500501368195,-0.01945585219741333
1782812099217290800,1.408290771484375,-0.013970657685399054,-0.018638156306091697,-0.01763188817326445
1782812099227361800,1.41836181640625,-0.029833412727713584,-0.025758646702626717,-0.03255473430025158
1782812099237432800,1.428432861328125,-0.007987491622567176,-0.02952693146127276,-0.016355280949745792
1782812099247503600,1.438503662109375,-0.010980828219652175,-0.01904295598100871,-0.018916512023168616
1782812099257574700,1.44857470703125,-0.0006552490383386611,-0.01564098378410563,-0.02496339097197633
1782812099267645700,1.458645751953125,0.0054787236720323556,-0.004465692438278347,-0.01185204667978687
1782812099277716700,1.468716796875,-0.004546411257982254,-0.029363493661023674,-0.004411375285021495
1782812099287787800,1.478787841796875,0.0072749594390392296,-0.014692313890298828,-0.01816927841901779
1782812099297858800,1.48885888671875,0.007274374917149543,-0.014507011318113654,-0.00738186301277019
1782812099307928600,1.498928466796875,-0.005894903257489204,-0.01965264884456992,-0.007161285914515611
1782812099317999600,1.50899951171875,0.016999650117754936,-0.019212257266463712,-0.017636123673676046
1782812099328070700,1.519070556640625,0.009067688074707984,0.000042743163183331486,-0.008704499051813036
1782812099338141700,1.5291416015625,0.0011374795973300934,-0.012873382234293967,-0.011615160050836857
1782812099348212700,1.539212646484375,-0.011433248162269592,-0.024297734704054892,-0.0362933454398415
1782812099358283500,1.549283447265625,0.0003869534909725189,-0.006858916850900277,-0.019162593455438037
1782812099368354600,1.5593544921875,0.007269698742032051,-0.016231259561143813,-0.028810229992703534
1782812099378425600,1.569425537109375,-0.00006254384219646453,-0.01024693358768709,-0.020638296597765293
1782812099388495600,1.57949560546875,-0.01622340504825115,-0.0035155886392109095,-0.0055413382961764
1782812099398566700,1.589566650390625,-0.00874152486026287,-0.017885319511638954,-0.018902232336066662
1782812099408637400,1.599637451171875,-0.010835866791009903,-0.009373931879131122,-0.02001674661634024
1782812099418708500,1.60970849609375,0.0023299042522907255,-0.01696758361221291,-0.010744407381583004
1782812099428779500,1.619779541015625,-0.0023100305080413818,-0.007495735183404758,-0.017237523127393795
1782812099438850600,1.6298505859375,-0.015329671078920363,-0.013840482833934947,-0.016541085845429914
1782812099448921600,1.639921630859375,0.000533083963394165,-0.003899875249061733,-0.004097795274225063
1782812099458991900,1.649991943359375,-0.007246902388334274,-0.020563489212328565,-0.0029332381570129655
1782812099469063000,1.66006298828125,0.007865911069512366,-0.015597646965878084,-0.03222532881594961
1782812099479133000,1.6701328125,-0.01622515861392021,-0.012652396427374332,-0.016520298785727937
1782812099489204000,1.680203857421875,-0.002908580923080444,-0.019909820209722966,-0.017596583964442834
1782812099499275000,1.69027490234375,-0.0033569092124700545,-0.0036123178787995126,0.002142400589864701
1782812099509345800,1.700345703125,-0.006499298891425132,-0.0064704381231218576,-0.0006049664560938253
1782812099519416800,1.710416748046875,-0.0014110358417034148,-0.024284820423554627,-0.007852368884638417
1782812099529488000,1.72048779296875,-0.006048047992587089,-0.012181271784286945,-0.014626125919446347
1782812099539559000,1.730558837890625,-0.011582885766029357,-0.010358714265935123,-0.02371501661238726
1782812099549630000,1.7406298828125,-0.011132803910970688,-0.01689974254039116,-0.00864173829719657
1782812099559701000,1.750700927734375,-0.01726911470890045,-0.004397257711412385,-0.013349475313443689
1782812099569770800,1.760770751953125,0.0035310967355966566,-0.020274507069960236,-0.012387023489456623
1782812099579841800,1.770841796875,0.0005383446604013442,-0.020991888958541677,-0.017921463970676996
1782812099589912800,1.780912841796875,-0.004398527219891548,-0.01943192789913155,-0.006246125564665999
1782812099599983900,1.79098388671875,0.014606617501378058,-0.015468166234157978,-0.01593678154303925
1782812099610055000,1.801054931640625,-0.0076899699807167045,-0.0009593465514481067,-0.009361540471727494
1782812099620125700,1.811125732421875,0.0009878419935703277,-0.02047815814958885,-0.02023530757073313
1782812099630196700,1.82119677734375,-0.0035012861192226406,-0.0029368571694940327,-0.006395292810967657
1782812099640267800,1.831267822265625,-0.014126725029945372,-0.003780495786247775,-0.008715209958783816
1782812099650338800,1.8413388671875,-0.005298690930008888,-0.0026483590843155978,-0.009610003374039661
1782812099660409000,1.8514091796875,-0.006495207238197327,-0.009467153987381606,-0.013003947528114075
1782812099670480000,1.86147998046875,0.0008364508241415023,-0.003119483727402985,-0.022365010792517567
1782812099680551000,1.871551025390625,0.0021837737798690794,-0.0053947351830080145,-0.0179461417542072
1782812099690622000,1.8816220703125,-0.0006587561696767807,-0.025377666294714434,-0.009894186043704394
1782812099700693000,1.89169287109375,-0.011282441514730453,-0.01686210481058806,-0.013432349557615816
1782812099710764000,1.901763916015625,-0.004697802427411079,-0.012268767404649406,-0.016528977565816602
1782812099720835000,1.9118349609375,-0.0018535189121961593,-0.010715857140533625,-0.011327495366008952
1782812099730905900,1.92190576171875,-0.0040974984467029565,-0.013004826594237238,-0.011119579103216528
1782812099740975900,1.931975830078125,0.003982932156324386,-0.03155198014862835,-0.023649908637057522
1782812099751047000,1.942046875,-0.01038110876083374,-0.012497571191843599,-0.01946886009274749
1782812099761118000,1.952117919921875,0.00533259319961071,-0.025678539804276077,-0.024360865351429672
1782812099771189000,1.96218896484375,-0.005890811604261398,-0.020261318794824183,-0.019695063214190303
1782812099781259800,1.972259765625,-0.011429156509041785,-0.010078034161031245,-0.013731850810709875
1782812099791330800,1.982330810546875,-0.004245967006683349,-0.013401031970744952,-0.013396376345225143
1782812099801401900,1.99240185546875,-0.002900397616624832,-0.02871398937688209,-0.01862415974678006
1782812099811473000,2.002472900390625,0.0039823476344347,-0.020577444672444833,-0.014134595525858457
1782812099821543000,2.01254296875,0.00637479572892189,-0.016207668623002245,-0.00974342962851515
1782812099831613700,2.02261376953125,-0.009187515062093735,-0.015451571292383596,-0.012094673496356699
1782812099841684700,2.032684814453125,-0.016070844835042952,-0.012741289420379324,-0.0036312098089372738
1782812099851755800,2.042755859375,0.0030804303586483,-0.0007653766156174242,0.0026546883604023604
1782812099861826800,2.052826904296875,-0.015625439155101777,-0.02267783275148831,-0.012769551967061124
1782812099871897900,2.06289794921875,-0.009341828840970992,-0.016577890174882485,-0.021939739151729736
1782812099881969000,2.072968994140625,-0.015927052450180054,-0.01275847801719792,-0.01716785999124404
1782812099892039700,2.083039794921875,-0.010539514192938804,-0.012793896390451118,-0.0268092197680613
1782812099902110700,2.09311083984375,-0.0038069910675287244,-0.021218573853885755,-0.025980630306678357
1782812099912181000,2.103180908203125,0.0020300445228815076,-0.01743086287556216,-0.017938963094749488
1782812099922252000,2.113251953125,-0.0030588030487298965,-0.02407488573361188,-0.023659308936353773
1782812099932323000,2.123322998046875,-0.006200608205795288,-0.01627143630790524,-0.02358548336502863
1782812099942393900,2.133393798828125,-0.0026087211936712262,-0.022013048699824136,-0.0076739138950593765
1782812099952465000,2.14346484375,-0.0017114800930023192,-0.01629204983767122,-0.022390706922777462
1782812099962536000,2.153535888671875,-0.019816461104154585,-0.01741591190160252,-0.010376656348002142
1782812099972607000,2.16360693359375,0.003525836038589477,-0.010484486936917527,-0.014160214024304877
1782812099982678000,2.173677978515625,-0.017722119173407554,-0.015163429400231689,0.007882017387519591
1782812099992747800,2.183747802734375,-0.012633856123685836,-0.001915889224456623,-0.011929470713995397
1782812100002818800,2.19381884765625,-0.002308276942372322,-0.027122875127382574,0.0013693018920952454
1782812100012889900,2.203889892578125,-0.002905658313632011,-0.02645087588364258,-0.014629514319775626
1782812100022961000,2.2139609375,-0.009789572608470916,-0.022510851287283,-0.018395134480588604
1782812100033032000,2.224031982421875,-0.008144143489003181,-0.0005158497008029371,-0.021171364578139035
1782812100043103000,2.23410302734375,-0.004252396747469901,-0.009984656789153813,-0.01958861401489703
1782812100053173800,2.244173828125,-0.0073953709483146664,0.0014113829015754162,-0.018555567472998517
1782812100063244800,2.254244873046875,0.002179097604751587,-0.002913887285860255,-0.008777614520373754
1782812100073315800,2.26431591796875,-0.01353343531191349,-0.016910455730650573,-0.004701330108346883
1782812100083385900,2.2743857421875,-0.013383797708153724,-0.014672558877058326,0.0025907060463679953
1782812100093457000,2.284456787109375,-0.015627777242660523,-0.014130497022764756,-0.020183803429070394
1782812100103527700,2.294527587890625,-0.012334580916166306,-0.001909496016288176,-0.029505139754572883
1782812100113598700,2.3045986328125,-0.00589899491071701,-0.005477445030398666,-0.005917003208154347
1782812100123669800,2.314669677734375,0.011007716226577757,-0.018217930733179673,-0.009173634950502309
1782812100133740800,2.32474072265625,-0.010391045632958411,-0.015479865805106236,-0.005930278248258401
1782812100143811800,2.334811767578125,-0.006949965268373489,-0.01779870067411102,-0.024371272581012453
1782812100153883000,2.3448828125,-0.0011129296779632568,-0.017465815457934512,-0.025744540545460767
1782812100163953700,2.35495361328125,-0.006201192727684974,-0.015004695174563674,-0.03504137946723494
1782812100174024000,2.36502392578125,-0.003360416343808174,-0.015139071277109905,-0.007537873275100719
1782812100184095000,2.375094970703125,0.006664718586206436,-0.007757966316165402,-0.0053432036418817
1782812100194166000,2.385166015625,-0.02191547921001911,-0.015969695148663594,-0.008505572096363176
1782812100204237000,2.395237060546875,-0.003510638469457626,-0.012630878715310245,-0.019938251719763503
1782812100214307800,2.405307861328125,-0.010393968242406845,-0.010545587740698829,-0.02952659125126665
1782812100224379000,2.41537890625,-0.011589900028705595,-0.010642143450351431,-0.006962000482750591
1782812100234450000,2.425449951171875,-0.0029109190106391906,-0.017550023142667487,-0.0019634067441686056
1782812100244521000,2.43552099609375,-0.013985855254530905,-0.010236448726290837,-0.026829066112847067
1782812100254591000,2.445591064453125,-0.011889175236225128,-0.008667582841217518,-0.011157454295037313
1782812100264661800,2.455661865234375,-0.006053308689594268,-0.009690687944414094,-0.021369490099279208
1782812100274732800,2.46573291015625,-0.013385551273822783,-0.021543348828842863,-0.003500302021822426
1782812100284803800,2.475803955078125,-0.01158931550681591,-0.009152051023067907,-0.02484027148238383
1782812100294875000,2.485875,-0.009946808996796607,-0.014110331017570569,-0.01865177840606775
1782812100304946000,2.49594580078125,0.00022796353697776794,-0.029790386436739934,-0.007798962763545568
1782812100315017000,2.506016845703125,-0.005755787047743797,-0.021680400945665312,-0.007688497259549331
1782812100325087700,2.516087646484375,-0.006204699859023094,-0.02133868396906182,-0.008465486681147012
1782812100335157800,2.52615771484375,-0.004259411010146141,-0.005783195644477382,-0.03386640598728554
1782812100345228800,2.536228759765625,-0.010544190368056297,-0.012041488854261114,-0.01964800463549327
1782812100355299800,2.5462998046875,0.0029237784922122954,-0.013127822786243632,0.00025613018553704024
1782812100365371000,2.556370849609375,0.0005301613539457321,-0.023959753187652675,-0.011697299076069612
1782812100375441700,2.566441650390625,-0.0012649053692817688,-0.024255859190551562,-0.02960758178231772
1782812100385512700,2.5765126953125,-0.0038110827207565303,-0.011942604190204292,-0.004967070655734278
1782812100395583700,2.586583740234375,-0.007552022814750671,-0.008804041302995756,-0.023342059680726376
1782812100405654800,2.59665478515625,-0.012339257091283798,-0.023425637177797033,-0.010960335704183671
1782812100415725800,2.606725830078125,-0.0015659341424703597,-0.02442968138749711,-0.0014782490091514774
1782812100425795800,2.6167958984375,-0.012789923468232154,-0.006949435545410961,-0.03569913555649109
1782812100435867000,2.626866943359375,-0.017129998499155044,-0.006007460253871977,-0.03738481448795646
1782812100445938000,2.63693798828125,-0.006357260072231292,-0.014891754585690796,-0.014660480280197225
1782812100456009500,2.647009521484375,-0.00815291131734848,-0.022237258510291576,-0.0033194472958915865
1782812100466080500,2.65708056640625,0.0011257891595363616,-0.022314543263893573,-0.010851546134043018
1782812100476151300,2.6671513671875,0.008605915781855582,-0.01665108327525668,-0.02503193757998524
1782812100486222300,2.677222412109375,0.0008230068206787109,0.0054539910895749924,-0.025661186810676008
1782812100496293400,2.68729345703125,-0.008155833926796913,-0.005689078487083316,-0.0069850913806818425
1782812100506363400,2.69736328125,-0.006060322952270507,-0.013388839209452271,-0.025851843694702253
1782812100516434400,2.707434326171875,0.001273088675737381,-0.004621659318124876,-0.04405752458437346
1782812100526505200,2.717505126953125,-0.0017190788775682448,-0.010768427577987313,-0.017775312948657664
1782812100536576300,2.727576171875,-0.010697919625043868,-0.012815879893396049,-0.021590119713172314
1782812100546647300,2.737647216796875,-0.002170329776406288,-0.02194535375847481,-0.022147507000761107
1782812100556718300,2.74771826171875,0.007258008304238319,-0.007964649603096768,-0.005932776166021358
1782812100566789400,2.757789306640625,-0.007705752071738243,-0.021267061771266162,-0.01725764346681535
1782812100576860400,2.7678603515625,0.0014198036700487136,-0.009457646373519674,0.0015188846969278527
1782812100586930200,2.77793017578125,-0.001423310801386833,-0.00822187576717697,-0.01330900630573742
1782812100597001200,2.788001220703125,-0.008008534410595894,-0.01606997718536295,-0.025446427531854714
1782812100607072300,2.798072265625,-0.024620061993598938,-0.02478440397614613,-0.009257906567316967
1782812100617143300,2.808143310546875,-0.011301146215200423,-0.026649750323453916,-0.007428885058849118
1782812100627214300,2.81821435546875,0.0008194996893405913,-0.005413065424142405,-0.01601245657815598
1782812100637285000,2.82828515625,-0.007709843724966049,-0.0015203962340019643,0.0016142804959556087
1782812100647356200,2.838356201171875,-0.008757306951284408,-0.00601686740303412,-0.013601459046825765
1782812100657427200,2.84842724609375,-0.015789689806103704,-0.008005401738593354,-0.020409933485276997
1782812100667498200,2.858498291015625,-0.008608253869414328,-0.008059470013389363,-0.028005557979736476
1782812100677568500,2.868568603515625,-0.0029226094484329224,-0.005936568708438426,-0.014487233471986837
1782812100687639300,2.878639404296875,-0.0008276829957962036,-0.002677146787382662,-0.015528109410603064
1782812100697710300,2.88871044921875,-0.010852817925810812,-0.017939890109933913,-0.03653478037974564
1782812100707781400,2.898781494140625,0.008453355568647384,-0.011702612288715317,-0.011168019071535673
1782812100717852400,2.908852294921875,-0.016087211447954178,-0.016654069816786795,-0.019065126713621428
1782812100727923500,2.91892333984375,-0.003218377524614334,-0.017388457639096303,-0.014462357042345683
1782812100737994500,2.928994384765625,0.0048620530784130095,-0.009573345175059512,-0.0193323399821762
1782812100748065300,2.939065185546875,-0.000824175864458084,-0.011538233773550018,-0.020948645755148026
1782812100758135300,2.94913525390625,-0.016686346384882925,-0.016893760324176398,-0.012561256678355857
1782812100768206300,2.959206298828125,-0.0012736731976270674,-0.006420315371081233,-0.014014923802099656
1782812100778277400,2.96927734375,-0.0015747019708156585,-0.01734231694242917,-0.021196565234765874
1782812100788348400,2.979348388671875,-0.009805354699492454,-0.018043076489772648,-0.007931987159221898
1782812100798419200,2.989419189453125,-0.020729484295845032,-0.012335960022499783,-0.00023244563256157562
1782812100808490200,2.999490234375,-0.004418985486030578,-0.022762990284292028,-0.002836515767290257
1782812100818561300,3.009561279296875,0.01204115092754364,-0.0212914746933151,-0.029317129202070646
1782812100828632300,3.01963232421875,-0.01818506051003933,-0.020283603691868483,-0.023826993653457612
1782812100838702300,3.029702392578125,-0.00756079064309597,-0.006329997605970129,-0.006709726771712303
1782812100848773000,3.039773193359375,-0.011751228070259094,-0.0049561702358070754,-0.02777813329887576
1782812100858844200,3.04984423828125,-0.00277414088845253,-0.0009640318597201258,-0.01923274521535495
1782812100868915200,3.059915283203125,-0.007264438045024872,-0.01148423856399022,-0.006285462061211001
1782812100878986200,3.069986328125,-0.004421908095479011,-0.020887816662713884,-0.019590077602909876
1782812100889057300,3.080057373046875,-0.0041226328879594805,-0.013991572609264404,-0.015061768257198854
1782812100899128300,3.09012841796875,-0.009958499434590339,-0.005492551267985254,-0.011279710701527073
1782812100909199400,3.100199462890625,0.0009644611179828644,-0.023261925382912156,-0.024850831692304926
1782812100919269400,3.110269287109375,0.002461421677470207,-0.025230257180659098,-0.007340720434917602
1782812100929340400,3.12034033203125,-0.0008317746490240096,-0.006002236089482903,-0.010753200326103251
1782812100939411500,3.130411376953125,-0.0042740240573883054,-0.006573998962296173,-0.011592964202049187
1782812100949482500,3.140482421875,-0.005769231051206588,-0.015765742674935607,-0.0035228129644412545
1782812100959553300,3.15055322265625,-0.01025777464210987,-0.009834261133568362,-0.024234681688493583
1782812100969624300,3.160624267578125,-0.008012041541934013,-0.0004915007108356803,-0.005477301183214877
1782812100979695400,3.1706953125,0.0026122283250093457,-0.006310032530175522,-0.008323920502699911
1782812100989766400,3.180766357421875,-0.020131518402695656,-0.007893283133627846,-0.013349294933641793
1782812100999836400,3.19083642578125,-0.0003805237501859665,-0.01860313065848313,-0.02076566757078981
1782812101009907200,3.2009072265625,-0.01354687931537628,-0.022896535269776357,-0.04081618630927987
1782812101019978200,3.210978271484375,0.0050075990289449685,-0.009820250874524936,-0.03218591468759114
1782812101030049300,3.22104931640625,-0.009507248535752296,-0.0035242377365473656,-0.015209693394484929
1782812101040120300,3.231120361328125,-0.013546294793486595,-0.012137871033977716,-0.017339752809295894
1782812101050191400,3.24119140625,-0.0033685996502637863,-0.027427146170428022,-0.007075523310224525
1782812101060262400,3.251262451171875,-0.009352934756875037,-0.0010553177392110227,-0.009968447723158169
1782812101070333200,3.261333251953125,-0.009052490505576133,-0.014269859827682375,-0.013058773854735773
1782812101080404200,3.271404296875,-0.014590835410356521,-0.01024149936074391,-0.008208664659154602
1782812101090474200,3.28147412109375,-0.0214759187489748,-0.023309262522822245,-0.012567645319947042
1782812101100545300,3.291545166015625,-0.010553542718291281,-0.012438571013603359,-0.0052248950414359565
1782812101110616300,3.3016162109375,-0.013844400957226752,-0.03036964762941934,-0.0031211436782381495
1782812101120687400,3.311687255859375,-0.013545125749707222,-0.024246652970789,-0.004084106958878692
1782812101130758400,3.32175830078125,-0.008006780844926833,-0.012264155161613598,-0.008246377737482543
1782812101140829400,3.331829345703125,-0.009352934756875037,-0.01409322461914271,-0.008043642256595193
1782812101150900500,3.341900390625,-0.0017225860089063643,-0.003967570190411061,-0.016099764968850648
1782812101160971500,3.351971435546875,0.007104863569140434,-0.019753908128803593,-0.03417467735201353
1782812101171041300,3.362041259765625,-0.010552958196401596,-0.02672129032285884,-0.01251291260815924
1782812101181112300,3.3721123046875,0.0023147066831588742,-0.019144014335842802,-0.00647410736795282
1782812101191183400,3.382183349609375,-0.01968202106952667,-0.008815037621045485,-0.00411025518028764
1782812101201254400,3.39225439453125,-0.016688099950551986,-0.011452628716174513,-0.007353506851254497
1782812101211325400,3.402325439453125,0.0020189386069774627,-0.011453679028945044,-0.029366703964839688
1782812101221396500,3.412396484375,-0.0009738134682178497,-0.029990548651339485,-0.01674981039239792
1782812101231467300,3.42246728515625,0.002168576210737228,-0.015214575065579265,-0.004528108416311442
1782812101241538300,3.432538330078125,-0.009502572360634804,-0.016268541097920388,-0.016326746691716833
1782812101251608300,3.4426083984375,0.0005225625693798065,-0.01564065499054268,-0.029819470967329106
1782812101261679400,3.452679443359375,-0.005912438914179801,-0.019325371385272593,-0.02305633122465806
1782812101271750100,3.462750244140625,-0.018182722422480584,-0.015018568436289206,-0.002956628165754955
1782812101281821200,3.4728212890625,-0.01384323191344738,-0.023237567259790374,-0.005104246070142835
1782812101291892200,3.482892333984375,-0.00471475356221199,-0.015658848234359174,-0.0195626986889285
1782812101301963300,3.49296337890625,-0.01040156702697277,-0.025316364561533553,-0.0319951573388651
1782812101312034300,3.503034423828125,0.004411971223354339,-0.008826554528903215,-0.0151272598250187
1782812101322105300,3.513105224609375,-0.017286065843701362,-0.00965065732812509,-0.02523862543349387
1782812101332175400,3.52317529296875,-0.008756137907505035,-0.0035502763601019975,-0.004720002842776011
1782812101342246400,3.533246337890625,-0.022971710264682768,-0.010879048345610499,0.0052755155503982675
1782812101352317400,3.5433173828125,-0.014292144724726676,-0.007339476042613387,-0.03391838961956091
1782812101362388500,3.553388427734375,-0.003071078008413315,-0.009306867125444113,-0.02337883661071537
1782812101372459500,3.56345947265625,-0.0063636898130178445,-0.0008911127539817243,-0.014503801014297641
1782812101382530300,3.5735302734375,-0.007708674681186675,-0.00926269919015467,-0.006880754223372787
1782812101392601300,3.583601318359375,-0.0065127428948879235,-0.009313808322884141,-0.02776739042586414
1782812101402672400,3.59367236328125,-0.012947744378447533,-0.005083541208831593,-0.014310502365324645
1782812101412742400,3.603742431640625,-0.019231354692578313,-0.019678020747844128,-0.028023470379051285
1782812101422813400,3.6138134765625,-0.005018120422959327,-0.007643409158941358,-0.02224336174080381
1782812101432884200,3.62388427734375,-0.01040682772397995,-0.003042098509101197,-0.023293548930459654
1782812101442955300,3.633955322265625,-0.009358195453882216,-0.0038813258122187104,-0.0009686418194673024
1782812101453026300,3.6440263671875,-0.014444704937934875,-0.01849307614644058,-0.017816170115431303
1782812101463098000,3.65409814453125,0.004409048613905907,-0.0123071997188963,-0.006786484085640404
1782812101473169000,3.6641689453125,0.006205868902802467,-0.013132161034643649,0.004634123790764715
1782812101483240000,3.674239990234375,-0.0011257891595363616,-0.012138081096531823,-0.013133508174936286
1782812101493310000,3.68431005859375,-0.0065127428948879235,-0.0266214649438858,-0.004017549095267896
1782812101503381000,3.694381103515625,0.008749708166718483,-0.015230969077954067,0.006535171639116015
1782812101513452000,3.7044521484375,-0.009356441888213158,-0.020799398593744262,-0.020280722181615418
1782812101523522800,3.714522705078125,-0.00561491727232933,-0.01020305791334249,-0.02065510160209378
1782812101533593900,3.72459375,0.002167407166957855,-0.02064599813031964,-0.011137941310391761
1782812101543665000,3.734664794921875,0.004411386701464653,-0.005365289892815053,-0.01440335001423955
1782812101553736000,3.74473583984375,0.0008189151674509048,-0.012118125153891742,-0.022359398469061122
1782812101563807000,3.754806884765625,-0.011004209095239638,-0.01378267909893766,-0.0093280377776362
1782812101573876700,3.764876708984375,-0.0035217443853616712,-0.011461771003855393,-0.013239053191931452
1782812101583947800,3.77494775390625,-0.018785364490747452,-0.010973138103540987,-0.020531938730017282
1782812101594018800,3.785018798828125,0.0066524436265230176,-0.03246350550297648,-0.016648893601458985
1782812101604089900,3.79508984375,0.003808160111308098,-0.017574773991433902,-0.024828332166129258
1782812101614161000,3.805160888671875,-0.022080314382910728,-0.010445177839836105,-0.00048149077347479756
1782812101624232000,3.81523193359375,-0.01654547660946846,-0.019881964088417588,-0.004429863073071465
1782812101634303000,3.825302978515625,-0.0026297639816999434,-0.013303051488986238,-0.019999907362682277
1782812101644374000,3.8353740234375,-0.003378536522388458,-0.007993300308845937,-0.009059481935366057
1782812101654444000,3.845444091796875,-0.009664484924077987,-0.0017725443641655146,-0.022969317378196866
1782812101664515000,3.85551513671875,-0.008468553137779236,-0.00662744618258439,-0.032035112606629265
1782812101674586000,3.865586181640625,-0.008917465949058533,-0.030856800958700477,-0.011617514121416024
1782812101684657000,3.875656982421875,-0.0075707275152206415,-0.014250725868949666,-0.014420983852341305
1782812101694728000,3.88572802734375,-0.007122399225831032,-0.019274627578724175,-0.008995495054754428
1782812101704799000,3.895799072265625,-0.017598785054683683,-0.01658784531331621,-0.022593161559163126
1782812101714870000,3.9058701171875,-0.02208849768936634,-0.007573175200633704,-0.032142477404663805
1782812101724941000,3.915941162109375,-0.00024257658421993254,-0.004473236423917114,-0.02147641193931922
1782812101735010800,3.9260107421875,-0.017152794852852822,-0.007517663887422531,-0.034065810150059404
1782812101745081900,3.936081787109375,0.0037929625421762466,-0.019400856907432897,-0.0248654310398153
1782812101755153000,3.94615283203125,-0.011171966877579688,-0.0045090018570423124,-0.030059051876864393
1782812101765224000,3.956223876953125,-0.0032417584002017974,-0.017611891131429,-0.025912414775521028
1782812101775295000,3.966294921875,-0.01700900246798992,-0.015450520979613065,-0.011029717995831741
1782812101785366000,3.976365966796875,-0.018206103298068047,-0.013975087265344336,-0.006060660878987983
1782812101795436800,3.986436767578125,-0.0036906712114810943,-0.008818097227811813,-0.019942875379242466
1782812101805507000,3.996507080078125,-0.0047381344377994536,-0.018698151998175306,-0.012242721931228879
1782812101815577900,4.006577880859375,-0.0069838675379753105,-0.01983745822641067,-0.018381434748799073
1782812101825649000,4.01664892578125,-0.0035427871733903884,-0.020379976738430557,-0.005233866082469466
1782812101835720000,4.026719970703125,-0.00863221926689148,-0.00573754813815467,-0.01981734473685501
1782812101845791000,4.036791015625,0.00289046074450016,-0.013597696187160908,-0.013858792525471652
1782812101855862000,4.046862060546875,-0.009676175361871719,-0.01677587869870476,-0.010483322459715418
1782812101865933000,4.05693310546875,-0.002944236758351326,-0.003086695702653378,-0.014391990653297397
1782812101876004000,4.067004150390625,-0.009230185160040856,0.0025420491656288503,0.0023117269914946516
1782812101886074000,4.07707421875,-0.0023468553870916366,-0.0036123818108811973,-0.005072775502933655
1782812101896145000,4.087144775390625,0.012468436428904533,-0.01194488747883588,-0.02792738731014542
1782812101906216000,4.0972158203125,-0.0030938743621110915,-0.02377572925710119,-0.005887722314742859
1782812101916287000,4.107286865234375,-0.015364157870411873,-0.012542186651704833,-0.018615453567227814
1782812101926358000,4.11735791015625,0.0033405425995588303,-0.0110775300597772,-0.011801250357599928
1782812101936429000,4.127428955078125,-0.014017419436573982,-0.01855896272319369,-0.005765778718795627
1782812101946500000,4.1375,0.0031926585614681243,-0.02213594442713074,-0.018605866038263773
1782812101956571000,4.14757080078125,0.0006499883413314818,-0.0026181922749150544,-0.01656034538503736
1782812101966641000,4.157640869140625,-0.0015945757150650024,-0.009086255777860059,-0.005783876064489595
1782812101976712000,4.1677119140625,-0.01431552560031414,-0.021968277976335958,-0.027801525590906383
1782812101986783000,4.177782958984375,-0.003093289840221405,-0.0041124037548899645,-0.028648411044094244
1782812101996854000,4.18785400390625,-0.003992869028449059,-0.015067896603886037,-0.003801997515291441
1782812102006924800,4.1979248046875,-0.004441197317838669,-0.020184856025129556,-0.010544918737129772
1782812102016995800,4.207995849609375,-0.006984452059864998,-0.005724807387590408,-0.02799689746595686
1782812102027067000,4.21806689453125,0.003938508492708206,-0.012874578677536918,-0.028663108573015777
1782812102037138000,4.228137939453125,-0.003243511965870857,-0.0027521573855075984,-0.005712502745154779
1782812102047208200,4.238208251953125,-0.013268646895885467,-0.014359118146868423,-0.010209300424461252
1782812102057279000,4.248279052734375,-0.00025075989067554474,-0.013659189716586842,-0.019718215760914606
1782812102067350000,4.25835009765625,-0.006835983499884605,-0.016288131714379414,-0.01807512701229425
1782812102077421000,4.268421142578125,-0.006537877336144447,-0.004116550207044929,-0.01447391048282152
1782812102087492000,4.2784921875,-0.001000116953253746,-0.003738391943881288,-0.01121295419180533
1782812102097563100,4.288563232421875,-0.012224690800905227,-0.005875413105729967,-0.008022124544531106
1782812102107634200,4.29863427734375,0.002887538135051727,-0.017472811454301698,-0.013139554323232732
1782812102117705000,4.308705078125,-0.007885200291872023,-0.004953183694276959,-0.01716177959361812
1782812102127775000,4.31877490234375,-0.022100772649049756,-0.007792699702829122,-0.012617733822658192
1782812102137846000,4.328845947265625,-0.005192892467975616,-0.0024578049482777715,-0.0069776136104133905
1782812102147917000,4.3389169921875,0.008425298517942428,-0.0064146893478929995,-0.0043917207364807835
1782812102157988000,4.348988037109375,-0.008632803788781165,-0.01334744775313884,-0.01349653280104976
1782812102168059000,4.359058837890625,0.004684942945837974,-0.005303220974653959,-0.0315593780037947
1782812102178130000,4.3691298828125,-0.024346505749225616,-0.019845468002930283,-0.010665022002439946
1782812102188201000,4.379200927734375,-0.01641688179373741,-0.019152444237470624,-0.004759976376849226
1782812102198271000,4.38927099609375,-0.002351531562209129,-0.008783537371084093,-0.003666495751449838
1782812102208341800,4.399341796875,-0.01776537379324436,-0.007985171801317482,-0.018558823442587163
1782812102218412800,4.409412841796875,-0.002800444373488426,-0.020495575075270608,-0.00851344259227626
1782812102228483800,4.41948388671875,-0.01522095000743866,-0.0034016342701856045,-0.01214466381765669
1782812102238555000,4.429554931640625,-0.010433715730905532,0.0009887918416410684,-0.02578096128242323
1782812102248626000,4.4396259765625,-0.01821370208263397,0.0007534852484241128,-0.0026474412022856994
1782812102258697000,4.449697021484375,-0.00699088180065155,-0.013283999728644266,-0.02372175459713908
1782812102268768000,4.45976806640625,-0.009534721064567566,-0.017168759606964887,-0.020490885200421326
1782812102278838000,4.469838134765625,-0.011479425391554832,-0.005072901083808392,-0.01774583797571249
1782812102288909000,4.479908935546875,-0.00040448914766311644,-0.0020578001794870943,-0.009002258155681193
1782812102298980000,4.48997998046875,-0.0237502934217453,-0.006391755996877327,-0.011559692120109684
1782812102309051100,4.500051025390625,-0.009984802919626235,-0.011258202122617512,-0.023885167281213215
1782812102319122000,4.510121826171875,-0.007141688448190689,-0.018038290716800836,-0.004106279974780045
1782812102329193000,4.52019287109375,-0.007589432215690612,-0.003472699345555156,-0.029975857972283845
1782812102339264000,4.530263916015625,0.0021358429849147797,-0.028225347343413157,-0.003355157930089626
1782812102349335000,4.5403349609375,-0.006243862825632095,-0.010434199788095429,-0.024430037580523638
1782812102359405000,4.550405029296875,-0.018366262295842168,-0.016748451835662124,-0.00475845798990922
1782812102369475800,4.560475830078125,-0.0029530045866966244,-0.0025289796215016394,0.001861999046173878
1782812102379547000,4.570546875,-0.0029535891085863113,-0.0017832301549613474,-0.02450713967103511
1782812102389618000,4.580617919921875,-0.0037011926054954527,0.0005520352590363473,-0.004486582245968747
1782812102399689000,4.59068896484375,-0.011034019711613654,-0.015706724230386316,-0.017163670156605075
1782812102409760000,4.600760009765625,-0.011182488271594047,0.005130942280823365,-0.02153447825250914
1782812102419831000,4.6108310546875,-0.02121054581105709,-0.005370769785530865,-0.02529010902555892
1782812102429901800,4.62090185546875,-0.01687397791147232,-0.005763203169219196,-0.024872148474969435
1782812102439971800,4.630971923828125,-0.021661796709895133,-0.004451928774407133,-0.024163022958079816
1782812102450043000,4.64104296875,-0.01672375578582287,-0.006872369987517595,0.001453642007568851
1782812102460113200,4.651113037109375,0.011108253991603851,-0.006507007273845374,0.005804859487013891
1782812102470184200,4.66118408203125,-0.004755085572600365,-0.0013188549130689353,-0.021078334266133605
1782812102480255200,4.671255126953125,-0.011788637471199036,-0.011766032913746312,-0.009031098374386783
1782812102490326300,4.681326171875,-0.010592705684900283,-0.006027589726448059,-0.020419781309145037
1782812102500397000,4.69139697265625,-0.008346972584724426,-0.0032643538244999945,-0.03124672272489406
1782812102510467000,4.701467041015625,-0.0014636428117752074,-0.008382062164414674,-0.005409850553749129
1782812102520538000,4.7115380859375,-0.024058920979499816,-0.0014884575926233082,-0.008122054954781197
1782812102530609200,4.721609130859375,-0.0149316116720438,-0.010409814265510067,-0.017716440634580794
1782812102540680200,4.73168017578125,-0.014633505508303642,-0.013569630003301426,-0.011330388292705175
1782812102550751000,4.7417509765625,-0.001315174251794815,-0.007319364836346358,-0.010791141733294353
1782812102560822000,4.751822021484375,-0.005355389553308487,-0.005809937520930543,-0.01786455528482329
1782812102570893000,4.76189306640625,-0.00715162532031536,-0.003663290014211088,-0.011010990462475456
1782812102580964000,4.771964111328125,-0.012390695017576217,-0.005945665330346674,-0.002788655754283536
1782812102591034000,4.7820341796875,-0.008649754923582076,-0.007288385176192969,-0.012198983254202175
1782812102601105000,4.79210498046875,0.002573065358400345,-0.005510744511801749,-0.015517583450011443
1782812102611176000,4.802176025390625,0.0007774141132831573,-0.01175917391469702,-0.023940144304884597
1782812102621247000,4.8122470703125,0.003618775019049644,-0.009093662766180932,-0.020475733297062104
1782812102631318000,4.822318115234375,-0.016582301488518712,-0.012673905006283893,-0.017145732641115317
1782812102641389000,4.83238916015625,-0.012689970225095748,-0.01176345736416988,0.001730118578101974
1782812102651460000,4.842460205078125,-0.005956278055906296,-0.00293819061005488,-0.02453680187364807
1782812102661530000,4.852530029296875,-0.02241524542570114,-0.019020177893619983,-0.020809180202241987
1782812102671601200,4.86260107421875,-0.006702127987146377,-0.01682401955621317,-0.00518658602477517
1782812102681672200,4.872672119140625,-0.000716039314866066,-0.003125666873017326,-0.014296211261779535
1782812102691743200,4.8827431640625,-0.019569792866706848,-0.011525940547557546,-0.012679999103641603
1782812102701814300,4.892814208984375,-0.0011649521261453627,-0.018850794409774243,-0.013993031630699988
1782812102711885000,4.902885009765625,0.004222586131095886,-0.021138951012725008,-0.02320041130388854
1782812102721956000,4.9129560546875,-0.0034089316606521606,-0.010505401860782877,-0.0041642161405179645
1782812102732027100,4.923027099609375,0.0024281039297580718,-0.01809299831241369,-0.0038781817237730134
1782812102742097200,4.93309716796875,-0.014331892213225363,-0.024636675201682372,-0.03009495430730749
1782812102752168200,4.943168212890625,-0.010742927810549736,-0.015330164269264786,-0.014115984440222381
1782812102762239000,4.953239013671875,-0.020915362256765366,-0.013114013456599787,-0.03905382997898851
1782812102772310000,4.96331005859375,-0.0017629180192947386,-0.018093162709195167,-0.014097832295601255
1782812102782381000,4.973381103515625,-0.0053548050314188,-0.015395758585073053,-0.02201093665783992
1782812102792452000,4.9834521484375,-0.01058978307545185,-0.008948792669083922,-0.014297364322538487
1782812102802523100,4.993523193359375,-0.006700374421477318,-0.021428645541146395,-0.009245976384216918
1782812102812594200,5.00359423828125,-0.00789630620777607,-0.01654862754778005,-0.010132472328585572
1782812102822664000,5.013663818359375,0.0010813654959201812,-0.016811936392774805,-0.017427867200877516
1782812102832735000,5.02373486328125,0.0024275194078683853,-0.009431141959084198,-0.018410608327644875
1782812102842806000,5.033805908203125,-0.008646247792243957,-0.015371838853368534,-0.001199224288505502
1782812102852877000,5.043876953125,-0.01208732815682888,0.0031357042098417876,-0.008431513629597612
1782812102862948000,5.053947998046875,-0.005205167427659034,-0.010441771173197776,-0.02699353824284626
1782812102873019000,5.064018798828125,-0.006702712509036064,-0.009466030609374865,-0.023631452815048394
1782812102883090000,5.07408984375,-0.013585457760095596,-0.009335280369175598,-0.01567036057563964
1782812102893160200,5.08416015625,-0.015081249275803565,-0.009362140976637602,-0.024789237698179204
1782812102903231200,5.094231201171875,0.012899813583493232,-0.002410385609976947,-0.020520026813226285
1782812102913302300,5.10430224609375,-0.012238719326257705,-0.006187063737632706,-0.0047553732669679445
1782812102923373000,5.114373046875,-0.015977321332693098,-0.013648869251972064,-0.02061944348353427
1782812102933444000,5.124444091796875,0.0012292495340108871,-0.006503609740361571,-0.029745044891093857
1782812102943515100,5.13451513671875,-0.017325813332200048,-0.024304438439477234,-0.014764139300782698
1782812102953586200,5.144586181640625,-0.008946107521653176,-0.021309366543032227,-0.0042642447321792135
1782812102963657200,5.1546572265625,-0.007899813339114188,-0.017523482195613903,-0.008376290010754019
1782812102973727000,5.16472705078125,-0.0040104046851396555,-0.00850477522863075,-0.025010897075245155
1782812102983798000,5.174798095703125,-0.014185761740803719,-0.008503660983778536,-0.015075308158784172
1782812102993869000,5.184869140625,-0.0080517890304327,-0.014289450444141401,-0.02021099967996124
1782812103003940000,5.194940185546875,0.0015250176101922989,-0.0027606238197535275,-0.017851791701372712
1782812103014011100,5.20501123046875,-0.005209843602776527,-0.003865287992870435,-0.005637620011193212
1782812103024082200,5.215082275390625,-0.015237316620349883,-0.0050880073213949795,-0.016950735225400422
1782812103034153000,5.225153076171875,-0.0091062665194273,-0.013770970394834875,-0.009515308544621803
1782812103044223000,5.235222900390625,-0.01509235519170761,-0.02630756755596958,-0.014125779748451896
1782812103054294000,5.2452939453125,-0.02436930210292339,-0.011997640579380095,0.006944371211226098
1782812103064365000,5.255364990234375,-0.008506547060608863,-0.014147110230848192,-0.017909574886772316
1782812103074436000,5.26543603515625,-0.007459083834290504,-0.008032545473845675,-0.0020856174848857332
1782812103084507000,5.2755068359375,-0.013593641066551207,-0.027693158429162576,-0.017895799806457943
1782812103094578000,5.285577880859375,-0.008055880683660506,-0.01848706653076224,-0.020331577869306783
1782812103104649000,5.29564892578125,-0.0019213234513998031,-0.004393321321811527,-0.013013909516413695
1782812103114720000,5.305719970703125,-0.007757774519920348,-0.01388715325356461,-0.016157465955859516
1782812103124788000,5.3157880859375,-0.007757774519920348,-0.01389744631871581,-0.01623695636627963
1782812103134859000,5.32585888671875,-0.011200608450174331,-0.01886607417729683,-0.021044747090362942
1782812103144930000,5.335929931640625,-0.0192798700094223,-0.0144860598616302,-0.019430151500576174
1782812103155000000,5.346,0.0018202011644840239,-0.0000435742802452296,-0.01752382240562001
1782812103165071000,5.356071044921875,-0.015986089161038396,-0.0014223700864706187,-0.011701744639035314
1782812103175142100,5.36614208984375,-0.004314356067776679,0.0026286040710750964,-0.028451408900960814
1782812103185213200,5.376213134765625,-0.0037158056527376174,-0.024900230641849336,-0.023904696248879188
1782812103195284200,5.3862841796875,-0.00940203459560871,-0.015925152754038573,-0.019170498200680595
1782812103205355300,5.396355224609375,-0.012695815443992614,-0.027759300734242424,-0.019013047183223532
1782812103215426000,5.406426025390625,-0.009703647890686989,0.0068791833207942545,-0.005730412861180957
1782812103225496000,5.41649609375,-0.009705401456356047,0.004142049974482506,-0.007963336712133605
1782812103235567000,5.426567138671875,-0.01180149695277214,0.0008736958282999694,-0.00869465579452226
1782812103245638100,5.43663818359375,0.003461538630723953,-0.013474891791399567,-0.008338419385510496
1782812103255709200,5.446709228515625,-0.0013256956458091735,0.0006492120231967419,-0.00678808923754841
1782812103265780000,5.456780029296875,0.0013683657437562943,-0.0017728183588013053,-0.011245847247831989
1782812103275851000,5.46685107421875,-0.01075403372645378,-0.020533021008828655,-0.014432541859394405
1782812103285922000,5.476922119140625,-0.0047679450541734695,-0.002764907269226387,-0.004754074075736571
1782812103295993000,5.4869931640625,0.0031646015107631683,-0.012319566010124981,-0.007522344629117287
1782812103306063000,5.49706298828125,-0.014043722921609878,-0.013482106983475387,-0.002952454314136412
1782812103316134000,5.5071337890625,-0.0339455242216587,-0.0031634050675202158,-0.007275094153068494
1782812103326205000,5.517204833984375,-0.005215688821673393,-0.0062644672222435475,0.0068296907564159475
1782812103336276000,5.52727587890625,-0.00985387001633644,-0.00048093365104869007,-0.017714159629237836
1782812103346347000,5.537346923828125,-0.004915244570374488,-0.010697755228262395,-0.02776461623017676
1782812103356418000,5.54741796875,-0.008805822268128394,-0.01051005063643679,-0.00614274738858221
1782812103366489000,5.557489013671875,-0.00761047500371933,-0.013406749325478449,-0.016171528730541465
1782812103376559000,5.56755908203125,-0.0008761983126401901,-0.006993722211709246,-0.01670538901207037
1782812103386630100,5.577630126953125,-0.009256488645076751,0.003662093570968136,-0.016090606698149348
1782812103396701200,5.587701171875,-0.007461421921849251,-0.0122867871185299,-0.022381955077452585
1782812103406772200,5.597772216796875,-0.006862871506810188,-0.01690365153052844,-0.0075848108395002774
1782812103416843300,5.60784326171875,-0.013895838883519172,-0.00809593869941309,-0.012553883939364458
1782812103426914000,5.6179140625,-0.0049181671798229215,-0.006266147722676396,-0.021449428034271113
1782812103436985000,5.627985107421875,-0.017487141373753547,0.0019177980537526309,-0.006525198234373237
1782812103447055000,5.63805517578125,-0.0035708442240953444,-0.008060063668433577,-0.016673927578015717
1782812103457126100,5.648126220703125,-0.006414543217420578,-0.007070349378185346,-0.018223054432868955
1782812103467197700,5.65819775390625,-0.013742694148421287,-0.006536160303093492,-0.015621680862014181
1782812103477268700,5.668268798828125,-0.23536124601364133,-0.04751382078439928,-0.06917911092590075
1782812103487339500,5.678339599609375,0.3498737603783607,0.02464955294956453,0.07690011079912074
1782812103497410600,5.68841064453125,-0.18089082015752792,-0.020493428783956914,-0.06349955375241115
1782812103507481600,5.698481689453125,0.0297977568924427,-0.010009900828264653,-0.0025468121057143434
1782812103517553700,5.7085537109375,-0.0032721535384654995,-0.06230383202866651,-0.02134418897795258
1782812103527624700,5.718624755859375,0.0063040685802698134,0.02017860894743353,-0.015125748287944588
1782812103537695700,5.72869580078125,-0.015244330883026121,-0.024075342391338198,-0.03769407451666193
1782812103547766800,5.738766845703125,-0.01254910044968128,0.022608137649297713,-0.0015807960681733675
1782812103557837600,5.748837646484375,-0.026763503763079642,-0.03732005128921009,-0.044422823365963995
