time,seconds_elapsed,z,y,x
1782812097877862100,0.068862060546875,0.00022438005544245243,-0.0013469154946506023,0.00011229998199269176
1782812097887933200,0.07893310546875,0.001327641773968935,-0.0010686034802347422,-0.0007134500192478299
1782812097898004200,0.089004150390625,-0.0009038209682330489,0.0013990816660225391,-0.0008990722708404064
1782812097908075300,0.0990751953125,0.0015927845379337668,-0.0019046464003622532,0.002999722957611084
1782812097918146000,0.10914599609375,-0.002102351514622569,-0.0006702712271362543,0.0008612046367488801
1782812097928216300,0.11921630859375,0.0017578692641109228,-0.0007565820124000311,-0.00032044053659774363
1782812097938287400,0.129287353515625,-0.0004624081775546074,0.0017702252371236682,-0.0020818552002310753
1782812097948358400,0.1393583984375,-0.0003423296147957444,-0.0006151222623884678,0.00029258575523272157
1782812097958429400,0.149429443359375,-0.0008965333690866828,0.0003127229865640402,0.00036688795080408454
1782812097968500200,0.159500244140625,0.0015083246398717165,0.00021249288693070412,-0.0006536465953104198
1782812097978571300,0.1695712890625,0.0006630372954532504,0.00012567383237183094,0.003006069455295801
1782812097988642300,0.179642333984375,0.0006284023984335363,-0.0004772383254021406,-0.00017903605476021767
1782812097998713300,0.18971337890625,-0.0006733506452292204,0.0007454188307747245,0.0008928863098844886
1782812098008784400,0.199784423828125,-0.00026797468308359385,-0.000994575908407569,0.00028253596974536777
1782812098018854100,0.209854248046875,-0.0005526664899662137,0.0014496734365820885,0.0001895916648209095
1782812098028925200,0.21992529296875,-0.0009875914547592402,-0.0019222765695303679,0.001333576044999063
1782812098038996200,0.229996337890625,-0.00009969354141503572,-0.0005073391366750002,-0.00047178074601106346
1782812098049067300,0.2400673828125,0.0013773784739896655,0.0005933759966865182,-0.0020632168743759394
1782812098059138300,0.25013818359375,-0.0021798056550323963,0.0004362495383247733,-0.0005838308134116232
1782812098069209300,0.260209228515625,0.000717606395483017,0.0006174272857606411,0.0009837159886956215
1782812098079280000,0.270280029296875,-0.0016869617393240333,-0.00006620609201490879,-0.0026142147835344076
1782812098089351200,0.28035107421875,0.0012061126763001084,0.0005729889962822199,0.0008847942808642983
1782812098099422200,0.290422119140625,-0.000738261267542839,-0.0005671102553606033,0.0017180972499772906
1782812098109493200,0.3004931640625,0.0016776124248281121,0.00016997754573822021,0.00044535918277688324
1782812098119563300,0.310563232421875,0.0011364580132067204,0.000734301283955574,0.0016722774598747492
1782812098129634000,0.320634033203125,-0.00042210204992443323,-0.00035974476486444473,-0.0010676684323698282
1782812098139705000,0.330705078125,0.0012258620699867606,-0.0011600246652960777,-0.000980849377810955
1782812098149776100,0.340776123046875,0.0004422683850862086,-0.0002759916242212057,0.0010738514829427004
1782812098159847200,0.35084716796875,0.00035305251367390156,-0.00030129170045256615,-0.0008372328011319041
1782812098169918200,0.360918212890625,0.00017818144988268614,-0.0023505964782088995,0.00023995846277102828
1782812098179989200,0.3709892578125,-0.0034565008245408535,0.0005138993728905916,-0.00043435394763946533
1782812098190060000,0.38106005859375,0.00033297750633209944,-0.001089195255190134,0.0002169141371268779
1782812098200131000,0.391131103515625,-0.0005730298580601811,0.0010455945739522576,-0.000263253808952868
1782812098210201300,0.401201416015625,0.0003263363614678383,-0.0004905215464532375,0.0019358365098014474
1782812098220272400,0.4112724609375,0.0009093023836612701,0.0013662342680618167,-0.0020434586331248283
1782812098230343400,0.421343505859375,-0.0006542293122038245,0.00000765104778110981,-0.00027302835951559246
1782812098240414200,0.431414306640625,-0.0001389075769111514,-0.0003979483153671026,0.0025163665413856506
1782812098250485200,0.4414853515625,-0.0008511672494933009,0.00001277378760278225,-0.00004026712849736214
1782812098260556300,0.451556396484375,0.0024050800129771233,-0.00037791207432746887,0.0007096790359355509
1782812098270627300,0.46162744140625,0.0001745152985677123,0.0013905538944527507,-0.000018166349036619067
1782812098280698400,0.471698486328125,0.00225657457485795,0.0008395458571612835,0.0018774716882035136
1782812098290769400,0.481769287109375,0.00014010642189532518,0.0027040557470172644,-0.0007180210668593645
1782812098300839200,0.491839111328125,-0.0007991904858499765,-0.0003114414867013693,-0.00027966476045548916
1782812098310910200,0.50191015625,0.0010690748458728194,0.0005893413908779621,0.000820261484477669
1782812098320981200,0.511981201171875,0.00018517172429710627,0.0019885662477463484,-0.0009861607104539871
1782812098331052300,0.52205224609375,-0.0005693843122571707,0.000046675559133291245,0.00024103696341626346
1782812098341123300,0.532123291015625,0.00006178487092256546,-0.0002462721895426512,-0.00032541737891733646
1782812098351194000,0.542194091796875,-0.0004841617774218321,0.0010501466458663344,0.000041872437577694654
1782812098361265200,0.55226513671875,-0.0015891073271632195,0.0000674400944262743,0.000902872416190803
1782812098371336200,0.562336181640625,0.0011846778215840459,0.0003091958351433277,-0.0017482867697253823
1782812098381407200,0.5724072265625,0.0007463215151801705,-0.0000015951227396726608,-0.0029144850559532642
1782812098391478300,0.582478271484375,-0.0013654669746756554,0.0007290743524208665,0.0007916624890640378
1782812098401548000,0.592548095703125,0.0010217905510216951,-0.002382296836003661,-0.0011974525405094028
1782812098411619000,0.602619140625,-0.0024296222254633904,-0.0023359879851341248,0.0002549838391132653
1782812098421690000,0.612690185546875,0.00008520099800080061,0.00046272820327430964,0.0009242361993528903
1782812098431761200,0.62276123046875,-0.00005981232970952988,-0.001574985682964325,0.0011064744321629405
1782812098441832200,0.632832275390625,0.0007476581376977265,0.0003012111410498619,-0.0001579944510012865
1782812098451903200,0.6429033203125,0.0011148772900924087,-0.00042459042742848396,0.0017317356541752815
1782812098461974500,0.652974609375,0.00003256858326494694,-0.001367349410429597,-0.0023351777344942093
1782812098472045600,0.663045654296875,-0.0007388587109744549,-0.00029938272200524807,-0.0005927851889282465
1782812098482116600,0.67311669921875,0.0017229672521352768,0.0014191551599651575,-0.001352585037238896
1782812098492186600,0.6831865234375,0.0008011995814740658,-0.00006132642738521099,-0.0013194656930863857
1782812098502257700,0.693257568359375,0.00031916744774207473,0.0001487969420850277,0.0001103854738175869
1782812098512328700,0.70332861328125,-0.0003272698959335685,0.0005337370093911886,0.000212275015655905
1782812098522399700,0.713399658203125,0.00026022340171039104,0.0014852844178676605,0.0019768853671848774
1782812098532470800,0.723470703125,-0.0009073546389117837,-0.0009651049040257931,0.0003172218275722116
1782812098542541600,0.73354150390625,0.00016030669212341309,0.0009217447368428111,-0.0006356572266668081
1782812098552612600,0.743612548828125,0.0008709651883691549,0.0033414559438824654,0.00013757814303971827
1782812098562683600,0.75368359375,-0.0017509169410914183,0.001027967780828476,-0.0001290043001063168
1782812098572754700,0.763754638671875,-0.0013091829605400562,0.00020088744349777699,0.0005023668636567891
1782812098582824700,0.77382470703125,-0.0007435274310410023,0.0006616143509745598,0.0009551042458042502
1782812098592895500,0.7838955078125,-0.0001142153050750494,0.0012074611149728298,-0.0008906908333301544
1782812098602966500,0.793966552734375,0.0016746299806982279,0.0018191891722381115,-0.00004460455966182053
1782812098613037600,0.80403759765625,-0.00046823499724268913,0.0008560640271753073,0.001429487019777298
1782812098623108600,0.814108642578125,0.000021520303562283516,-0.0003021447919309139,-0.001898931572213769
1782812098633179600,0.8241796875,-0.0010636753868311644,0.0009329724125564098,-0.00015008507762104273
1782812098643250700,0.834250732421875,-0.0012077523861080408,0.00030366750434041023,-0.0009567565284669399
1782812098653321500,0.844321533203125,-0.0023574335500597954,0.001061935443431139,-0.0018082604510709643
1782812098663392500,0.854392578125,0.00017230305820703506,0.00024061650037765503,-0.002453810768201947
1782812098673462500,0.864462646484375,0.001374553656205535,-0.00006998423486948013,-0.001901151379570365
1782812098683533600,0.874533447265625,-0.001100321882404387,-0.00018450012430548668,0.0007518896600231528
1782812098693604600,0.8846044921875,-0.000820023356936872,0.0020505315624177456,-0.00008488318417221308
1782812098703675400,0.89467529296875,-0.00040084170177578926,0.000036915531381964684,-0.0020590845961123705
1782812098713746400,0.904746337890625,-0.00043896271381527185,0.002278728876262903,0.002090367255732417
1782812098723817500,0.9148173828125,0.0007344260811805725,0.00201960327103734,-0.0006193991866894066
1782812098733888500,0.924888427734375,-0.00177663192152977,0.001634218031540513,0.0005402697715908289
1782812098743959600,0.93495947265625,-0.0006506474455818534,0.0005737472092732787,-0.00007678469410166144
1782812098754030600,0.945030517578125,-0.0005792388692498207,0.00029104575514793396,0.0009215879254043102
1782812098764100600,0.9551005859375,0.0002524663577787578,0.001261235331185162,-0.00010266384924761951
1782812098774171600,0.965171630859375,0.0009108372032642365,-0.000043338630348443985,-0.0003330522158648819
1782812098784242700,0.97524267578125,-0.0007629594765603542,0.0019034321885555983,-0.0018678319174796343
1782812098794313700,0.985313720703125,0.00020953814964741468,-0.0009361195843666792,0.0006375127704814076
1782812098804384800,0.995384765625,-0.000024553737603127956,0.0023861739318817854,0.0007688065525144339
1782812098814455600,1.00545556640625,-0.00024241430219262838,0.00207174732349813,-0.003521889913827181
1782812098824526600,1.015526611328125,0.0005203149630688131,0.0003683896502479911,0.0004741832672152668
1782812098834597600,1.02559765625,-0.0008493842324241996,-0.0006170682609081268,0.0013873027637600899
1782812098844668700,1.035668701171875,0.0007591649191454053,-0.000271656084805727,-0.00034934456925839186
1782812098854738700,1.04573876953125,0.000354366609826684,-0.0013367361389100552,0.000431848136940971
1782812098864809500,1.0558095703125,-0.001442468143068254,0.0014449355658143759,-0.00020864210091531277
1782812098874880500,1.065880615234375,0.0024160766042768955,-0.001549296546727419,0.0018000759882852435
1782812098884951600,1.07595166015625,-0.0008412357419729233,0.00043395941611379385,0.0005497217644006014
1782812098895022600,1.086022705078125,-0.0017272552940994501,0.0013000655453652143,0.0007454787846654654
1782812098905093600,1.09609375,-0.0010100661311298609,-0.0010682835709303617,-0.0005608017090708017
1782812098915164700,1.10616455078125,0.0012092683464288712,-0.0009910948574543,-0.00003889956860803068
1782812098925235500,1.1162353515625,0.0004388158558867872,-0.00025526341050863266,0.0006804201984778047
1782812098935306500,1.126306396484375,0.0024063987657427788,0.0002572077792137861,-0.00142560969106853
1782812098945377500,1.13637744140625,-0.0010474547743797302,-0.0012525382917374372,-0.0016509131528437138
1782812098955447600,1.146447509765625,0.0025161495432257652,-0.0019136352930217981,0.0015936526469886303
1782812098965518600,1.1565185546875,0.0010921572102233768,0.0009665732504799962,0.001931874081492424
1782812098975589600,1.166589599609375,0.00038416730239987373,0.00016303802840411663,-0.0019306294852867723
1782812098985660700,1.17666064453125,-0.0002560566645115614,0.00014945585280656815,-0.0008355376776307821
1782812098995731700,1.186731689453125,0.0013813249533995986,-0.0018098289147019386,0.00010065827518701553
1782812099005802800,1.196802734375,-0.0008978083496913314,-0.00016878917813301086,-0.0019774064421653748
1782812099015873800,1.206873779296875,0.0021190268453210592,0.00024367636069655418,-0.0020823150407522917
1782812099025944800,1.21694482421875,-0.001584897399879992,-0.0004596645012497902,-0.0003011928638443351
1782812099036014600,1.2270146484375,-0.00010463222861289978,-0.0012719202786684036,0.0018970862729474902
1782812099046085600,1.237085693359375,0.0008011087775230408,-0.000347270630300045,0.00036177400033921003
1782812099056156700,1.24715673828125,0.0008073110366240144,-0.001396148232743144,0.002033056691288948
1782812099066227700,1.257227783203125,-0.004050827585160732,0.0021519814617931843,-0.0010751185473054647
1782812099076298800,1.267298828125,0.0006105633219704032,0.0005243564955890179,-0.00040362373692914844
1782812099086369500,1.27736962890625,-0.0006445845356211066,-0.0004490287974476814,0.00045284884981811047
1782812099096440600,1.287440673828125,0.00018315913621336222,-0.00017245463095605373,0.0011907854350283742
1782812099106511600,1.29751171875,-0.0010091380681842566,0.0013476777821779251,0.0013553688768297434
1782812099116582700,1.307582763671875,0.00023954687640070915,0.0006442415760830045,0.00023836549371480942
1782812099126652700,1.317652587890625,-0.0004448855761438608,-0.001029022503644228,-0.0008029305026866496
1782812099136723500,1.327723388671875,0.00022217846708372235,0.0014309060061350465,-0.0013786146882921457
1782812099146794500,1.33779443359375,0.0005659926100634038,0.0001294191461056471,-0.001343727228231728
1782812099156865500,1.347865478515625,-0.00015932542737573385,-0.0033473290968686342,0.0007578072836622596
1782812099166936600,1.3579365234375,-0.001522064907476306,0.0002644497435539961,-0.00011411169543862343
1782812099177007600,1.368007568359375,-0.000544346054084599,-0.00028711347840726376,-0.0020102388225495815
1782812099187078700,1.37807861328125,-0.0012988195521757007,0.0010990618029609323,-0.0008008972508832812
1782812099197149400,1.3881494140625,-0.0014820582000538707,0.00022411812096834183,-0.0008773435838520527
1782812099207220500,1.398220458984375,0.002194435801357031,-0.00002249050885438919,-0.0029053406324237585
1782812099217290800,1.408290771484375,0.0005101159331388772,-0.00004611280746757984,-0.00017161134746856987
1782812099227361800,1.41836181640625,0.00167578156106174,0.0012969194212928414,-0.0006600350607186556
1782812099237432800,1.428432861328125,-0.0010759455617517233,0.0005674536805599928,0.00028524361550807953
1782812099247503600,1.438503662109375,0.0018026652978733182,-0.0008948880713433027,-0.0008327513933181763
1782812099257574700,1.44857470703125,-0.0008697620360180736,-0.00017657363787293434,-0.0003034997498616576
1782812099267645700,1.458645751953125,-0.0019201127579435706,0.002448770683258772,-0.0006505096680484712
1782812099277716700,1.468716796875,-0.0012770945904776454,0.0017783570801839232,-0.0008673558477312326
1782812099287787800,1.478787841796875,-0.0010861459886655211,-0.00027520651929080486,-0.0007054356974549592
1782812099297858800,1.48885888671875,-0.00096888467669487,0.0024220608174800873,-0.0012175262672826648
1782812099307928600,1.498928466796875,0.00015576824080199003,0.0010745013132691383,0.0010821133619174361
1782812099317999600,1.50899951171875,-0.0000740252435207367,0.00033902761060744524,-0.0006569718243554235
1782812099328070700,1.519070556640625,0.0019180192612111568,-0.0004287618212401867,-0.0009658985654823482
1782812099338141700,1.5291416015625,-0.0002776698675006628,0.0007826543878763914,0.00017445767298340797
1782812099348212700,1.539212646484375,-0.0016790252411738038,-0.0003089753445237875,0.0013310685753822327
1782812099358283500,1.549283447265625,0.0012664851965382695,0.00029499572701752186,0.00032900809310376644
1782812099368354600,1.5593544921875,-0.0011197071289643645,-0.0007793232798576355,-0.00046514649875462055
1782812099378425600,1.569425537109375,0.0008565999451093376,0.0013116346672177315,-0.00104143051430583
1782812099388495600,1.57949560546875,0.000021432642824947834,-0.0009965270292013884,0.00004167715087532997
1782812099398566700,1.589566650390625,-0.0010075860191136599,-0.000010231975466012955,-0.0015726977726444602
1782812099408637400,1.599637451171875,0.001027069054543972,-0.0000432552769780159,0.00035995812504552305
1782812099418708500,1.60970849609375,0.001247512293048203,0.0013230659533292055,0.0019692068453878164
1782812099428779500,1.619779541015625,0.0029897522181272507,-0.0008271702099591494,-0.0014737278688699007
1782812099438850600,1.6298505859375,0.0014626526972278953,-0.00015053898096084595,0.0016902104252949357
1782812099448921600,1.639921630859375,-0.0008172794478014112,-0.00008555781096220016,-0.001873631845228374
1782812099458991900,1.649991943359375,-0.001654890482313931,0.0016337286215275526,-0.0007985106785781682
1782812099469063000,1.66006298828125,0.0006332974880933762,0.00016606063582003117,0.0027730546426028013
1782812099479133000,1.6701328125,-0.0013499788474291563,0.00179967877920717,-0.0020055975764989853
1782812099489204000,1.680203857421875,-0.00032199861016124487,0.0004662340506911278,0.0002546272589825094
1782812099499275000,1.69027490234375,-0.0011998899281024933,0.001335224718786776,-0.00034855661215260625
1782812099509345800,1.700345703125,0.0009088009246625006,0.0017677220748737454,-0.0017648256616666913
1782812099519416800,1.710416748046875,-0.0014233770780265331,0.0005410743178799748,-0.0005674773710779846
1782812099529488000,1.72048779296875,-0.00002654909621924162,0.00034772884100675583,-0.0016122355591505766
1782812099539559000,1.730558837890625,0.0014202701859176159,-0.00020237150602042675,-0.0003181637730449438
1782812099549630000,1.7406298828125,0.001084445510059595,0.0010855331784114242,0.0009931768290698528
1782812099559701000,1.750700927734375,-0.0011993959778919816,0.0006039589643478394,0.0003785625740420073
1782812099569770800,1.760770751953125,0.0015375346411019564,0.0005467010196298361,0.0009580664336681366
1782812099579841800,1.770841796875,-0.000598613522015512,0.0021665606182068586,-0.0015048164641484618
1782812099589912800,1.780912841796875,0.0011702580377459526,0.0010855834698304534,-0.0009527432266622782
1782812099599983900,1.79098388671875,-0.0001071953447535634,-0.0024847956374287605,-0.00002778388443402946
1782812099610055000,1.801054931640625,0.00022410193923860788,-0.0019231350161135197,0.0018010088242590427
1782812099620125700,1.811125732421875,-0.0012070888187736273,0.001673828111961484,0.00005172030068933964
1782812099630196700,1.82119677734375,0.00037509523099288344,0.0002948432229459286,0.002227522898465395
1782812099640267800,1.831267822265625,0.0013662425335496664,-0.00019914284348487854,-0.0011153829982504249
1782812099650338800,1.8413388671875,-0.00036427960731089115,-0.0020681493915617466,-0.00020831028814427555
1782812099660409000,1.8514091796875,-0.00020994455553591251,-0.00053058797493577,-0.001115654711611569
1782812099670480000,1.86147998046875,0.001624174416065216,0.0008723651990294456,0.001425000955350697
1782812099680551000,1.871551025390625,-0.0011364517267793417,0.0005657295696437359,-0.003069930477067828
1782812099690622000,1.8816220703125,-0.0005380394868552685,0.0017886532004922628,0.000827339303214103
1782812099700693000,1.89169287109375,-0.0006984993815422058,0.0011689304374158382,0.0004429863765835762
1782812099710764000,1.901763916015625,-0.0010300627909600735,-0.001319261034950614,-0.0005815317272208631
1782812099720835000,1.9118349609375,-0.0004636794328689575,0.001762736588716507,-0.00011477840598672628
1782812099730905900,1.92190576171875,0.0014644492184743285,-0.0014844557736068964,0.0008703249040991068
1782812099740975900,1.931975830078125,0.0005925291916355491,0.0006335653597488999,0.00014134595403447747
1782812099751047000,1.942046875,-0.0006695428164675832,0.0006495442939922214,-0.0029404640663415194
1782812099761118000,1.952117919921875,-0.0018818260869011283,-0.0000345159787684679,-0.0003956490254495293
1782812099771189000,1.96218896484375,-0.0005739476764574647,0.0016123827081173658,0.0014818795025348663
1782812099781259800,1.972259765625,0.000471212319098413,0.001704453956335783,-0.0004565175622701645
1782812099791330800,1.982330810546875,0.00016255199443548918,0.0006003073649480939,0.00141302146948874
1782812099801401900,1.99240185546875,-0.002211138140410185,0.002466605743393302,0.000041095365304499865
1782812099811473000,2.002472900390625,0.00009835523087531328,0.0019914978183805943,0.0016573678003624082
1782812099821543000,2.01254296875,0.0012469529174268246,-0.0004301734734326601,-0.0001538209617137909
1782812099831613700,2.02261376953125,0.0005478732055053115,0.003569095628336072,0.0006310126045718789
1782812099841684700,2.032684814453125,-0.00023738667368888855,-0.0003258178476244211,-0.0008068233146332204
1782812099851755800,2.042755859375,-0.0013583110412582755,-0.001315981149673462,0.001990560907870531
1782812099861826800,2.052826904296875,-0.0000487244687974453,0.001061966991983354,0.0009333619382232428
1782812099871897900,2.06289794921875,-0.002272197511047125,0.0023714432027190924,0.0033456534147262573
1782812099881969000,2.072968994140625,0.00014809053391218185,0.001232324750162661,-0.003102838061749935
1782812099892039700,2.083039794921875,-0.0002716236049309373,-0.00048248469829559326,0.0009571509435772896
1782812099902110700,2.09311083984375,0.0022572590969502926,0.000849934876896441,0.000007199356332421303
1782812099912181000,2.103180908203125,0.0004652179195545614,0.00015458348207175732,0.0011217322899028659
1782812099922252000,2.113251953125,0.0001681288704276085,0.002499781083315611,0.0021935359109193087
1782812099932323000,2.123322998046875,-0.0019363010069355369,0.003797273151576519,-0.0014398146886378527
1782812099942393900,2.133393798828125,-0.0001795998541638255,0.0004904994275420904,-0.0006105878856033087
1782812099952465000,2.14346484375,-0.0012360758846625686,-0.0019473580177873373,0.0005886335857212543
1782812099962536000,2.153535888671875,-0.0012000526767224073,0.00016351323574781418,-0.00044044048991054296
1782812099972607000,2.16360693359375,-0.0005289360415190458,-0.0008956259116530418,-0.0005248626694083214
1782812099982678000,2.173677978515625,-0.0003033042885363102,0.0006352639757096767,-0.0009673180757090449
1782812099992747800,2.183747802734375,-0.00018479360733181238,0.0004025036469101906,-0.0012445531319826841
1782812100002818800,2.19381884765625,0.0010644618887454271,0.0005362424999475479,-0.0019361444283276796
1782812100012889900,2.203889892578125,0.000025829067453742027,0.0003650011494755745,0.0010002569761127234
1782812100022961000,2.2139609375,0.0013378029689192772,0.00027028960175812244,0.0007451562560163438
1782812100033032000,2.224031982421875,0.0007111611193977296,0.000015425030142068863,-0.0005075947265140712
1782812100043103000,2.23410302734375,-0.0003014657413586974,0.002677595242857933,-0.0018163113854825497
1782812100053173800,2.244173828125,-0.0014213250251486897,-0.0011973041109740734,0.00305594177916646
1782812100063244800,2.254244873046875,-0.0012288136640563607,-0.0014506096486002207,0.001533773262053728
1782812100073315800,2.26431591796875,0.001546200248412788,0.00224639056250453,-0.0006026146002113819
1782812100083385900,2.2743857421875,-0.0020238226279616356,-0.0005880389362573624,-0.0006098021985962987
1782812100093457000,2.284456787109375,0.000634278345387429,0.001019711373373866,-0.002283066278323531
1782812100103527700,2.294527587890625,0.0019495106535032392,-0.0003420780412852764,-0.0019090492278337479
1782812100113598700,2.3045986328125,-0.000692877802066505,-0.00019373977556824684,-0.0005234064301475883
1782812100123669800,2.314669677734375,0.0012817522510886192,-0.0013255227822810411,0.001041978131979704
1782812100133740800,2.32474072265625,0.0005978525150567293,0.0010883662616834044,-0.00007095682667568326
1782812100143811800,2.334811767578125,-0.0017876647179946303,-0.0000021473970264196396,-0.001118736108765006
1782812100153883000,2.3448828125,-0.0009615520248189569,0.0004673678195104003,-0.001085446565411985
1782812100163953700,2.35495361328125,0.0003469451330602169,0.0004957047058269382,0.0015564444474875927
1782812100174024000,2.36502392578125,-0.00039314734749495983,0.0016975892940536141,0.0005726728122681379
1782812100184095000,2.375094970703125,-0.0001677662367001176,0.001309143379330635,0.001134759746491909
1782812100194166000,2.385166015625,-0.00007615354843437672,0.0013741245493292809,0.0020761871710419655
1782812100204237000,2.395237060546875,0.00031362479785457253,0.0009322132682427764,-0.0019976019393652678
1782812100214307800,2.405307861328125,0.0014507945161312819,0.0008142353035509586,-0.00034750733175314963
1782812100224379000,2.41537890625,-0.0005477782106027007,-0.0033861270640045404,-0.0015768312150612473
1782812100234450000,2.425449951171875,0.001164900721050799,0.0016222135163843632,0.001149446819908917
1782812100244521000,2.43552099609375,-0.0014061285182833672,0.0010982933454215527,-0.00020626885816454887
1782812100254591000,2.445591064453125,0.00036513980012387037,0.0004932230804115534,-0.0005535450764000416
1782812100264661800,2.455661865234375,0.00000380899291485548,0.0028584771789610386,-0.00048098538536578417
1782812100274732800,2.46573291015625,-0.0005171053344383836,-0.00019217375665903091,-0.0018719544168561697
1782812100284803800,2.475803955078125,0.001134339952841401,-0.0006932613905519247,0.002029262948781252
1782812100294875000,2.485875,0.0016235626535490155,-0.00022134929895401,0.001754690776579082
1782812100304946000,2.49594580078125,-0.0003888393985107541,0.0014788745902478695,0.00020884137484245002
1782812100315017000,2.506016845703125,-0.0013989764265716076,0.0018027150072157383,-0.0019038442987948656
1782812100325087700,2.516087646484375,0.0015766758006066084,0.0011247179936617613,0.0018205505330115557
1782812100335157800,2.52615771484375,-0.0020076725631952286,-0.000262256246060133,-0.0005507280584424734
1782812100345228800,2.536228759765625,-0.0002533708466216922,0.0007508664857596159,-0.000883184839040041
1782812100355299800,2.5462998046875,0.0005908511811867356,0.0008597897831350565,-0.0014437802601605654
1782812100365371000,2.556370849609375,-0.0012251248117536306,0.0009406445315107703,-0.0014394688187167048
1782812100375441700,2.566441650390625,0.0012414950178936124,0.0010567583376541734,-0.0010288093471899629
1782812100385512700,2.5765126953125,-0.002246373798698187,0.0012401893036440015,0.0010961591033264995
1782812100395583700,2.586583740234375,0.0031923335045576096,0.00010541640222072601,-0.002928143600001931
1782812100405654800,2.59665478515625,-0.000014865538105368614,0.002157562645152211,-0.001929091871716082
1782812100415725800,2.606725830078125,-0.0009989034151658416,0.0017993676010519266,0.0001708105846773833
1782812100425795800,2.6167958984375,0.0002484022406861186,0.000803764327429235,0.0012595700100064278
1782812100435867000,2.626866943359375,-0.000048806541599333286,-0.0013326234184205532,-0.0008158313576132059
1782812100445938000,2.63693798828125,-0.0010675729718059301,-0.0002968327607959509,-0.0002229987585451454
1782812100456009500,2.647009521484375,-0.001328296260908246,0.0014097208622843027,-0.0012507126666605473
1782812100466080500,2.65708056640625,-0.0005851044552400708,-0.0006748167797923088,-0.0004623104468919337
1782812100476151300,2.6671513671875,-0.001478328718803823,0.00017313356511294842,0.00010680709965527058
1782812100486222300,2.677222412109375,0.0015769628807902336,0.0016894477885216475,0.0010229428298771381
1782812100496293400,2.68729345703125,0.0010208948515355587,-0.0013383000623434782,-0.0007139707449823618
1782812100506363400,2.69736328125,0.00015192932914942503,0.001226689200848341,-0.0011345087550580502
1782812100516434400,2.707434326171875,0.0005215761484578252,0.0019902174826711416,-0.001443701796233654
1782812100526505200,2.717505126953125,0.0017708784434944391,0.002647652756422758,0.0004258426488377154
1782812100536576300,2.727576171875,0.00153545499779284,0.0002686509396880865,-0.0003139834734611213
1782812100546647300,2.737647216796875,0.0005192894604988396,-0.0001231180503964424,0.0021642253268510103
1782812100556718300,2.74771826171875,-0.0004562264075502753,0.0017051419708877802,-0.0006198431947268546
1782812100566789400,2.757789306640625,0.0011215939885005355,-0.0010141788516193628,0.0006047475035302341
1782812100576860400,2.7678603515625,-0.0009889611974358559,0.0007227348396554589,0.0008673351840116084
1782812100586930200,2.77793017578125,-0.00009271153248846531,0.0010645940201357007,0.002188171725720167
1782812100597001200,2.788001220703125,0.0011515173828229308,-0.00005952618084847927,-0.0005942988791503012
1782812100607072300,2.798072265625,0.0014194640098139644,0.0023672592360526323,-0.0018317464273422956
1782812100617143300,2.808143310546875,-0.0008596691768616438,0.0006362046115100384,-0.0021111120004206896
1782812100627214300,2.81821435546875,-0.0019251217599958181,-0.00016204267740249634,-0.00031137955375015736
1782812100637285000,2.82828515625,-0.00003534252755343914,-0.0008203762117773294,0.0005940952687524259
1782812100647356200,2.838356201171875,-0.0007228257600218058,-0.00026702764444053173,-0.0006423239829018712
1782812100657427200,2.84842724609375,0.00021300895605236292,-0.0010705033782869577,-0.0010186287108808756
1782812100667498200,2.858498291015625,-0.0004386710934340954,0.0004648584872484207,0.0017445976845920086
1782812100677568500,2.868568603515625,-0.00012228754349052906,-0.0005873565096408129,-0.0007646325975656509
1782812100687639300,2.878639404296875,-0.000012091477401554585,0.001137612503953278,-0.0018651426071301103
1782812100697710300,2.88871044921875,-0.00030450650956481695,0.0018633239669725299,-0.001888312166556716
1782812100707781400,2.898781494140625,0.0007825967622920871,0.0004970848094671965,-0.0015050016809254885
1782812100717852400,2.908852294921875,0.0012771458132192492,0.0011700656032189727,0.001994924619793892
1782812100727923500,2.91892333984375,0.0018030686769634485,0.0008509851759299636,0.0018796498188748956
1782812100737994500,2.928994384765625,0.0005899989046156406,0.001693875645287335,-0.00018616416491568089
1782812100748065300,2.939065185546875,-0.00011592009104788303,-0.0013506405521184206,-0.0006098202429711819
1782812100758135300,2.94913525390625,-0.0012991625117138028,-0.0004800532478839159,0.0004943263484165072
1782812100768206300,2.959206298828125,-0.0033767432905733585,0.00044032325968146324,-0.0004127831198275089
1782812100778277400,2.96927734375,-0.0003703008405864239,-0.0005615579430013895,-0.000460453680716455
1782812100788348400,2.979348388671875,0.0003690168377943337,-0.0011390172876417637,0.000602601794525981
1782812100798419200,2.989419189453125,-0.0006578981410712004,0.002569700824096799,0.0012446899199858308
1782812100808490200,2.999490234375,0.0010466984240338206,-3.2619573175907135e-7,0.0005996151594445109
1782812100818561300,3.009561279296875,-0.0010430840775370598,0.002124077407643199,-0.0015615400625392795
1782812100828632300,3.01963232421875,-0.001199811464175582,0.00015253946185112,-0.0006652344018220901
1782812100838702300,3.029702392578125,0.0002843682887032628,0.0008966266177594662,0.0002178697905037552
1782812100848773000,3.039773193359375,0.0033295918256044388,-0.0014645212795585394,0.000005065783625468612
1782812100858844200,3.04984423828125,-0.0024145804345607758,0.0011022333055734634,0.0010394376004114747
1782812100868915200,3.059915283203125,0.00027561624301597476,-0.0000214471947401762,0.00017630410729907453
1782812100878986200,3.069986328125,-0.0010668833274394274,-0.00048323930241167545,-0.0008689865935593843
1782812100889057300,3.080057373046875,-0.0000998546602204442,0.0011802943190559745,-0.0003604833036661148
1782812100899128300,3.09012841796875,-0.0019954927265644073,-0.00029030325822532177,-0.001354907639324665
1782812100909199400,3.100199462890625,0.0014160569990053773,-0.0006125345826148987,0.0002003303379751742
1782812100919269400,3.110269287109375,-0.0006793182110413909,0.0013222518609836698,-0.00004787626676261425
1782812100929340400,3.12034033203125,-0.0005026226863265038,-0.00037859915755689144,0.0006785816513001919
1782812100939411500,3.130411376953125,-0.0013942490331828594,-0.00014024623669683933,0.00009215358295477927
1782812100949482500,3.140482421875,0.0006284406408667564,0.0007999833906069398,-0.0009900475852191448
1782812100959553300,3.15055322265625,0.0015957007417455316,0.0011219596490263939,-0.0023125731386244297
1782812100969624300,3.160624267578125,-0.000548952491953969,0.0005247039953246713,-0.0008771768189035356
1782812100979695400,3.1706953125,-0.003068569116294384,0.0008030043682083488,-0.001798364333808422
1782812100989766400,3.180766357421875,0.0013572333846241236,-0.001111562130972743,0.0005359778879210353
1782812100999836400,3.19083642578125,0.0017433917382732034,0.0017286990769207478,0.00025927540264092386
1782812101009907200,3.2009072265625,-0.0009345399448648095,-0.0004350540693849325,-0.0006161790224723518
1782812101019978200,3.210978271484375,-0.0007598366355523467,0.00022674142383038998,-0.00046278093941509724
1782812101030049300,3.22104931640625,0.00013409415259957314,-0.001500030979514122,-0.00016866845544427633
1782812101040120300,3.231120361328125,-0.0008062680717557669,0.0022116166073828936,-0.001935143256559968
1782812101050191400,3.24119140625,-0.00033783994149416685,0.0002154672984033823,-0.0018649061676114798
1782812101060262400,3.251262451171875,-0.001305632758885622,0.0006168056279420853,-0.0005069603794254363
1782812101070333200,3.261333251953125,0.0005399780347943306,0.001528613967821002,0.0008519072434864938
1782812101080404200,3.271404296875,-0.0011652439134195447,0.00010142591781914234,-0.00001681587309576571
1782812101090474200,3.28147412109375,0.00010018458124250174,-0.0012177152093499899,0.0007048893021419644
1782812101100545300,3.291545166015625,0.002309276722371578,-0.0009996022563427687,-0.001283959369175136
1782812101110616300,3.3016162109375,-0.0006512714317068458,0.0018173462012782693,-0.001568451407365501
1782812101120687400,3.311687255859375,-0.0001242317957803607,-0.001378979766741395,-0.001265117316506803
1782812101130758400,3.32175830078125,-0.000056589371524751186,0.00022804958280175924,-0.0005779425846412778
1782812101140829400,3.331829345703125,-0.0013181287795305252,-0.00012082443572580814,0.0005776030011475086
1782812101150900500,3.341900390625,0.0008813544409349561,0.00028924120124429464,0.0008989025955088437
1782812101160971500,3.351971435546875,0.001529567874968052,-0.0018804359715431929,0.001670686760917306
1782812101171041300,3.362041259765625,-0.0010208117309957743,0.0009453160455450416,-0.0007463835645467043
1782812101181112300,3.3721123046875,-0.0007379839662462473,0.0006070946110412478,-0.00007047326653264463
1782812101191183400,3.382183349609375,0.0009258277714252472,-0.0008233715780079365,-0.00006181970820762217
1782812101201254400,3.39225439453125,-0.002025753725320101,0.0015154165448620915,-0.003067995887249708
1782812101211325400,3.402325439453125,-0.00020999100524932146,0.001830684021115303,-0.00036429380998015404
1782812101221396500,3.412396484375,0.0005833647446706891,0.0016988576389849186,-0.00011102718417532742
1782812101231467300,3.42246728515625,0.00045644183410331607,0.0005719608161598444,-0.0004771041567437351
1782812101241538300,3.432538330078125,0.000533673504833132,0.002447625156491995,-0.0009106667712330818
1782812101251608300,3.4426083984375,-0.0006442087469622493,0.0009546099463477731,-0.0007655656663700938
1782812101261679400,3.452679443359375,-0.0006636498728767037,0.00046352308709174395,0.00007093319436535239
1782812101271750100,3.462750244140625,-0.00041551177855581045,0.001051415572874248,-0.0015411374624818563
1782812101281821200,3.4728212890625,0.00024335435591638088,0.0013880390906706452,-0.0003046317142434418
1782812101291892200,3.482892333984375,-0.0019690836779773235,0.0009893507231026888,0.0011057755909860134
1782812101301963300,3.49296337890625,0.0015183257637545466,0.0008322242647409439,0.000022401654860004783
1782812101312034300,3.503034423828125,-0.00024345028214156628,0.0005066645098850131,0.0017640560399740934
1782812101322105300,3.513105224609375,-0.00010203639976680279,0.001139697851613164,-0.001798454555682838
1782812101332175400,3.52317529296875,0.0008490269538015127,0.00035934150218963623,0.000666122417896986
1782812101342246400,3.533246337890625,-0.0008452761685475707,-0.00009472738020122051,0.0009215195896103978
1782812101352317400,3.5433173828125,0.0012517764698714018,-0.001101203029975295,-0.0006125203217379749
1782812101362388500,3.553388427734375,0.0006368525791913271,0.0009512951364740729,0.0019821973983198404
1782812101372459500,3.56345947265625,-0.0009514852426946163,0.0002754863817244768,-0.0023481245152652264
1782812101382530300,3.5735302734375,0.0005859575467184186,0.0013420823961496353,0.00018214472220279276
1782812101392601300,3.583601318359375,0.0013513120356947184,0.0006508715450763702,0.00036688728141598403
1782812101402672400,3.59367236328125,-0.00006469071377068758,0.0015797821106389165,0.0014579843264073133
1782812101412742400,3.603742431640625,-0.0008183475583791733,0.0008879825472831726,-0.0010428823297843337
1782812101422813400,3.6138134765625,-0.0011757437605410814,0.0003385724266991019,0.0015571617987006903
1782812101432884200,3.62388427734375,-0.0019256975501775742,-0.0013988781720399857,0.0011623203754425049
1782812101442955300,3.633955322265625,-0.0013722928706556559,0.0016917200991883874,-0.0015820669941604137
1782812101453026300,3.6440263671875,-0.000509247649461031,0.0007471339777112007,-0.00040945244836620986
1782812101463098000,3.65409814453125,0.0015634906012564898,-0.0014915191568434238,0.00203825905919075
1782812101473169000,3.6641689453125,-0.003259713528677821,-0.0005484872963279486,-0.0019649160094559193
1782812101483240000,3.674239990234375,0.0008729800465516746,0.001401745481416583,-0.001597932307049632
1782812101493310000,3.68431005859375,0.0009009746136143804,-0.0002139005810022354,-0.0005004765698686242
1782812101503381000,3.694381103515625,-0.0006977210287004709,-0.0021532143000513315,0.00020819055498577654
1782812101513452000,3.7044521484375,-0.00012979749590158463,-0.000051086535677313805,-0.0000166448880918324
1782812101523522800,3.714522705078125,0.0012571768602356315,-0.002474030712619424,-0.002824948402121663
1782812101533593900,3.72459375,0.000025268993340432644,-0.0011663248296827078,-0.0013069640845060349
1782812101543665000,3.734664794921875,-0.000056223710998892784,-0.0011894942726939917,0.001708799391053617
1782812101553736000,3.74473583984375,0.0008325094822794199,0.002286255592480302,0.0030238067265599966
1782812101563807000,3.754806884765625,0.00004794227425009012,-0.0007998154032975435,0.0006954051204957068
1782812101573876700,3.764876708984375,0.0038053980097174644,-0.0013550028670579195,-0.0019232099875807762
1782812101583947800,3.77494775390625,0.0013275931123644114,0.0018706177361309528,0.0008304985822178423
1782812101594018800,3.785018798828125,-0.002147457329556346,0.000641477876342833,-4.738976713269949e-7
1782812101604089900,3.79508984375,0.0014629900688305497,-0.002096251817420125,0.001981184119358659
1782812101614161000,3.805160888671875,0.0015016032848507166,-0.0004409407265484333,0.0008466494036838412
1782812101624232000,3.81523193359375,0.0001982522662729025,-0.0007277631666511297,0.0015321470564231277
1782812101634303000,3.825302978515625,0.0003450546646490693,-0.0004677476827055216,0.000989698339253664
1782812101644374000,3.8353740234375,0.0005908644525334239,4.360917955636978e-7,0.0020208742935210466
1782812101654444000,3.845444091796875,-0.0010617768857628107,0.0012562732445076108,0.00006684137042611837
1782812101664515000,3.85551513671875,-0.000658574397675693,0.00008608028292655945,0.00041678070556372404
1782812101674586000,3.865586181640625,0.001016467111185193,0.0015401290729641914,-0.0008307478856295347
1782812101684657000,3.875656982421875,0.0001014049630612135,0.0015593038406223059,-0.00032927465508691967
1782812101694728000,3.88572802734375,0.0002937740064226091,-0.00013305526226758957,0.0007273540832102299
1782812101704799000,3.895799072265625,-0.0032152070198208094,-0.0008129600901156664,0.0017449479782953858
1782812101714870000,3.9058701171875,0.0003056400455534458,0.0008896817453205585,-0.0019810087978839874
1782812101724941000,3.915941162109375,0.0005961909191682935,0.0018694587051868439,0.0008978683035820723
1782812101735010800,3.9260107421875,0.0006139712641015649,0.0003013294190168381,0.002102118916809559
1782812101745081900,3.936081787109375,0.0008685694774612784,-0.00029681669548153877,0.0029998705722391605
1782812101755153000,3.94615283203125,0.00012744416017085314,-0.001580606447532773,0.0008611577213741839
1782812101765224000,3.956223876953125,-0.0030196134466677904,0.002310271840542555,0.00036820658715441823
1782812101775295000,3.966294921875,0.0016870605759322643,0.0001263190060853958,-0.0000367576431017369
1782812101785366000,3.976365966796875,0.000029509072192013264,0.00014496117364615202,-0.0022913897410035133
1782812101795436800,3.986436767578125,0.0027035349048674107,-0.0005074981600046158,-0.0018821076955646276
1782812101805507000,3.996507080078125,-0.000710637541487813,-0.0003096254076808691,0.0009810568299144506
1782812101815577900,4.006577880859375,-0.00015377486124634743,0.00048034568317234516,-0.0007231391500681639
1782812101825649000,4.01664892578125,0.00003877165727317333,-0.0009953118860721588,0.0027528186328709126
1782812101835720000,4.026719970703125,0.0036618546582758427,-0.0013529728166759014,-0.00003738701343536377
1782812101845791000,4.036791015625,-0.0009462130255997181,-0.00022246083244681358,-0.0015338171506300569
1782812101855862000,4.046862060546875,-0.002825334668159485,0.0001389931421726942,-0.0011641234159469604
1782812101865933000,4.05693310546875,-0.0010106568224728107,-0.0006580909248441458,0.002209835220128298
1782812101876004000,4.067004150390625,0.0020667454227805138,-0.0012795401271432638,0.0006124372011981905
1782812101886074000,4.07707421875,-0.0015650073764845729,-0.001679547131061554,0.0018566660583019257
1782812101896145000,4.087144775390625,0.0023256661370396614,-0.0009016043040901423,-0.002959753852337599
1782812101906216000,4.0972158203125,-0.00033642968628555536,0.0011684708297252655,-0.0005953995860181749
1782812101916287000,4.107286865234375,-0.0005667331861332059,-0.0005684231873601675,0.00033576751593500376
1782812101926358000,4.11735791015625,0.0010189128806814551,0.0005381201626732945,-0.00041551023605279624
1782812101936429000,4.127428955078125,-0.00007514760363847017,0.0014068977907299995,-0.0018682059599086642
1782812101946500000,4.1375,0.0003150055417791009,0.001035919412970543,-0.00026604821323417127
1782812101956571000,4.14757080078125,-0.0004098970675840974,0.0011988154146820307,-0.0013557374477386475
1782812101966641000,4.157640869140625,0.0007911885622888803,-0.0002741788048297167,0.0032201057765632868
1782812101976712000,4.1677119140625,0.00039871002081781626,0.00005404790863394737,-0.0006831973441876471
1782812101986783000,4.177782958984375,-0.0022269003093242645,0.0007419423200190067,0.0009482551831752062
1782812101996854000,4.18785400390625,-0.0005718310130760074,0.0009313462069258094,-0.0012211326975375414
1782812102006924800,4.1979248046875,-0.001442684791982174,0.0004037740873172879,-0.00048024137504398823
1782812102016995800,4.207995849609375,-0.002476153429597616,-0.0003710028249770403,-0.0019440855830907822
1782812102027067000,4.21806689453125,0.0005422734539024532,-0.0010402551852166653,-0.001565916696563363
1782812102037138000,4.228137939453125,0.0004753904649987817,0.00057640066370368,-0.0007587216095998883
1782812102047208200,4.238208251953125,0.0003763208515010774,0.0010336653795093298,0.0003853723464999348
1782812102057279000,4.248279052734375,-0.00007793272379785776,-0.0009332897607237101,0.002038161503151059
1782812102067350000,4.25835009765625,-0.0005557037657126784,-0.0014933524653315544,0.0005702270427718759
1782812102077421000,4.268421142578125,0.0009931470267474651,0.0021247658878564835,-0.001254780450835824
1782812102087492000,4.2784921875,-0.0010939722415059805,-0.0027922282461076975,0.0012517867144197226
1782812102097563100,4.288563232421875,-0.002317531034350395,-0.0004954917822033167,0.0022954766172915697
1782812102107634200,4.29863427734375,0.0003632069565355778,0.002419338095933199,0.000018207792891189456
1782812102117705000,4.308705078125,-0.0012170533882454038,-0.0005184845067560673,-0.0007008177344687283
1782812102127775000,4.31877490234375,0.002596593229100108,0.00011934246867895126,0.0006826943717896938
1782812102137846000,4.328845947265625,-0.000011747237294912338,0.0005401261150836945,0.002089640824124217
1782812102147917000,4.3389169921875,-0.001296456204727292,0.00011668354272842407,0.00025259220274165273
1782812102157988000,4.348988037109375,0.0015240022912621498,-0.0002451562322676182,-0.0010603913106024265
1782812102168059000,4.359058837890625,-0.0009780374821275473,0.001141551649197936,-0.00046730530448257923
1782812102178130000,4.3691298828125,-0.001025955192744732,-0.0014631301164627075,0.0010791595559567213
1782812102188201000,4.379200927734375,0.0002009631134569645,-0.0006663124077022076,-0.0009733387851156294
1782812102198271000,4.38927099609375,-0.0013175024650990963,0.001541664358228445,0.001236778567545116
1782812102208341800,4.399341796875,0.0007789378869347274,-0.0012804875150322914,0.00021865207236260176
1782812102218412800,4.409412841796875,0.001367614371702075,0.0013705826131626964,-0.0006551771657541394
1782812102228483800,4.41948388671875,0.001188649912364781,-0.001673676772043109,0.0016303476877510548
1782812102238555000,4.429554931640625,0.0007466842071153224,0.0004073448944836855,-0.001146793132647872
1782812102248626000,4.4396259765625,0.000041212886571884155,0.0005695313448086381,-0.0017505318392068148
1782812102258697000,4.449697021484375,-0.001209508627653122,-0.0002482219133526087,0.0021735760383307934
1782812102268768000,4.45976806640625,0.000881871790625155,0.000994408968836069,0.0000017680868040770292
1782812102278838000,4.469838134765625,-0.0017619588179513812,0.002795788459479809,-0.0008898872183635831
1782812102288909000,4.479908935546875,0.0002452656626701355,-0.00005645700730383396,0.0006693936884403229
1782812102298980000,4.48997998046875,0.00052271579625085,-0.0024831262417137623,0.002612075302749872
1782812102309051100,4.500051025390625,0.0015605497173964977,-0.00032782997004687786,0.0016860940959304571
1782812102319122000,4.510121826171875,0.0008645521011203527,-0.00017802231013774872,-0.0004852554411627352
1782812102329193000,4.52019287109375,0.0008752047433517873,-0.0004291585646569729,-0.00004823072231374681
1782812102339264000,4.530263916015625,-0.0023942505940794945,-0.0011254632845520973,0.0005242377519607544
1782812102349335000,4.5403349609375,0.0013280498096719384,-0.0009100136812776327,0.0005069272592663765
1782812102359405000,4.550405029296875,0.0000641773222014308,0.0005040989490225911,-0.00008220749441534281
1782812102369475800,4.560475830078125,0.0005821622326038778,-0.002626180648803711,-0.0004920680075883865
1782812102379547000,4.570546875,0.0006625741953030229,-0.00075007532723248,-0.00034333084477111697
1782812102389618000,4.580617919921875,0.0004809466190636158,-0.0005308971740305424,0.0010479044867679477
1782812102399689000,4.59068896484375,-0.001017048372887075,-0.0015011304058134556,-0.0004352750547695905
1782812102409760000,4.600760009765625,0.000505747040733695,-0.00040603848174214363,-0.00018174211436416954
1782812102419831000,4.6108310546875,0.0005374231259338558,-0.0010827695950865746,0.00148769561201334
1782812102429901800,4.62090185546875,-0.0014002928510308266,-0.0013717224355787039,0.00038141844561323524
1782812102439971800,4.630971923828125,-0.00012770050670951605,-0.0007311156950891018,0.00019681881531141698
1782812102450043000,4.64104296875,-0.000653941067866981,-0.0012171424459666014,-0.0007102538365870714
1782812102460113200,4.651113037109375,0.0014505846193060279,0.00009462214075028896,0.0032669573556631804
1782812102470184200,4.66118408203125,-0.0007318760035559535,-0.0008984706364572048,0.0013593350304290652
1782812102480255200,4.671255126953125,-0.0005208966322243214,-0.0005061652045696974,-0.000003706489223986864
1782812102490326300,4.681326171875,0.00032652117079123855,-0.0012827429454773664,0.0001321147137787193
1782812102500397000,4.69139697265625,-0.0015537069411948323,-0.00135682406835258,0.0010502856457605958
1782812102510467000,4.701467041015625,-0.0005949689075350761,0.00004426506347954273,-0.0029111665207892656
1782812102520538000,4.7115380859375,0.0006234191823750734,-0.0011482946574687958,0.0015661056386306882
1782812102530609200,4.721609130859375,-0.0008288024691864848,0.0015428296755999327,-0.00015536166029050946
1782812102540680200,4.73168017578125,0.00012207834515720606,-0.0014764394145458937,0.0016082534566521645
1782812102550751000,4.7417509765625,0.0004384619533084333,0.002030411036685109,0.00064871646463871
1782812102560822000,4.751822021484375,0.0014422399690374732,0.0014358449261635542,0.0005351017462089658
1782812102570893000,4.76189306640625,0.0011687333462759852,-0.00027789920568466187,-0.00039247723179869354
1782812102580964000,4.771964111328125,0.0007783754845149815,0.00022066407836973667,0.000836423016153276
1782812102591034000,4.7820341796875,-0.00020033621694892645,0.0010547660058364272,-0.0010419045574963093
1782812102601105000,4.79210498046875,-0.001519310986623168,0.001161989290267229,-0.0015841226559132338
1782812102611176000,4.802176025390625,-0.00014219037257134914,0.0009340227115899324,0.003391727339476347
1782812102621247000,4.8122470703125,-0.001198990037664771,0.000063685467466712,-0.00030626775696873665
1782812102631318000,4.822318115234375,-0.0004032375290989876,0.0005393259925767779,-0.00167326838709414
1782812102641389000,4.83238916015625,0.0006260080263018608,0.000467354548163712,-0.0011638414580374956
1782812102651460000,4.842460205078125,0.0016742282314226031,0.0010793489636853337,-0.001058646710589528
1782812102661530000,4.852530029296875,0.00044684455497190356,0.0007747245253995061,-0.0007699512061662972
1782812102671601200,4.86260107421875,-0.0019518646877259016,0.0003451566444709897,-0.0008623629109933972
1782812102681672200,4.872672119140625,-0.0006799937691539526,0.0006465072510764003,0.00017110395128838718
1782812102691743200,4.8827431640625,-0.002338077872991562,-0.0005907975137233734,0.0012518147705122828
1782812102701814300,4.892814208984375,0.001747811445966363,0.001315415371209383,-0.0008341281209141016
1782812102711885000,4.902885009765625,-0.0000681981910020113,-0.0020902350079268217,-0.00047859607730060816
1782812102721956000,4.9129560546875,0.0001254627713933587,-0.00027789222076535225,-0.00041659382986836135
1782812102732027100,4.923027099609375,-0.0003808041801676154,0.0006408982444554567,-0.0007399015594273806
1782812102742097200,4.93309716796875,0.0016754649113863707,0.0006675932090729475,0.00040183018427342176
1782812102752168200,4.943168212890625,-0.0003016658592969179,0.0015062226448208094,-0.000597387901507318
1782812102762239000,4.953239013671875,0.0016655863728374243,0.0010562532115727663,-0.00026843708474189043
1782812102772310000,4.96331005859375,-0.0006114162970334291,-0.0009789345785975456,0.00008363279630430043
1782812102782381000,4.973381103515625,0.0031945062801241875,-0.0009052015375345945,-0.0019803564064204693
1782812102792452000,4.9834521484375,0.00010284269228577614,0.002211229642853141,-0.00217343564145267
1782812102802523100,4.993523193359375,-0.0002809100551530719,0.0021639151964336634,0.0013598967343568802
1782812102812594200,5.00359423828125,0.00027222849894315004,0.0005545669700950384,-0.0013770340010523796
1782812102822664000,5.013663818359375,-0.0002866322174668312,-0.000009029870852828026,0.00104418583214283
1782812102832735000,5.02373486328125,0.0006374846561811864,0.0027244386728852987,-0.00027274733292870224
1782812102842806000,5.033805908203125,-0.0009243803797289729,-0.0004550179000943899,-0.0006313172634691
1782812102852877000,5.043876953125,-0.0014650021912530065,-0.0004784537013620138,-0.0005503571592271328
1782812102862948000,5.053947998046875,0.0010865870863199234,-0.003278963267803192,0.0006797881796956062
1782812102873019000,5.064018798828125,0.00013903435319662094,-0.0010035585146397352,0.0015522397588938475
1782812102883090000,5.07408984375,0.0005325944512151182,0.0022725113667547703,-0.000056797522120177746
1782812102893160200,5.08416015625,-0.0034437712747603655,0.0028243183623999357,-0.0023817371111363173
1782812102903231200,5.094231201171875,0.0006030678632669151,0.0010762786259874701,0.000055031327065080404
1782812102913302300,5.10430224609375,-0.001521335681900382,-0.001182081876322627,-0.0027862952556461096
1782812102923373000,5.114373046875,0.00008779787458479404,0.002570045879110694,0.0016227313317358494
1782812102933444000,5.124444091796875,-0.00004775705747306347,0.0006640214705839753,0.002299440558999777
1782812102943515100,5.13451513671875,0.0004994797054678202,-0.00021040672436356544,0.00039185606874525547
1782812102953586200,5.144586181640625,0.0006313062040135264,0.001082025351934135,0.0004997140495106578
1782812102963657200,5.1546572265625,-0.0006414816016331315,-0.0022830870002508163,0.0017091170884668827
1782812102973727000,5.16472705078125,-0.0000979304313659668,0.0006410636706277728,-0.0004427171661518514
1782812102983798000,5.174798095703125,0.0016751186922192574,-0.0014353380538523197,0.0006372976349666715
1782812102993869000,5.184869140625,0.0006045278860256076,-0.00041055353358387947,-0.0009661916410550475
1782812103003940000,5.194940185546875,-0.00039818359073251486,0.0008640842279419303,0.000713581102900207
1782812103014011100,5.20501123046875,-0.0001947181299328804,0.0006366502493619919,-0.0001594031200511381
1782812103024082200,5.215082275390625,-0.0016440533800050616,-0.0011238402221351862,0.002144297817721963
1782812103034153000,5.225153076171875,0.0010228361934423447,-0.0018921620212495327,0.0028628187719732523
1782812103044223000,5.235222900390625,-0.0002818899229168892,0.0007524393731728196,0.0002295177837368101
1782812103054294000,5.2452939453125,0.00010240415576845407,0.0005204780027270317,-0.0014152504736557603
1782812103064365000,5.255364990234375,-0.0004487213445827365,-0.00016050995327532291,-0.0008212020620703697
1782812103074436000,5.26543603515625,-0.0007398049347102642,-0.0019325772300362587,-0.0013333279639482498
1782812103084507000,5.2755068359375,-0.000679834745824337,0.0005142997251823545,-0.0007635268848389387
1782812103094578000,5.285577880859375,0.0017918450757861137,0.0005422629183158278,-0.0007558036595582962
1782812103104649000,5.29564892578125,0.0011601699516177177,0.002552333055064082,0.0004229197802487761
1782812103114720000,5.305719970703125,-0.00027101277373731136,0.0014308758545666933,0.0005052114138379693
1782812103124788000,5.3157880859375,-0.0019562612287700176,0.0011895934585481882,-0.0007275658426806331
1782812103134859000,5.32585888671875,0.00044836412416771054,-0.001045530429109931,0.0005134019302204251
1782812103144930000,5.335929931640625,-0.0011072719935327768,0.0005950552877038717,-0.0017828242853283882
1782812103155000000,5.346,-0.0005131206708028913,0.000640328973531723,-0.0014845503028482199
1782812103165071000,5.356071044921875,0.0013038190081715584,-0.0011487817391753197,-0.0007358466973528266
1782812103175142100,5.36614208984375,0.0015237961197271943,0.0021705820690840483,0.0010649828473106027
1782812103185213200,5.376213134765625,0.0024837011005729437,-0.001341826282441616,0.0008436983916908503
1782812103195284200,5.3862841796875,-0.00003058928996324539,0.0014089527539908886,-0.0002649756206665188
1782812103205355300,5.396355224609375,-0.0000497475266456604,-0.0010422994382679462,0.0009397381218150258
1782812103215426000,5.406426025390625,0.0012898225104436278,0.00034520740155130625,0.001074227737262845
1782812103225496000,5.41649609375,0.0006700523081235588,-0.00117555633187294,0.0008249040110968053
1782812103235567000,5.426567138671875,0.0005779069615527987,-0.00045304070226848125,0.0006930775125510991
1782812103245638100,5.43663818359375,0.00046414887765422463,0.0006831688806414604,0.000057765893870964646
1782812103255709200,5.446709228515625,0.001426082686521113,0.0008355017052963376,-0.0024016634561121464
1782812103265780000,5.456780029296875,-0.0012900169240310788,-0.0007416049484163523,0.00019826646894216537
1782812103275851000,5.46685107421875,-0.00107856176327914,-0.0004680983256548643,-0.0017493031919002533
1782812103285922000,5.476922119140625,0.0012580225011333823,0.0004000378539785743,-0.0006642824737355113
1782812103295993000,5.4869931640625,0.000031370436772704124,0.000738792004995048,-0.0010227439925074577
1782812103306063000,5.49706298828125,0.0027235611341893673,0.002457148628309369,-0.00008681061444804072
1782812103316134000,5.5071337890625,-0.0002402709797024727,-0.0013088274281471968,-0.0011414224281907082
1782812103326205000,5.517204833984375,0.000982987810857594,-0.0002348087728023529,-0.0009612693684175611
1782812103336276000,5.52727587890625,0.0012216070899739861,0.00023950031027197838,0.00009786980808712542
1782812103346347000,5.537346923828125,0.0003444500034675002,0.0007950660074129701,-0.0007830060785636306
1782812103356418000,5.54741796875,0.0013862786581739783,0.0015783016569912434,0.0018724319525063038
1782812103366489000,5.557489013671875,0.00014329818077385426,0.0004063136875629425,-0.0013810215750709176
1782812103376559000,5.56755908203125,0.00008390971925109625,0.00046916434075683355,0.00030502575100399554
1782812103386630100,5.577630126953125,-0.0008071779739111662,0.0016739063430577517,0.0005811453447677195
1782812103396701200,5.587701171875,-0.0010428675450384617,-0.0022657078225165606,0.0008400046499446034
1782812103406772200,5.597772216796875,0.0007113286410458386,-0.00023454171605408192,-0.00034868624061346054
1782812103416843300,5.60784326171875,0.00019361008889973164,0.0015199488261714578,0.0004345494380686432
1782812103426914000,5.6179140625,-0.0004890360869467258,-0.0001713342498987913,-0.00008243179763667285
1782812103436985000,5.627985107421875,-0.0010301903821527958,0.00014398409985005856,-0.00033916052780114114
1782812103447055000,5.63805517578125,0.002422667806968093,0.0018969959346577525,0.0032349461689591408
1782812103457126100,5.648126220703125,-0.0002841691020876169,0.003799824509769678,0.002118815202265978
1782812103467197700,5.65819775390625,0.0008338907500728965,0.018543660640716553,-0.0054497187957167625
1782812103477268700,5.668268798828125,0.0006914116092957556,0.02563485875725746,0.0018646531971171498
1782812103487339500,5.678339599609375,-0.0009545665234327316,-0.014673923142254353,-0.0007032587309367955
1782812103497410600,5.68841064453125,0.0013581225648522377,-0.0030534854158759117,0.0009183400543406606
1782812103507481600,5.698481689453125,-0.0009910345543175936,0.004692890681326389,-0.0009861817816272378
1782812103517553700,5.7085537109375,0.0016992907039821148,-0.011892477050423622,-0.000826392148155719
1782812103527624700,5.718624755859375,0.0003334492212161422,-0.014788283035159111,-0.0031589411664754152
1782812103537695700,5.72869580078125,0.0009491720702499151,0.007391588296741247,0.0012003871379420161
1782812103547766800,5.738766845703125,0.0016445997171103954,-0.0015259317588061094,-0.0031723137944936752
1782812103557837600,5.748837646484375,-0.0003754078643396497,-0.0042993477545678616,-0.0014298075111582875
