time,seconds_elapsed,z,y,x
1782661210828326400,0.081326416015625,-0.8489093236982822,-0.21813750481642782,-0.25108481178097425
1782661210838397200,0.091397216796875,-0.6729512837678193,-0.10705503796562552,-0.18753310771621762
1782661210848467500,0.101467529296875,-0.3975239848256111,-0.034219957248866555,-0.11146204075291752
1782661210858538500,0.11153857421875,-0.11759294472336769,-0.05934139289334416,-0.07237067807540297
1782661210868609500,0.121609619140625,0.09534253447055815,-0.14779285267591474,-0.08566153680309653
1782661210878679300,0.13167919921875,0.14974866291880606,-0.22580285181254148,-0.1333450059328228
1782661210888750300,0.141750244140625,0.021983283749222753,-0.35204584372043607,-0.25797924746982753
1782661210898820400,0.1518203125,-0.11063538067042827,-0.48370486932769413,-0.3766550189938396
1782661210908891400,0.161891357421875,-0.06583586947917938,-0.6224692699607461,-0.4667045616228133
1782661210918962400,0.17196240234375,0.04789455459713936,-0.7279338969297706,-0.5207135805122554
1782661210929032400,0.182032470703125,0.10258476068377494,-0.7919644705526531,-0.496045879984647
1782661210939103500,0.192103515625,0.04981237091720104,-0.7751992867778986,-0.43804998341612517
1782661210949173500,0.202173583984375,-0.04422960234880447,-0.7211715631879866,-0.4515709976378828
1782661210959244300,0.212244384765625,-0.11953648000657557,-0.7119622016202658,-0.42005869191251693
1782661210969315300,0.2223154296875,-0.16535189024209976,-0.6996366807933896,-0.3665197747528553
1782661210979385300,0.23238525390625,-0.15916998673677443,-0.6683596451286226,-0.31684929652437566
1782661210989456400,0.242456298828125,-0.0676823741286993,-0.6139381729807705,-0.23900435175634918
1782661210999526100,0.252526123046875,0.04741583116948604,-0.5787832729693502,-0.1457787363745272
1782661211009597200,0.26259716796875,0.07382394562363624,-0.5772540906406939,-0.09677074064277112
1782661211019668200,0.272668212890625,-0.07054127069115639,-0.5712959859538823,-0.0818362794265151
1782661211029738500,0.282738525390625,-0.2964677488833666,-0.6164985249880701,-0.08704013167992233
1782661211039809500,0.2928095703125,-0.4068810112357139,-0.582265196800977,-0.08298632624447345
1782661211049879300,0.30287939453125,-0.34123160423934457,-0.44182219543121753,-0.0235552092410624
1782661211059950300,0.312950439453125,-0.2822200278222561,-0.19730792114697396,0.09668715401254593
1782661211070021400,0.323021484375,-0.2348532964915037,0.032907851736992594,0.2433241877168417
1782661211080091400,0.33309130859375,-0.19658815550506115,0.19125556230545043,0.3444584573313594
1782661211090162200,0.343162109375,-0.1113660330325365,0.26610212897509333,0.3188309718608856
1782661211100232400,0.353232421875,0.05410393063127994,0.21606932024024425,0.2387816489163786
1782661211110303500,0.363303466796875,0.1561573609173298,0.07213482349291443,0.1486760652512312
1782661211120374500,0.37337451171875,0.21049276221692562,-0.10011420585177838,-0.02840827529542148
1782661211130444300,0.3834443359375,0.23495500330030916,-0.2504635380774736,-0.19329934309273958
1782661211140515300,0.393515380859375,0.34980127966403957,-0.35189109155014153,-0.35091135979779065
1782661211150585300,0.40358544921875,0.4305453799396753,-0.37946167391240593,-0.4377835875649005
1782661211160656400,0.413656494140625,0.5307897149771451,-0.32410036363117395,-0.4693696891788393
1782661211170726400,0.423726318359375,0.7009861226409674,-0.2239836735613644,-0.38439390615019947
1782661211180797400,0.43379736328125,0.6692524292498827,-0.16600670088902114,-0.24336605409719048
1782661211190868500,0.443868408203125,0.4639157346218824,-0.17787154540158806,-0.17407324909716843
1782661211200938500,0.4539384765625,0.3802683141201734,-0.22859956985898314,-0.12383472518976778
1782661211211009300,0.46400927734375,0.30922201651632786,-0.24232012524083255,-0.026314846680127083
1782661211221079300,0.474079345703125,0.22763678924143313,-0.18481931871287524,0.09375742070358246
1782661211231150300,0.484150390625,0.1253618251591921,-0.11948913373351096,0.1789627016391605
1782661211241221400,0.494221435546875,-0.06816460468769073,-0.06148008542247116,0.24776560423038899
1782661211251291400,0.50429150390625,-0.28024785096645355,0.026177885894849894,0.3563071909593418
1782661211261362400,0.514362548828125,-0.5650865368545055,0.11111446942426263,0.4955779702119529
1782661211271432400,0.524432373046875,-0.9795148947298526,0.17349464549161492,0.5374002191580831
1782661211281503500,0.53450341796875,-1.2638245883077381,0.2539622669134289,0.5230727108590305
1782661211291574500,0.544574462890625,-1.2983785998165607,0.3298752207055688,0.49168501789402214
1782661211301644300,0.554644287109375,-1.1822978132218123,0.412947763928771,0.5347427999844774
1782661211311715300,0.56471533203125,-0.9298241043657064,0.4433861568123102,0.5511471510902047
1782661211321785300,0.574785400390625,-0.5944435642421245,0.35418424398861825,0.509830075187236
1782661211331856100,0.584856201171875,-0.2687906374067068,0.1774478400968015,0.4198207915034145
1782661211341927200,0.59492724609375,-0.015616086804866789,0.028619287697598337,0.34113833646532143
1782661211351997400,0.60499755859375,0.11487900958955287,-0.09233421950004994,0.23018892140965908
1782661211362068500,0.615068359375,0.2627607095927,-0.14426124448366462,0.13536043740846215
1782661211372138200,0.62513818359375,0.48992637419104573,-0.11246376514136791,0.12706504888050257
1782661211382209300,0.635209228515625,0.7268377722561359,-0.11355353313945234,0.23810868155825882
1782661211392280300,0.6452802734375,0.8991992489993572,-0.0620697218786925,0.3464957718452438
1782661211402350300,0.655350341796875,0.9096773883938789,-0.03411920028813183,0.37738059332203117
1782661211412421400,0.66542138671875,0.7432751123160123,-0.06693520902320742,0.3494706960028037
1782661211422491400,0.675491455078125,0.5310545033931732,-0.10540383669249713,0.3267546044670045
1782661211432562400,0.6855625,0.5063660523384809,-0.12830299317762256,0.30185411809682844
1782661211442632400,0.695632568359375,0.48082829097807406,-0.2264053477503359,0.2770435750324279
1782661211452703500,0.705703369140625,0.37748774349093434,-0.37779512893967326,0.12010470834858715
1782661211462774300,0.715774169921875,0.29784137532413,-0.5112750132985413,-0.03634213703460991
1782661211472844300,0.72584423828125,0.2510048053473234,-0.6114569506242871,-0.07979702868387102
1782661211482915300,0.735915283203125,0.0682879388064146,-0.6579086129367351,-0.10151369738616049
1782661211492985300,0.7459853515625,-0.10637129348516464,-0.618673896265775,-0.12622640609927474
1782661211503056400,0.756056396484375,-0.17562895410656928,-0.5697421075753867,-0.09490238948762417
1782661211513127400,0.76612744140625,-0.29870822128653524,-0.5794321653321385,-0.048964814177155494
1782661211523197400,0.776197509765625,-0.33162089532911776,-0.5239917254000902,-0.024273367447778582
1782661211533268500,0.7862685546875,-0.2689215703099966,-0.5126210210800171,-0.028959041045978663
1782661211543338200,0.796338134765625,-0.13561492362618446,-0.5437928428046405,-0.06305471432805061
1782661211553409300,0.8064091796875,0.011291209343075752,-0.5959469545423984,-0.048530222152173515
1782661211563480300,0.816480224609375,0.2145756476163864,-0.5810460302695631,-0.03135499627180397
1782661211573550300,0.82655029296875,0.38703123238384723,-0.5603942873850465,0.04890110129117965
1782661211583621400,0.836621337890625,0.3658253627479076,-0.5230734415113926,0.10671046231165528
1782661211593691100,0.846691162109375,0.13960019387006758,-0.4934178695686161,0.09094408031590283
1782661211603762200,0.85676220703125,-0.2547603584885597,-0.5164380951501428,-0.0004101151708513498
1782661211613833200,0.866833251953125,-0.5905091474026442,-0.44422026954889293,-0.1122098634455353
1782661211623903200,0.8769033203125,-0.676404054570198,-0.2954913050666451,-0.11489661831147968
1782661211633974300,0.886974365234375,-0.5326455719769001,-0.1612868327602744,-0.043827670484408734
1782661211644044300,0.897044189453125,-0.15275076734423637,-0.03745119425505399,0.13765775456540286
1782661211654115300,0.907115234375,0.2124585093319416,0.038746348632127045,0.37894671012759207
1782661211664186000,0.91718603515625,0.40911096224486826,-0.08615794201791285,0.446855951814726
1782661211674256100,0.927256103515625,0.20499708741009234,-0.22873861300349235,0.4276254739049822
1782661211684327200,0.9373271484375,-0.19809505293667315,-0.2560759711317718,0.4403815681688487
1782661211694397200,0.947397216796875,-0.24406185434162617,-0.19644465538114309,0.43098325990028674
1782661211704468200,0.95746826171875,0.031544308298826214,-0.17895239944085478,0.5389049976978451
1782661211714539300,0.967539306640625,0.266811446288228,-0.2288862047806382,0.6988252182800322
1782661211724609000,0.977609130859375,0.44554830328226086,-0.32439664316400885,0.7820205111000686
1782661211734680000,0.98768017578125,0.528936196064949,-0.2766413509070873,0.9070509123478084
1782661211744750300,0.997750244140625,0.53389527977705,-0.10912176123708486,1.0512927945438773
1782661211754821400,1.0078212890625,0.5637181711107492,0.11343816313147544,1.2418883585706353
1782661211764892200,1.01789208984375,0.5823661729574203,0.2914505052432418,1.3573026440806686
1782661211774962200,1.027962158203125,0.4975128837972879,0.41518472920060157,1.4300591066032646
1782661211785033200,1.038033203125,0.32620237741172314,0.4943687405526638,1.4479735334783792
1782661211795103200,1.048103271484375,0.0770586897611618,0.5229911700554192,1.379437611260265
1782661211805174000,1.058174072265625,-0.12562369096577167,0.46109410132989287,1.2252234202999621
1782661211815245000,1.0682451171875,-0.24871347953975198,0.31715763182118534,0.9638432783454656
1782661211825315300,1.0783154296875,-0.24322306542992592,0.02277107312604785,0.614613514959067
1782661211835386400,1.088386474609375,-0.06697101098895072,-0.28440847777724265,0.26013627937324346
1782661211845456100,1.0984560546875,0.15037176325321197,-0.5293621663920581,0.022285116240009666
1782661211855527200,1.108527099609375,0.32295477379262444,-0.6696957891032099,-0.09805654266960918
1782661211865597200,1.11859716796875,0.41309798605442044,-0.7357239662840962,-0.14836743769347666
1782661211875668200,1.128668212890625,0.43570320109426974,-0.7218919864170252,-0.2007227710917592
1782661211885739000,1.138739013671875,0.46948330562114715,-0.6825052940547466,-0.27327282432205974
1782661211895809300,1.148809326171875,0.506544916036725,-0.6602249270550906,-0.3491059178110212
1782661211905880300,1.15888037109375,0.5088479322820901,-0.7056986842460929,-0.36807752558887
1782661211915950300,1.168950439453125,0.42273207584023476,-0.7839581280991434,-0.42530974430851637
1782661211926021000,1.179021240234375,0.22009470329880712,-0.8612285609148442,-0.4633023519638926
1782661211936092200,1.189092041015625,-0.015731237617135047,-0.8762370372153818,-0.3787269298970699
1782661211946162200,1.199162109375,-0.3601864800781011,-0.8236489179745315,-0.19175591304302214
1782661211956233200,1.209233154296875,-0.5611807615876198,-0.7638144808672368,-0.06174012459814548
1782661211966303200,1.21930322265625,-0.5348077184468507,-0.727168757776171,0.051363692012429234
1782661211976374300,1.229374267578125,-0.3117547498643398,-0.7438005974948406,0.18488339692503214
1782661211986445300,1.2394453125,0.050119244909286494,-0.8125779272533953,0.33860995049886405
1782661211996515300,1.249515380859375,0.41530221810042856,-0.9081875882275402,0.4468810131907463
1782661212006586400,1.25958642578125,0.5715612858265638,-0.9598726211488247,0.4749696280777454
1782661212016656100,1.26965625,0.5273930582761764,-0.9492224861882627,0.4428917974241078
1782661212026727200,1.27972705078125,0.528759085932374,-1.0050294213451445,0.385497227749601
1782661212036798200,1.289798095703125,0.5064098914802074,-1.110067420399934,0.3384159622967243
1782661212046868000,1.299867919921875,0.3636702305406332,-1.1355011368639767,0.2909481086790561
1782661212056939000,1.30993896484375,0.23540099350214003,-1.1357992430277168,0.2469413553006947
1782661212067009300,1.32000927734375,0.20413959379792213,-1.0759373333916067,0.2683213393945247
1782661212077080300,1.330080322265625,0.2122393136233091,-1.0495090529322624,0.32997809655815363
1782661212087150000,1.340150146484375,0.16581483157873153,-1.057975998634845,0.3745825235687196
1782661212097221000,1.35022119140625,0.03888824132084846,-1.0386858994923531,0.43800855542719364
1782661212107292200,1.360292236328125,-0.15062076957821846,-0.9760792211927473,0.4755250700034201
1782661212117362200,1.370362060546875,-0.22520926983356473,-0.8958258270435034,0.5162028250895441
1782661212127433200,1.38043310546875,-0.12967092052996157,-0.8308562190048396,0.5729004254758358
1782661212137503200,1.390503173828125,-0.006644844841957092,-0.7633594305761158,0.5988175415426492
1782661212147574300,1.40057421875,0.10333587131202221,-0.758456899356842,0.6112910925380886
1782661212157645300,1.410645263671875,0.19382512053251266,-0.7697275043033063,0.6057967329055071
1782661212167715300,1.42071533203125,0.2721767727136612,-0.8080499284349382,0.563597467340529
1782661212177786000,1.4307861328125,0.3874631940603256,-0.8014091752462088,0.5529254128091037
1782661212187856100,1.440856201171875,0.49444765100777144,-0.8014514069527388,0.5848661730796099
1782661212197927200,1.45092724609375,0.4761164600253105,-0.8033207079559564,0.62177887654379
1782661212207998200,1.460998291015625,0.3679670509517193,-0.83334058316648,0.5725877062648534
1782661212218068200,1.471068115234375,0.29324527970552444,-0.895282221686095,0.4898175069890916
1782661212228139300,1.48113916015625,0.22149755583405492,-0.9391146414108574,0.4135480679094791
1782661212238209300,1.491209228515625,0.158139474645257,-0.9383284594692289,0.3697204704903066
1782661212248280300,1.5012802734375,0.1528530586749315,-0.9397034010842442,0.3731004683174193
1782661212258350000,1.51135009765625,0.10439619401991367,-0.9256827667772769,0.3952693377666175
1782661212268421000,1.521421142578125,-0.06874795753359794,-0.8855646914005278,0.4188759849339723
1782661212278492200,1.5314921875,-0.28208091161251064,-0.8374068096920847,0.4394634304106235
1782661212288562200,1.541562255859375,-0.45762686361074445,-0.7813188656367361,0.4404164933517575
1782661212298633200,1.55163330078125,-0.4975923787742853,-0.7519855113856494,0.4070326946660876
1782661212308703200,1.561703125,-0.5434691638082265,-0.7606964949771762,0.398414650055021
1782661212318774300,1.571774169921875,-0.6088304015129804,-0.8008360515333711,0.3727314888745546
1782661212328845300,1.58184521484375,-0.7723416323244571,-0.8014251034677028,0.34719723464548585
1782661212338915000,1.5919150390625,-0.9909428821951151,-0.7722362722538412,0.29598785641193387
1782661212348986000,1.601986083984375,-1.0877578273057937,-0.7039641155384481,0.27715353821292515
1782661212359056100,1.61205615234375,-1.217791151407361,-0.5939014201894403,0.3353879927776754
1782661212369127200,1.622127197265625,-1.419312087139487,-0.462965302029252,0.32794644460007544
1782661212379198200,1.6321982421875,-1.6079115819782017,-0.3594362462326884,0.25686156855151054
1782661212389268200,1.642268310546875,-1.7351041296958922,-0.28522797746658324,0.15885712139531968
1782661212399339300,1.65233935546875,-1.7653209887832402,-0.2302181840367615,0.0817100226983428
1782661212409409300,1.6624091796875,-1.6591799969226122,-0.26446239894405005,0.006250584827363491
1782661212419480000,1.67247998046875,-1.42311147942245,-0.31763109455183147,-0.0674190470173955
1782661212429550000,1.682550048828125,-1.224048458236456,-0.36358211386576295,-0.1002425814718008
1782661212439621000,1.69262109375,-1.0970552324831484,-0.364257967300713,-0.13016221117824314
1782661212449692200,1.702692138671875,-0.9540227260768412,-0.32929084494635463,-0.21021146105751393
1782661212459762200,1.71276220703125,-0.840099409776926,-0.28672347672134635,-0.23385259501636027
1782661212469833200,1.722833251953125,-0.7800356939584017,-0.20429303079396485,-0.27019159024581313
1782661212479903200,1.7329033203125,-0.6621452275931835,-0.10566782139092683,-0.2967699467003345
1782661212489974300,1.742974365234375,-0.4587222576320171,-0.009192045106738805,-0.3356548270203173
1782661212500045300,1.75304541015625,-0.16793956864774226,0.10084770775809883,-0.36659064803197977
1782661212510115000,1.763114990234375,0.09544599484503269,0.22126140899062155,-0.3452858480662107
1782661212520186000,1.77318603515625,0.33243571884334083,0.32135683707669377,-0.3367885072253644
1782661212530256400,1.78325634765625,0.6255833833932877,0.4142977172330022,-0.294306333065778
1782661212540327400,1.793327392578125,0.8964666091650724,0.39897842141762374,-0.24052710434421895
1782661212550397200,1.803397216796875,1.1785200482487679,0.3507897061794996,-0.3449991400793195
1782661212560468200,1.81346826171875,1.4474953945726154,0.38545243875980373,-0.3948340150892734
1782661212570539300,1.823539306640625,1.6575217083215712,0.4056270656518638,-0.38007965968027707
1782661212580609000,1.833609130859375,1.7818290559917687,0.37097339316084976,-0.3476673363752663
1782661212590680300,1.843680419921875,1.7986673780679703,0.3352471230022609,-0.25892887634485956
1782661212600750000,1.85375,1.6902835757166146,0.3109498632222414,-0.20092019336000083
1782661212610821000,1.863821044921875,1.515017025181651,0.23706498119160532,-0.10726926523819565
1782661212620892200,1.87389208984375,1.3458224880367518,0.10832198916152119,0.013434358851611613
1782661212630962400,1.88396240234375,1.2036626728117465,-0.011208207234740256,0.16711787700131533
1782661212641033500,1.894033447265625,0.9639783029019832,-0.16423998347744345,0.32656974941939115
1782661212651103200,1.904103271484375,0.5242079984992742,-0.2078537920154631,0.42334114764928815
1782661212661174300,1.91417431640625,0.028030747219920157,-0.13621391243264078,0.45698359727114435
1782661212671244300,1.924244384765625,-0.34160862085819244,0.00596110036149621,0.4197264642834663
1782661212681315300,1.9343154296875,-0.5905699376791715,0.11677768281772732,0.40590646711513395
1782661212691386000,1.94438623046875,-0.7112982578188181,0.08610971896201372,0.3609713468454778
1782661212701456400,1.954456298828125,-0.6168266609638929,-0.08292436692416667,0.26071386006548997
1782661212711527400,1.96452734375,-0.35045185252726074,-0.4213749621428549,0.03966945482641458
1782661212721597400,1.974597412109375,0.01321837801337242,-0.8575358438767492,-0.2758262351319194
1782661212731668200,1.984668212890625,0.44511458804011345,-1.103002888841182,-0.49366366102322934
1782661212741739300,1.9947392578125,0.7725386162012815,-1.136902089703083,-0.5033638017825782
1782661212751809300,2.004809326171875,1.067885252100229,-1.0329599230609834,-0.3811069569014013
1782661212761880300,2.01488037109375,1.3087281443953513,-0.9313735257647932,-0.2503513098746538
1782661212771950300,2.024950439453125,1.3648352315425871,-0.8738577408634126,-0.15595402036495506
1782661212782021400,2.035021484375,1.2142635618031024,-0.7786589987777173,-0.10110781999900936
1782661212792091400,2.04509130859375,1.1566519153118133,-0.6423850267209112,0.020445845048874617
1782661212802162400,2.055162353515625,1.1454781948685646,-0.5833981463536619,0.1398345140825957
1782661212812233200,2.065233154296875,1.1207295380592346,-0.6015722470782697,0.1995725050780922
1782661212822303200,2.07530322265625,1.232064006909728,-0.6327073900543153,0.21773075064644215
1782661212832374300,2.085374267578125,1.2983207321494816,-0.6375310108184814,0.2968783755108714
1782661212842444500,2.095444580078125,1.1926111174434422,-0.6635641544803976,0.4726972992315888
1782661212852515300,2.105515380859375,1.2015963879317044,-0.7696504935443401,0.6490659657895564
1782661212862586400,2.11558642578125,1.1371832447320223,-0.8680353183202445,0.772661146602407
1782661212872656400,2.125656494140625,0.9761667533457279,-0.9590608663745224,0.803071044043824
1782661212882727400,2.1357275390625,0.9503513440877198,-1.010664212361723,0.8475658732000738
1782661212892797200,2.145797119140625,1.0147475361526013,-1.0574870460741221,0.9042201459012925
1782661212902868200,2.1558681640625,0.8865046025991439,-1.107710043618828,0.9313289559707045
1782661212912938200,2.165938232421875,0.4550368471175432,-1.1373701456062495,0.8678380421824753
1782661212923009300,2.17600927734375,-0.055980245897173875,-1.192844633938372,0.756163966114074
1782661212933080300,2.186080322265625,-0.4344190065026283,-1.2899066856779158,0.6036313715651631
1782661212943150300,2.196150390625,-0.7312947516649961,-1.4461488022692501,0.44105815225616096
1782661212953221400,2.206221435546875,-0.9075070586174726,-1.7002696938104926,0.24014818802922963
1782661212963291400,2.21629150390625,-1.0964712951153517,-1.9406712720789014,-0.0029980127722024916
1782661212973362200,2.226362060546875,-1.171395310935378,-2.1544684826686975,-0.23849954403936863
1782661212983432200,2.23643212890625,-1.0309960756421088,-2.4158956055700775,-0.5011855809606611
1782661212993503200,2.246503173828125,-0.7714923220187425,-2.8060791645050047,-0.8303131981693208
1782661213003574300,2.25657421875,-0.4378957427024841,-3.192910490402579,-1.3517138841629028
1782661213013644300,2.266644287109375,-0.2925619736164808,-3.271026580262184,-1.8901999988615512
1782661213023715300,2.27671533203125,-0.5083125102311372,-2.5974288152843714,-1.8815277398452162
1782661213033785300,2.286785400390625,-1.100459487968683,-1.4405965749695897,-1.011911801270023
1782661213043856400,2.2968564453125,-1.8769640851914882,-0.5005998900271952,0.1420157305791974
1782661213053927400,2.306927490234375,-2.7357144194245335,0.20510537009015678,0.9750833420231938
1782661213063997200,2.3169970703125,-3.547929796975851,0.6510134465955197,1.2982787927038968
1782661213074068200,2.327068115234375,-3.888869724792242,1.0183810703493654,1.3652408897340298
1782661213084138500,2.337138427734375,-3.5591824278742075,1.2729586196169256,1.3670768729895353
1782661213094209500,2.34720947265625,-2.7599861063718794,1.2753734256736933,1.3353338272482156
1782661213104279300,2.357279296875,-1.9289543846696615,1.2287277020938694,1.2528345538683234
1782661213114350300,2.367350341796875,-1.0657751280784606,1.2385891708947718,0.9894615575961768
1782661213124421400,2.37742138671875,-0.22770459378063676,1.2453010896235703,0.6434075016364454
1782661213134491100,2.3874912109375,0.3576601764708757,1.1756427392467856,0.22836619949452577
1782661213144562200,2.397562255859375,0.7016945631712674,1.1277144285105167,-0.16375746065750718
1782661213154632400,2.407632568359375,1.0552291841447352,1.2467898668766022,-0.30504553454928096
1782661213164703500,2.417703369140625,1.5907243003338574,1.3821657210499048,-0.2455095689319074
1782661213174774500,2.4277744140625,1.8960726902872322,1.3457669584572314,-0.17241664099656046
1782661213184844300,2.43784423828125,1.9300608846068381,1.2161299401968717,-0.2505092038501054
1782661213194915300,2.447915283203125,1.9154180267482994,1.002159272736311,-0.3597412935938686
1782661213204985300,2.4579853515625,2.0025456905812025,0.8164043536737561,-0.3753733816854656
1782661213215056400,2.468056396484375,2.1974825717478987,0.7434487153172492,-0.14702837110944092
1782661213225126100,2.478126220703125,2.3336253186404705,0.7754545036479831,0.16978249310068785
1782661213235197200,2.488197265625,2.376758357924223,0.7519102541923522,0.43490182158350943
1782661213245268200,2.498268310546875,2.2872271400809288,0.6431007737748324,0.507777307375893
1782661213255338500,2.50833837890625,2.0262556519925594,0.5819315809324384,0.5000587688878179
1782661213265409300,2.5184091796875,1.6718910099357365,0.6136335640110075,0.5061871155750006
1782661213275479300,2.528479248046875,1.2529945667356253,0.6278900529004633,0.5537603292632848
1782661213285550300,2.53855029296875,0.7205237668037414,0.7417461491830647,0.5424732115734369
1782661213295620000,2.5486201171875,0.19192425534725188,0.7548837170451879,0.4184842822026461
1782661213305691100,2.558691162109375,-0.21734160519838333,0.6821598416179419,0.21731815125755966
1782661213315762200,2.56876220703125,-0.4837959086120128,0.5368287028804422,0.016275281365960837
1782661213325832400,2.57883251953125,-0.5763660557597875,0.32310236556977034,-0.12351166724786161
1782661213335903500,2.588903564453125,-0.5052765035361051,0.05189297658354044,-0.25427871245145794
1782661213345973200,2.59897314453125,-0.4380927265793085,-0.2091600523084402,-0.34068178833685814
1782661213356044300,2.609044189453125,-0.5568412710785865,-0.41999081430807705,-0.44904805503152306
1782661213366114300,2.6191142578125,-0.6917243732988834,-0.5269477987267077,-0.46566900802999733
1782661213376185300,2.629185302734375,-0.6526087529629468,-0.4897032329596579,-0.38029688262753186
1782661213386256100,2.639256103515625,-0.3351888169437647,-0.4264017042636871,-0.23385865943096576
1782661213396326400,2.649326416015625,-0.016001871252059936,-0.3581546819895506,0.015327844448015092
1782661213406397400,2.6593974609375,0.18090718677043913,-0.25604206886216996,0.17917181434519588
1782661213416467500,2.669467529296875,0.33498540332615373,-0.1217906886741519,0.3267046278454363
1782661213426538200,2.679538330078125,0.5891179853051901,-0.09798018949776888,0.45332997013442217
1782661213436609300,2.689609375,0.7156184591054916,-0.13074556402415036,0.5539760909058153
1782661213446679300,2.69967919921875,0.8560627025842666,-0.2227894953407347,0.627019042219594
1782661213456750300,2.709750244140625,1.0004583140373229,-0.3726508248537779,0.6682183369617909
1782661213466820400,2.7198203125,1.1186755281388758,-0.43078678748011584,0.7346345636121928
1782661213476891400,2.729891357421875,1.2323182739317415,-0.4410512841239571,0.8273048101335764
1782661213486961400,2.73996142578125,1.3455711436241864,-0.5148341670848429,0.9720126293409616
1782661213497032400,2.750032470703125,1.2869728241831064,-0.6872098184838891,0.9955158891990781
1782661213507103200,2.760103271484375,0.9672808515787124,-0.8467112291321158,0.8455641049236059
1782661213517173200,2.77017333984375,0.5989730243653059,-0.9239810774259268,0.6887665464065968
1782661213527244300,2.780244384765625,0.35066695658266545,-0.9968306250594555,0.6198078687317669
1782661213537314300,2.790314208984375,0.09667524437904357,-1.0596044766195118,0.5555863025814295
1782661213547385000,2.800385009765625,-0.09454173948168754,-1.0975421392172575,0.4465367297977209
1782661213557455400,2.810455322265625,-0.09711597388386725,-1.1886647179052232,0.3781375857017934
1782661213567526400,2.8205263671875,-0.0315016382008791,-1.2945957202769816,0.3443979593157768
1782661213577597400,2.830597412109375,0.02543254742026329,-1.338329063541442,0.40250659554377194
1782661213587666700,2.840666748046875,0.04484159676730633,-1.2841624429374932,0.47139498446136713
1782661213597737700,2.85073779296875,0.06487257740497589,-1.2027809215411542,0.5986984452076256
1782661213607807700,2.860807861328125,0.05166179817616939,-1.161505492822826,0.6528970683850348
1782661213617878800,2.870878662109375,0.029897125613689422,-1.1118981429584325,0.6262148131646216
1782661213627948800,2.88094873046875,-0.051854105877876276,-1.1339774344280362,0.5334178715236485
1782661213638019800,2.891019775390625,-0.30364392412304875,-1.1827401501618324,0.42988852346614
1782661213648091000,2.9010908203125,-0.6136912855476141,-1.2135539522290228,0.3547916352972388
1782661213658160600,2.91116064453125,-0.9324152899026871,-1.2407096701800822,0.2483462536625564
1782661213668231700,2.921231689453125,-1.3325269531339405,-1.2948879812218248,0.06706599579602479
1782661213678301700,2.9313017578125,-1.8140847274303435,-1.3865578185290097,-0.22541399862542746
1782661213688372700,2.941372802734375,-2.319045004624128,-1.346222885531187,-0.5542746354609728
1782661213698442800,2.95144287109375,-2.6045021146714684,-1.22119416478388,-0.8000972158648073
1782661213708513800,2.961513671875,-2.604195240679383,-1.3232462068304418,-1.0397963449522851
1782661213718584800,2.971584716796875,-2.2531050902485847,-1.5646249595679342,-1.4066006357349454
1782661213728654600,2.981654541015625,-1.6959247964739799,-1.889377868823707,-1.8430210451878606
1782661213738725600,2.9917255859375,-1.3800918373852968,-2.3412059830278156,-2.080737622155994
1782661213748795600,3.001795654296875,-1.4836825602412222,-2.5995880391448734,-2.0564234112411737
1782661213758866700,3.01186669921875,-1.9185873044341801,-2.3995821841508147,-1.8969798682600258
1782661213768937700,3.021937744140625,-2.405147417062521,-1.6776183015413582,-1.608115726248175
1782661213779007700,3.0320078125,-2.769122183507681,-0.6920889688275754,-1.039788307776302
1782661213789078800,3.042078857421875,-2.970136338761449,0.14362966858185827,-0.4232617988027632
1782661213799148800,3.052148681640625,-2.8479806161671877,0.8805812769647687,0.12435776268318295
1782661213809219800,3.0622197265625,-2.3967408232450484,1.3562652638569472,0.6537377569928765
1782661213819289600,3.07228955078125,-1.8600988751083611,1.5216763369403778,0.9969524978734552
1782661213829360600,3.082360595703125,-1.5714245565801859,1.5480807981327176,1.0522421311579644
1782661213839431700,3.092431640625,-1.1282049885064362,1.5747709443986415,0.8357656183563172
1782661213849502000,3.102501953125,-0.48871407579183573,1.4729887322694062,0.6447650537252426
1782661213859572700,3.11257275390625,0.17457739922702312,1.423097304766625,0.6006811434574425
1782661213869642800,3.122642822265625,0.8258224626213312,1.4574911572776734,0.6225193196475506
1782661213879713800,3.1327138671875,1.3182628654599189,1.5271226196475327,0.6517902761869132
1782661213889783600,3.142783447265625,1.5014941112637519,1.600710272297263,0.6435856346823274
1782661213899854600,3.1528544921875,1.433139536961913,1.610360874826461,0.5523338766567408
1782661213909925600,3.162925537109375,1.23648006978631,1.5887795960068702,0.4615884607180953
1782661213919996000,3.172995849609375,1.0162935965508222,1.6493486309990286,0.3558178365398198
1782661213930067000,3.18306689453125,0.797616358834505,1.6766547172062098,0.23977453241124747
1782661213940136700,3.19313671875,0.6706821697920561,1.6376668149031697,0.19900033121332525
1782661213950207700,3.203207763671875,0.7009393608897924,1.5414872450865804,0.21066044693402944
1782661213960277800,3.21327783203125,0.833653886899352,1.4907276564471423,0.27080679953470826
1782661213970348800,3.223348876953125,0.9635381579190492,1.4669754633292555,0.3761593444313854
1782661213980419600,3.233419677734375,1.1005383984237909,1.3036172311224044,0.4846584437254816
1782661213990489600,3.243489501953125,1.1712485959410668,0.9779621123299002,0.4105775276660919
1782661214000560600,3.253560546875,0.9445230763256549,0.5651854671843349,0.14233962877131998
1782661214010631000,3.263630859375,0.5885398931562901,0.12736395876184106,-0.19783559828288852
1782661214020701700,3.27370166015625,0.3336661374211311,-0.2704763985365629,-0.5054609932575375
1782661214030771700,3.283771728515625,0.24333120197951794,-0.5126343189530075,-0.7019914272259921
1782661214040842800,3.2938427734375,0.25578853249251843,-0.6379094887420534,-0.8364861877158284
1782661214050913800,3.303913818359375,0.3159825966924429,-0.7142037700019777,-0.8653751592002809
1782661214060983600,3.313983642578125,0.268973008236289,-0.7134069205358624,-0.9008362756166607
1782661214071054600,3.3240546875,0.23126374756693838,-0.7327144092045724,-0.9416249437313526
1782661214081124900,3.334124755859375,0.3298030322521925,-0.7243294426970184,-0.8815643697179854
1782661214091196000,3.34419580078125,0.5515174457073211,-0.6568604190580547,-0.7855564301412552
1782661214101265700,3.354265625,0.7617109327167272,-0.5660360926643013,-0.6302474296815693
1782661214111336700,3.364336669921875,0.996096027174592,-0.45251624259874224,-0.45265608946084973
1782661214121407700,3.37440771484375,1.3422481366813181,-0.19102599133327602,-0.23176453669592736
1782661214131477800,3.384477783203125,1.6662871985793113,0.09512216971814631,-0.002672762873210013
1782661214141548500,3.394548583984375,1.8543273059695957,0.3141181179948151,0.2085774301148951
1782661214151618800,3.404618896484375,1.8986364032953977,0.4722517474211752,0.39254645214136685
1782661214161689900,3.41468994140625,1.9308570034205912,0.5046618787690997,0.5131716407001018
1782661214171759900,3.424759765625,1.9217676880359649,0.45578985744193196,0.6164616270437836
1782661214181830700,3.43483056640625,1.7244319290339947,0.2908312043011188,0.6306594445485622
1782661214191901700,3.444901611328125,1.3940133952319622,0.1328891519241035,0.5594109754361212
1782661214201971700,3.4549716796875,1.2191665314137934,0.08324073939695954,0.48856429205760354
1782661214212042800,3.465042724609375,1.150352522906661,-0.062329030402004715,0.427146092890203
1782661214222112800,3.47511279296875,0.9387696273654699,-0.33141835849434137,0.3286656257200986
1782661214232183800,3.485183837890625,0.43348494052290915,-0.5909229889005422,0.1038286963302642
1782661214242253800,3.49525390625,-0.09108663059175014,-0.8094383140534162,-0.17173479621224105
1782661214252324900,3.505324951171875,-0.4670657230854034,-1.0012328055411577,-0.33143713626004756
1782661214262395600,3.515395751953125,-0.7621312039554119,-1.1449521251678465,-0.4834869157280773
1782661214272465700,3.525465576171875,-0.9109539842009544,-1.2828934459149837,-0.5849668569751083
1782661214282536700,3.53553662109375,-0.9229454507678747,-1.4238400859579443,-0.6434878733962774
1782661214292606700,3.545606689453125,-0.874846313509345,-1.5550073825255035,-0.7415094178177416
1782661214302677500,3.555677490234375,-0.910053820490837,-1.667274163790047,-0.7899789958238601
1782661214312747800,3.565747802734375,-1.0062737223178149,-1.7494918437495826,-0.9324594213053583
1782661214322818800,3.57581884765625,-1.0145680879324674,-1.9090277411893009,-1.1771218718886374
1782661214332889900,3.585889892578125,-0.9913467868208885,-2.0551067756846546,-1.4986214784368872
1782661214342959600,3.595959716796875,-0.8038356717407703,-2.07705703394711,-1.7885805760785936
1782661214353030700,3.60603076171875,-0.6946329542219638,-1.7636182765185833,-1.9360867207676171
1782661214363100700,3.6161005859375,-0.8363619768142699,-0.9741016375094652,-1.6445250102348625
1782661214373171700,3.626171630859375,-0.889693754029274,0.1346308810248971,-0.7486953837990761
1782661214383241700,3.63624169921875,-0.9118009564191103,0.965487538421154,0.3874819718260318
1782661214393312800,3.646312744140625,-0.960127472692728,1.1964715922638773,1.2275745865359902
1782661214403383800,3.6563837890625,-1.0061907202094793,1.2049246555715798,1.5494577855743468
1782661214413453800,3.666453857421875,-1.0071043279230594,1.2301307007595896,1.314883890546113
1782661214423524900,3.67652490234375,-1.0618646766364574,1.3344196350127457,0.8769706852521747
1782661214433594600,3.6865947265625,-1.1692302418559788,1.473358442364633,0.5612394329722971
1782661214443665700,3.696665771484375,-0.9257610927104949,1.5818690859660505,0.4809419074203819
1782661214453736000,3.70673583984375,-0.2821183210134506,1.6306895232364533,0.6929280500002205
1782661214463806700,3.716806640625,0.41575522256493563,1.499384864024818,0.8764534564450382
1782661214473877800,3.726877685546875,0.6907815394908189,1.4118199778184295,0.9675601069115102
1782661214483947800,3.73694775390625,0.6252285786062479,1.449201029446721,0.9716099668242036
1782661214494018800,3.747018798828125,0.4760585923582315,1.5290096024379134,0.858763997432217
1782661214504088600,3.757088623046875,0.32650106809735296,1.6140528612121938,0.6807233060088008
1782661214514159600,3.76715966796875,0.2631938403129577,1.6847110362812876,0.5359784792592749
1782661214524230000,3.77722998046875,0.2634837631702423,1.6977730546891687,0.4613146122127771
1782661214534301000,3.787301025390625,0.3545107725292444,1.739062219671905,0.4792892083099112
1782661214544372000,3.7973720703125,0.6447761596411467,1.769940757538378,0.5695958675051108
1782661214554441700,3.807441650390625,0.9890817644983529,1.7292045502632856,0.6453257563479244
1782661214564512800,3.8175126953125,1.2591057430922985,1.597025446304679,0.6376731957681476
1782661214574582800,3.827582763671875,1.37074182523787,1.411677062216401,0.5140019175117835
1782661214584654300,3.837654296875,1.4069488646507262,1.2295213366895914,0.40858153154328464
1782661214594724000,3.84772412109375,1.3795119916707277,1.088995552407205,0.3238700620066374
1782661214604795100,3.857795166015625,1.2476491140544415,0.8884341093569993,0.2512739046122879
1782661214614865400,3.867865478515625,0.8361410275399684,0.6390851083926856,0.06844112007413058
1782661214624936400,3.8779365234375,0.2557055303841829,0.3101156043551862,-0.2647237898265943
1782661214635007200,3.88800732421875,-0.3643354164510965,-0.07325067578032612,-0.7025681311354041
1782661214645077200,3.8980771484375,-0.9457534949034452,-0.4279794749744236,-1.0975505417194218
1782661214655148300,3.908148193359375,-1.4190835390806198,-0.5677041720069944,-1.3381490307994186
1782661214665218300,3.91821826171875,-1.6348416744798422,-0.5163689754366875,-1.3891250386685132
1782661214675289000,3.9282890625,-1.5309733037263153,-0.35614027342721816,-1.0995272486198693
1782661214685359400,3.938359375,-1.164890166825056,-0.2166981927283108,-0.5202415060210973
1782661214695430400,3.948430419921875,-0.6642781479686498,-0.057837710332125425,0.12503383531384168
1782661214705501400,3.95850146484375,-0.31582302221655845,0.12762728587314487,0.6805920077793299
1782661214715571200,3.9685712890625,0.03507774312198162,0.21317469477728007,1.0179360299956053
1782661214725642200,3.978642333984375,0.4558896645545959,0.24154168821424243,1.2638649203181267
1782661214735712300,3.988712158203125,0.7949474318861961,0.2744708750002086,1.5398932538934051
1782661214745783300,3.998783203125,0.9865244812309741,0.3598698153443634,1.774257597824186
1782661214755853000,4.00885302734375,1.1709206791609525,0.39944852314740414,1.9245850835442542
1782661214765924000,4.018924072265625,1.282310677590966,0.38283831073865293,1.9866955027595161
1782661214775995100,4.0289951171875,1.189094049233198,0.33795521291717884,1.9119073882788418
1782661214786065400,4.0390654296875,1.0767594634294508,0.25787206076830627,1.7947762158483265
1782661214796136200,4.04913623046875,0.9495289217889309,0.1097410621792078,1.6850334001034497
1782661214806206200,4.059206298828125,0.9341104033827781,-0.059830345454066985,1.527678646095097
1782661214816277200,4.06927734375,0.9016302755385637,-0.24793577316552398,1.4009741741552948
1782661214826347300,4.07934716796875,0.8971434855133295,-0.40795740829557176,1.2936217606782912
1782661214836418000,4.08941796875,0.9259259278833866,-0.5455770958729088,1.1319308040965348
1782661214846489000,4.099489013671875,0.9683265612393617,-0.7058136889278889,0.878449598698318
1782661214856559400,4.109559326171875,1.0052928945869206,-0.950418271844089,0.5363934532683342
1782661214866630400,4.11963037109375,1.0594155299186705,-1.2740756409481167,0.09231142314635217
1782661214876700200,4.1297001953125,0.949261795285344,-1.6161501257523894,-0.49124892803169784
1782661214886771200,4.139771240234375,0.7072703174769878,-2.0283770280607043,-1.1684700711384415
1782661214896841200,4.14984130859375,0.38168461065888404,-2.27012768285051,-1.734933157043159
1782661214906912300,4.159912353515625,-0.09767711489796638,-2.2377289496794344,-2.0246607840165494
1782661214916983000,4.169983154296875,-0.5733312181085348,-1.9701098402701318,-1.8983324519127607
1782661214927053300,4.18005322265625,-0.9547212297350167,-1.611104971192032,-1.4215382387563584
1782661214937124400,4.190124267578125,-1.2631670011818408,-1.3046731699161231,-0.8357959404293447
1782661214947194400,4.2001943359375,-1.5077672001838682,-1.0182217881344258,-0.4288153412766754
1782661214957265200,4.21026513671875,-1.5735954708784818,-0.7978006293602288,-0.11002777016609906
1782661214967335200,4.220335205078125,-1.4871096120804548,-0.727702864652872,0.07785144757404923
1782661214977406200,4.23040625,-1.3203899406164883,-0.71270739396438,0.20965236587002872
1782661214987476200,4.240476318359375,-1.0189268676638603,-0.7048366605892777,0.2566869426369667
1782661214997547300,4.25054736328125,-0.8682909005165099,-0.7476913213230669,0.18032529522925614
1782661215007618300,4.260618408203125,-0.7588029363155364,-0.7784658142931759,-0.06293532573208213
1782661215017688300,4.270688232421875,-0.6606663872122764,-0.8336525717251002,-0.3883335471540689
1782661215027759400,4.28075927734375,-0.7377595637649297,-0.9598568390578031,-0.7225086570106446
1782661215037829000,4.2908291015625,-1.028053007927537,-1.1176108215168117,-0.9884371829845011
1782661215047900200,4.300900146484375,-1.2976824342459439,-1.21334498565346,-1.1698000045679509
1782661215057970200,4.31097021484375,-1.5657365740716456,-1.161411238668114,-1.2080299281105398
1782661215068041200,4.321041259765625,-1.8370096759438514,-1.0072788077071309,-1.160567773581296
1782661215078112000,4.331112060546875,-1.8666326607912778,-0.808483789807558,-1.0566842052586376
1782661215088182300,4.341182373046875,-1.7387772652506828,-0.5958600069113076,-0.89211630500108
1782661215098253300,4.35125341796875,-1.6102221970081327,-0.4010689639560878,-0.6893903773933648
1782661215108323300,4.3613232421875,-1.3908984780818223,-0.03339161666594446,-0.3468924064800143
1782661215118394000,4.37139404296875,-1.074673889327049,0.5881731056705117,0.07835194444209337
1782661215128464100,4.381464111328125,-0.728055331352353,1.1854831652596591,0.5926375377334654
1782661215138535200,4.39153515625,-0.508171055933833,1.4161178211428225,1.1443985829383134
1782661215148606200,4.401606201171875,-0.3046978170901537,1.441077051962912,1.5194159907929599
1782661215158676200,4.41167626953125,-0.18120003223717213,1.4159391035750508,1.670875403152406
1782661215168747300,4.421747314453125,-0.3522761453449726,1.3782567309126257,1.7062306480415164
1782661215178817300,4.4318173828125,-0.6340320627868176,1.3799967064477503,1.621680579611659
1782661215188888300,4.441888427734375,-0.9025801236093044,1.2642981971688567,1.331769412764907
1782661215198958000,4.4519580078125,-1.1275789655625819,1.0873938162989913,0.8866106933221221
1782661215209029000,4.462029052734375,-1.1195102253973483,0.9831979671567678,0.48554026806131
1782661215219100200,4.47210009765625,-0.8434487202048301,0.8629077461734413,0.17522884887307882
1782661215229170400,4.48217041015625,-0.5773235026150941,0.7592281759902835,-0.05042933377176523
1782661215239241200,4.4922412109375,-0.3147410721987486,0.7124452358968556,-0.27612930973172184
1782661215249311200,4.502311279296875,0.08776946886777877,0.664148237978667,-0.45175314927175636
1782661215259382300,4.51238232421875,0.44299218905866145,0.652778994963318,-0.45603521050512785
1782661215269452300,4.522452392578125,0.5758189432710409,0.7268488781720399,-0.3548286063067615
1782661215279523000,4.532523193359375,0.5743482861965894,0.8722596580170094,-0.1880838004015386
1782661215289593300,4.54259326171875,0.564837530529499,1.0459376241862772,-0.06946151263043283
1782661215299664400,4.552664306640625,0.6013830081164837,1.1997829087689518,0.08392199965938925
1782661215309735400,4.5627353515625,0.5486871907174586,1.2904046983279287,0.196346894095093
1782661215319805200,4.57280517578125,0.3928787893682718,1.2920289385288952,0.2225423887118697
1782661215329876200,4.582876220703125,0.29516894124448295,1.2043944942176341,0.26210911381617186
1782661215339946200,4.5929462890625,0.275976164996624,1.0236689476244152,0.2603178464852273
1782661215350017300,4.603017333984375,0.33424539861381053,0.7836684975028038,0.18177476338520646
1782661215360087000,4.613087158203125,0.4926607675909996,0.5051389947615563,0.11666048617884515
1782661215370158000,4.623157958984375,0.7997223912030458,0.19990283301100134,0.016522972516715525
1782661215380229000,4.63322900390625,1.1449497870802878,-0.07529635626375675,-0.14541647893339393
1782661215390299400,4.64329931640625,1.3526415204018354,-0.2541355045884848,-0.30689430422112346
1782661215400370200,4.6533701171875,1.3507295493006706,-0.3476310960181057,-0.46103594140186904
1782661215410440200,4.663440185546875,1.3109475740104912,-0.45563875853344793,-0.5053519068598747
1782661215420511200,4.67351123046875,1.326282505786419,-0.5786981519691645,-0.5535739398457109
1782661215430581200,4.683581298828125,1.2504086418956517,-0.73383786027655,-0.549623740915209
1782661215440652000,4.693652099609375,1.087434586700797,-0.8892433799132704,-0.5736313700988889
1782661215450722300,4.703722412109375,0.6739911482095718,-0.9171956550695002,-0.5355231732398271
1782661215460793300,4.71379345703125,0.14541384858489037,-0.7810882717512547,-0.40875528067499395
1782661215470864400,4.723864501953125,-0.09610241292715072,-0.6445024572663008,-0.27652532331198454
1782661215480934100,4.73393408203125,0.0014677344650030136,-0.5155968220204115,-0.08096125015765428
1782661215491005200,4.744005126953125,0.2958312045454979,-0.3604775719791651,0.07831190469264984
1782661215501075200,4.7540751953125,0.6544763004004955,-0.2537462130099535,0.1675543687224388
1782661215511146200,4.764146240234375,0.9379302539318799,-0.21719722829163074,0.21072554805949328
1782661215521216300,4.77421630859375,1.1386392887592316,-0.30015169809311626,0.2256336327254772
1782661215531287300,4.784287353515625,1.2109008073717356,-0.4082598983734846,0.18543080167472362
1782661215541358300,4.7943583984375,1.18871761713624,-0.5586584035031498,0.13772738573551177
1782661215551428400,4.804428466796875,1.0935568689733743,-0.7583372184999286,0.06944719184413552
1782661215561499400,4.81449951171875,1.0428384891271592,-0.9707342069029807,0.026872663225978612
1782661215571569200,4.824569091796875,0.9363438615232705,-1.1761615024238825,-0.012605360681563616
1782661215581640200,4.83464013671875,0.7878361385762691,-1.3683802106730638,-0.10918737381920218
1782661215591710200,4.844710205078125,0.5355512302905321,-1.5384326798215509,-0.2269270335368812
1782661215601781200,4.85478125,0.22640344805419443,-1.6285487118154762,-0.2995923106446862
1782661215611851300,4.864851318359375,-0.08335340599119663,-1.6161643004082142,-0.3754986155003309
1782661215621922300,4.87492236328125,-0.2747393166780472,-1.5278303295254707,-0.3568544130459428
1782661215631993300,4.884993408203125,-0.36474691986143587,-1.3746575373768806,-0.07471446472257376
1782661215642063000,4.89506298828125,-0.5178583372116089,-1.32196741906628,0.153096512041986
1782661215652134100,4.905134033203125,-0.5531225428164005,-1.3814233782500027,0.12312062210366129
1782661215662204200,4.9152041015625,-0.6165916831642388,-1.419956960914284,-0.006384148079156876
1782661215672275200,4.925275146484375,-0.9146043234020471,-1.4680949688784777,-0.19420564428269863
1782661215682345200,4.93534521484375,-1.1876777526944875,-1.4751169764697551,-0.32046091115027664
1782661215692416300,4.945416259765625,-1.3339637079387903,-1.580948756250739,-0.44492564133927226
1782661215702487300,4.9554873046875,-1.484915901428461,-1.9353975694596766,-0.7256655136063694
1782661215712557300,4.965557373046875,-1.503745105060935,-2.368423806429654,-1.1237636450581252
1782661215722628400,4.97562841796875,-1.2803618816107512,-2.8034087762519717,-1.6316748810119925
1782661215732698000,4.985697998046875,-0.7870885350793599,-2.9163685082167383,-2.0550005388312043
1782661215742769200,4.99576904296875,-0.6494213550984859,-2.3036636033579705,-1.9871718880996108
1782661215752839400,5.00583935546875,-1.1146826591104269,-1.184819002262503,-1.3629836123265324
1782661215762910200,5.01591015625,-1.8066764970004558,-0.031095103226602076,-0.4403523420743644
1782661215772980200,5.025980224609375,-1.996076786828041,0.5158740315265953,0.2237966996219009
1782661215783051300,5.03605126953125,-1.8270248730242251,0.4871415657781064,0.4500479527890682
1782661215793122300,5.046122314453125,-1.7387351796746253,0.41629780500903724,0.4084459224648773
1782661215803192000,5.056192138671875,-1.6609230411976574,0.7371013921171427,0.397842110864073
1782661215813263000,5.06626318359375,-1.6244307551026342,1.1798545117229222,0.48273741253502667
1782661215823333400,5.07633349609375,-1.5220990923970936,1.5243815042458473,0.5590918995495885
1782661215833404400,5.086404296875,-1.3407137667208908,1.8040196988813577,0.614640549096465
1782661215843474200,5.09647412109375,-1.085896125087142,2.07528476357758,0.676980393153429
1782661215853545200,5.106545166015625,-0.770616708227992,2.340286968486756,0.7046979827709495
1782661215863616300,5.1166162109375,-0.3182850284159183,2.4781892723977563,0.6476532494474202
1782661215873686300,5.126686279296875,0.10288520493507385,2.5911846601977944,0.49813766463212666
1782661215883757300,5.13675732421875,0.5342524226516485,2.743373409745097,0.4171744417130947
1782661215893827000,5.1468271484375,0.9613532150954007,2.8311545690506694,0.4409557878602296
1782661215903898000,5.156898193359375,1.4000234493017196,2.817432917690277,0.5191381478890776
1782661215913968400,5.166968505859375,1.7049895619392395,2.7888731781601903,0.5642996973257511
1782661215924039200,5.1770390625,1.881815032353997,2.7414287054181097,0.5386478811316192
1782661215934109200,5.187109130859375,1.8796879571974277,2.711820041356981,0.4837126873079687
1782661215944180200,5.19718017578125,1.7138929993629455,2.7530454934537407,0.43614078879393636
1782661215954251300,5.207251220703125,1.4935861146181821,2.7125661835491655,0.3587543283831328
1782661215964321000,5.217321044921875,1.3223229545056818,2.5226766488999126,0.2015476776085794
1782661215974392000,5.22739208984375,1.1610615484476088,2.2743585984185337,0.013863544049113987
1782661215984462300,5.23746240234375,1.0447107127398252,1.9819730042822659,-0.15840331321321427
1782661215994533400,5.247533447265625,0.94149233032763,1.634749173890799,-0.232118610830605
1782661216004603100,5.25760302734375,0.8600392049998045,1.3458401698239146,-0.24155644739195703
1782661216014674200,5.267674072265625,0.8859744412451982,1.143679328753054,-0.26985892422534524
1782661216024744200,5.277744140625,0.8720289180010556,0.8894852258451282,-0.2957888997737318
1782661216034815200,5.287815185546875,0.608642769986391,0.6653624360740185,-0.3123510352570563
1782661216044886300,5.29788623046875,0.24084347681701182,0.5814239236712455,-0.3226614899344742
1782661216054956300,5.307956298828125,0.10934943251311778,0.5102120602421463,-0.3757775785721838
1782661216065025300,5.318025390625,0.19627543629407881,0.4513284941188991,-0.38021504956297575
1782661216075096000,5.328095947265625,0.38218905304968354,0.4259058835707605,-0.2221718018338084
1782661216085166300,5.338166259765625,0.6030430502831936,0.4108103135086596,0.1144032818365842
1782661216095237400,5.3482373046875,0.7727654106944799,0.2522403384916484,0.36755299025811256
1782661216105307400,5.358307373046875,0.8645435306817293,0.06849325212016702,0.39917920468673107
1782661216115378200,5.368378173828125,0.7889467301666736,-0.12127747845500707,0.2915463668331504
1782661216125448200,5.3784482421875,0.5630857184261083,-0.25658085191398855,0.13274952425770462
1782661216135519200,5.388519287109375,0.3641752574533224,-0.3162529380664229,0.05862389227375388
1782661216145590300,5.39859033203125,0.11888006192445755,-0.29392653996795415,0.16517631447948514
1782661216155660000,5.408659912109375,-0.06802782656550407,-0.20900120848491788,0.35436391140446066
1782661216165731000,5.41873095703125,-0.07314473118782043,-0.24648791244477034,0.4557186919018626
1782661216175801300,5.42880126953125,0.03823474584817886,-0.3625422494240105,0.44758426608927543
1782661216185872400,5.438872314453125,0.21954992889761923,-0.45184974151402707,0.41589360812231896
1782661216195942100,5.448942138671875,0.2857967172652483,-0.5253782113224268,0.3998841380856931
1782661216206013200,5.45901318359375,0.20430033731758593,-0.5553508863903581,0.40552075573317703
1782661216216083200,5.469083251953125,0.047723874205350875,-0.5300592087455094,0.39113311474472284
1782661216226154200,5.479154296875,-0.05774784009158611,-0.4497982158116996,0.3621526655845344
1782661216236225000,5.48922509765625,-0.04837970776557922,-0.40963615516275165,0.3897341346669942
1782661216246295300,5.49929541015625,0.020087094739079474,-0.4040777903832495,0.3674043025024235
1782661216256366300,5.509366455078125,0.1133481467604637,-0.4097054210066795,0.26982728697806596
1782661216266436400,5.519436279296875,0.038432314246892925,-0.38845717353373765,0.2172808149218559
1782661216276507100,5.529507080078125,-0.2606336344361305,-0.34745091714560983,0.23943156419247388
1782661216286577200,5.5395771484375,-0.5271317769914865,-0.2303241286292672,0.3573541061963886
1782661216296648200,5.549648193359375,-0.5953115792483091,-0.14029241391792893,0.42673422415368256
1782661216306718500,5.559718505859375,-0.5417331337958574,-0.09218421657010913,0.4487415463656187
1782661216316789200,5.569789306640625,-0.48447863017916676,-0.08819602371677755,0.46461467667147516
1782661216326860300,5.5798603515625,-0.62007718719244,-0.0927943112924695,0.43441330741420386
1782661216336930300,5.589930419921875,-0.8139829717457294,-0.07651216179430484,0.37708749212697146
1782661216347001300,5.60000146484375,-0.9138234021574259,-0.028988340205699202,0.3311809695418924
1782661216357071000,5.610071044921875,-0.9106219757676124,0.07538666489571333,0.3461688414458185
1782661216367142100,5.62014208984375,-0.8687439049810171,0.13885989689677952,0.39446079786270855
1782661216377212200,5.630212158203125,-0.7396095755457878,0.17121479092612862,0.3734220284219831
1782661216387283200,5.640283203125,-0.5970423485636711,0.015568448270857333,0.2230797104589641
1782661216397354200,5.650354248046875,-0.4462532366812229,-0.1955488755851984,-0.01457293442748487
1782661216407424300,5.66042431640625,-0.24985738887786862,-0.36228593657538294,-0.12277158947028219
1782661216417495300,5.670495361328125,-0.11566460700929164,-0.5980125087700784,-0.24530469400957225
1782661216427565300,5.6805654296875,-0.2554799049347639,-0.6357599094927311,-0.27582280106581747
1782661216437636000,5.690635986328125,-0.5407739333748817,-0.507191251116246,-0.18295264805816114
1782661216447707100,5.70070703125,-0.9182423876434564,-0.3918744346313178,-0.13653773755952714
1782661216457778200,5.710778076171875,-1.193042494598031,-0.2656888719990849,-0.2690649243034422
1782661216467848200,5.72084814453125,-1.3567559699833391,-0.020824030711501837,-0.30758009452819823
1782661216477919200,5.730919189453125,-1.5462188036531208,0.3371135013960302,-0.15759082778654993
1782661216487989200,5.7409892578125,-2.039978472396731,0.6950605319842695,-0.009266790843382477
1782661216498060300,5.751060302734375,-1.1402373716056347,0.4407094849489629,-0.09694368605688214
1782661216508130300,5.76113037109375,0.5611339998364449,0.2622553904190659,0.23648776582553982
1782661216518201300,5.771201416015625,0.6288023454397916,0.648708822914958,0.5757882558718324
1782661216528272100,5.781272216796875,0.08087912483215332,1.0451233851939439,0.582279736782983
1782661216538342100,5.791342041015625,0.007360884156823158,1.0706339662864803,0.34075200402885675
1782661216548413200,5.8014130859375,0.11981588146984576,0.7694422576211393,0.3238789029002189
1782661216558483200,5.811483154296875,0.19262334352731703,0.5781440252177417,0.316287278727442
1782661216568554200,5.82155419921875,0.07317863345742225,0.5886049212165176,0.35090463779605924
1782661216578624300,5.831624267578125,-0.33218437443077564,0.6479108044050633,0.39209509164467454
1782661216588694800,5.84169482421875,-0.9953308880209922,0.616637129741162,0.14651581847742198
