time,seconds_elapsed,z,y,x
1782811425535151400,0.0811513671875,-1.029438324806094,-0.16821897011101244,-0.17811843283474443
1782811425545222400,0.091222412109375,-1.0319108523994684,-0.14994623131752013,-0.1574292805492878
1782811425555294500,0.10129443359375,-0.8310901738911867,-0.07237213938012718,-0.0722089116424322
1782811425565365500,0.111365478515625,-0.5213946946442127,-0.044349721597135065,0.04973287594020366
1782811425575437600,0.1214375,-0.25556933678388594,0.022979455179721116,0.17861191544011235
1782811425585508400,0.13150830078125,-0.12475333787202834,0.07569470793157816,0.22293226481229064
1782811425595579400,0.141579345703125,-0.06466565665602683,0.08479863636344671,0.22124124298542736
1782811425605651500,0.1516513671875,-0.07372399238049984,0.09394391971901059,0.233092132037878
1782811425615722500,0.161722412109375,-0.050150224569439884,0.0607262713804841,0.22756927696317433
1782811425625793500,0.17179345703125,0.042585926795005793,0.021762480605393646,0.2240976553298533
1782811425635865300,0.181865234375,0.1313216103464365,-0.014746318233013152,0.22485329600274562
1782811425645936400,0.191936279296875,0.18951076446473597,0.030646628806740045,0.26612039528414605
1782811425656008400,0.202008544921875,0.23878245263397693,0.08746084131002425,0.2897968928173184
1782811425666079500,0.21207958984375,0.2612181563258171,0.038435821378231046,0.27446313008517026
1782811425676150500,0.222150634765625,0.1292985800862312,-0.028227584966272114,0.2624254862889647
1782811425686222600,0.23222265625,0.07663666495680808,-0.014654840557277202,0.25967604145035145
1782811425696293400,0.24229345703125,0.16583236723542213,0.006673486414551734,0.2876689408779144
1782811425706364400,0.252364501953125,0.297781754091382,-0.022048896331340072,0.2962004762493074
1782811425716436500,0.2624365234375,0.17314239798784256,-0.10224792994484305,0.23588263953924177
1782811425726507500,0.272507568359375,-0.17298165446817873,-0.13044658107757567,0.15628215634077786
1782811425736579300,0.282579345703125,-0.4552817617893219,-0.00874152486026287,0.10362170251607894
1782811425746650400,0.292650390625,-0.4538344855904579,0.10839885379001497,0.15670038175284862
1782811425756721400,0.302721435546875,-0.18050269762277601,0.11631737182959914,0.22711524958536028
1782811425766793500,0.31279345703125,0.11807985145747661,0.09940788421332836,0.32100714685618875
1782811425776864500,0.322864501953125,0.2909358337193727,0.0627035628028214,0.34874972478449345
1782811425786935600,0.332935546875,0.22633681255877017,0.05095584186390042,0.3103995358631015
1782811425797007600,0.343007568359375,0.017518705555796623,0.051709875101596116,0.23198607049211858
1782811425807078400,0.353078369140625,-0.08722235637903213,0.0659723553404212,0.17658610870093105
1782811425817150500,0.363150390625,-0.024817045870423316,0.0726598702803254,0.16034443734362722
1782811425827221500,0.373221435546875,0.1298269878745079,0.06516498448029161,0.16815394205078482
1782811425837292500,0.38329248046875,0.21266659912467,0.027341888172924517,0.14222586619853972
1782811425847364400,0.3933642578125,0.24030454763472078,-0.009490151270478963,0.10892477736026047
1782811425857435400,0.403435302734375,0.18226035494506357,-0.016112784280627963,0.08598521579951048
1782811425867506400,0.41350634765625,0.13414309750795364,-0.0009857961669564248,0.05318228574171662
1782811425877578500,0.42357861328125,0.19210721069872377,0.006573387040942907,0.03952653922438621
1782811425887649500,0.4336494140625,0.2566162154883146,-0.0018137714236974715,0.02146802770346403
1782811425897721600,0.4437216796875,0.3034808425158262,-0.05387845131233334,-0.009333353273570537
1782811425907792600,0.453792724609375,0.31528350851237774,-0.1346120301939547,-0.0380621657602489
1782811425917863400,0.463863525390625,0.3802344118505716,-0.17925941956341265,-0.1113302310667932
1782811425927935500,0.473935546875,0.46234103265106674,-0.2041941004641354,-0.14139233798384665
1782811425938006500,0.484006591796875,0.49089551148414606,-0.19211159461289642,-0.11390782646983862
1782811425948077600,0.49407763671875,0.4225754239737987,-0.23981427989974616,-0.16583207497447727
1782811425958149400,0.5041494140625,0.34178631551265715,-0.34955125042572616,-0.31458471259325743
1782811425968220400,0.514220458984375,0.23866087208092213,-0.4621909566558897,-0.43310222481563687
1782811425978291500,0.52429150390625,0.13138240062296389,-0.45611872407011683,-0.4102233074009418
1782811425988363500,0.534363525390625,0.014490297645330429,-0.3399126305952668,-0.3573503798693418
1782811425998434600,0.5444345703125,-0.07303133394122123,-0.24060937580019234,-0.2732826881289482
1782811426008506600,0.554506591796875,-0.11154665029644965,-0.16816702072806655,-0.1797761369138956
1782811426018577700,0.56457763671875,-0.12635200524032114,-0.1260329293537885,-0.08669438698217272
1782811426028648400,0.5746484375,-0.10270926384627818,-0.12172222654782235,-0.0951389747224748
1782811426038720300,0.58472021484375,-0.05628828893303871,-0.1567035966232419,-0.1066600472986698
1782811426048791300,0.594791259765625,-0.09034136518239974,-0.21687464527375994,-0.1415187408424914
1782811426058862300,0.6048623046875,-0.1715150890469551,-0.24676358758099376,-0.15568579788282513
1782811426068934400,0.614934326171875,-0.2554220372676849,-0.26263810612633826,-0.16334098881110548
1782811426079005400,0.62500537109375,-0.24359540587365625,-0.26703319928012786,-0.16567045467197894
1782811426089077500,0.635077392578125,-0.14520926592350006,-0.29322657500505445,-0.15537293254137038
1782811426099148500,0.6451484375,-0.041057986575365066,-0.33021658148914573,-0.13875044517293572
1782811426109219600,0.655219482421875,-0.012098434072732926,-0.3652667790170759,-0.15825652515366673
1782811426119291600,0.665291748046875,-0.09548983398675918,-0.39821846989579496,-0.20274024839401245
1782811426129362700,0.67536279296875,-0.187017194083333,-0.3560458000767976,-0.2220543129339814
1782811426139433500,0.68543359375,-0.20636837576329706,-0.34484168449528513,-0.20674407720789312
1782811426149505300,0.69550537109375,-0.1364239019215107,-0.29760800495967266,-0.15718714235648512
1782811426159576300,0.705576416015625,-0.019859131202101706,-0.2297536352649331,-0.0814893656849861
1782811426169647400,0.7156474609375,0.09607026422321796,-0.15938406787887216,-0.041083705538511275
1782811426179719400,0.725719482421875,0.16349544872045516,-0.17845584809556603,-0.033610154787451024
1782811426189790500,0.73579052734375,0.17809271387159822,-0.19221914664059878,-0.06592939298152924
1782811426199862000,0.745862060546875,0.1179804827362299,-0.2202565427970141,-0.10621113448739052
1782811426209933000,0.75593310546875,0.07189326982200145,-0.25232341366522015,-0.13367694130092858
1782811426220004000,0.766004150390625,0.06367956822812557,-0.19331139885671436,-0.10501973274573684
1782811426230076200,0.776076171875,0.08408172026574612,-0.17372648148611186,-0.061603054215013976
1782811426240147200,0.786147216796875,0.013036591705679893,-0.15954875692129133,-0.05565057555139064
1782811426250218200,0.79621826171875,-0.08631927005946635,-0.09627711190693079,-0.04286693569347262
1782811426260290000,0.8062900390625,-0.07090308974087238,-0.03601758125536143,-0.04604351990297437
1782811426270361000,0.816361083984375,-0.06865034237802028,-0.06310023397020995,-0.024848025530576703
1782811426280433200,0.82643310546875,-0.0009264671951532363,-0.08842639840655028,-0.03431450366452336
1782811426290504000,0.83650390625,0.0969961468964815,-0.10183204262033105,-0.047101066131889816
1782811426300575000,0.846574951171875,0.10520224970579146,-0.12832279385663567,-0.051098611335456366
1782811426310647000,0.85664697265625,0.07431143687963486,-0.15938070687800646,-0.035242432164400816
1782811426320718000,0.866718017578125,0.17346914572417735,-0.16895349493063985,-0.007849544456601142
1782811426330789000,0.8767890625,0.2958171760201454,-0.15154621386006473,0.043481706590950485
1782811426340861200,0.886861083984375,0.3428635893553495,-0.16208163639977574,0.09549787116274237
1782811426350932200,0.89693212890625,0.37524025682508944,-0.17122728508152066,0.11017521581277251
1782811426361004000,0.907004150390625,0.3603226736783981,-0.17642412307225167,0.11558920368552207
1782811426371075000,0.917074951171875,0.41545594735741614,-0.25347594470120965,0.07776625350862741
1782811426381146000,0.92714599609375,0.5205950686991214,-0.3479801286514848,0.11160261826738714
1782811426391218200,0.93721826171875,0.5984358487486839,-0.39018823511004447,0.1620860203139484
1782811426401289000,0.9472890625,0.5820008467763662,-0.42814109527692196,0.18692893127799032
1782811426411360000,0.957360107421875,0.4520791663557291,-0.4735794888935983,0.19239654903411865
1782811426421432000,0.96743212890625,0.2898340099573135,-0.4862714318800717,0.1973467187874019
1782811426431503000,0.977503173828125,0.1186941839635372,-0.4666666407652199,0.26587036604583264
1782811426441574100,0.98757421875,-0.08990998802781104,-0.4468668385349214,0.36370983189865946
1782811426451646200,0.997646240234375,-0.3596265081077814,-0.46489342054761945,0.3607012977324426
1782811426461717200,1.00771728515625,-0.537272647255659,-0.4938160020407289,0.3368307389318943
1782811426471789000,1.0177890625,-0.5409451982885599,-0.4917379536576569,0.2925957297556102
1782811426481860000,1.027860107421875,-0.44019934346973894,-0.5012690214604139,0.30409283693432804
1782811426491931100,1.03793115234375,-0.3470388292133808,-0.47574609234295784,0.39046471396386623
1782811426502003200,1.048003173828125,-0.31982991977035996,-0.4887968587044626,0.39783071268722414
1782811426512074000,1.058073974609375,-0.3076169194072485,-0.47876134851090607,0.36461306434869767
1782811426522145000,1.06814501953125,-0.25872283237874505,-0.4301455669671297,0.3546140867732465
1782811426532217000,1.078217041015625,-0.15985796900093555,-0.40559922779686747,0.36368162871748205
1782811426542288100,1.0882880859375,-0.08829378500282764,-0.37940848242044445,0.4045376629799604
1782811426552359200,1.098359130859375,-0.13254735274910925,-0.3625261750720441,0.40965091434046624
1782811426562431000,1.108430908203125,-0.24930735377967356,-0.2756665875907987,0.40642873742356894
1782811426572502000,1.118501953125,-0.2836819170683622,-0.22014942916072905,0.40409912543222304
1782811426582574000,1.128573974609375,-0.2563642865538597,-0.22652904719524083,0.381166139742732
1782811426592645000,1.13864501953125,-0.14659633636772632,-0.25838322516083717,0.33190482683703304
1782811426602716200,1.148716064453125,0.008148819664120673,-0.33526005554907023,0.31117431962788106
1782811426612788200,1.158788330078125,0.17186521765887736,-0.36445663167797027,0.2601556416608393
1782811426622859000,1.16885888671875,0.3924170170754194,-0.4619961647361517,0.2423211481541395
1782811426632930000,1.178929931640625,0.6378630192518234,-0.6002723434608429,0.20801351262181997
1782811426643002000,1.189002197265625,0.8744108447015285,-0.7195351210925728,0.20024989288300274
1782811426653073200,1.1990732421875,0.965302829504013,-0.8219591382566839,0.2500650402791798
1782811426663145000,1.20914501953125,0.822003196594119,-0.8754098656762391,0.277066152190417
1782811426673216000,1.219216064453125,0.6145148768901825,-0.8694140593275427,0.23140710156038402
1782811426683287000,1.229287109375,0.39857670874893664,-0.8389923983830958,0.20563012461662292
1782811426693359000,1.239359130859375,0.21400223164260387,-0.8532496909901499,0.23748978247493505
1782811426703430100,1.24943017578125,0.05393500380516052,-0.8714718686401843,0.25742373247891664
1782811426713501000,1.2595009765625,-0.07653729623556137,-0.8747882997117936,0.2561472828023135
1782811426723573200,1.2695732421875,-0.24287819751501083,-0.8855467173524201,0.2535648650936782
1782811426733644000,1.27964404296875,-0.3112333563387394,-0.9314055283382534,0.24837153423428535
1782811426743715000,1.289715087890625,-0.22289047149717806,-1.0022224741656334,0.2534013450950384
1782811426753787100,1.299787109375,-0.048691842454671855,-1.0646289537180214,0.23134499610960482
1782811426763858200,1.309858154296875,0.12085808399915694,-1.1155503087904304,0.22953780055716633
1782811426773930000,1.319929931640625,0.28147943858802316,-1.163426597078517,0.25137977613955736
1782811426784001000,1.3300009765625,0.41068157256245613,-1.1720064285710454,0.24750205792337654
1782811426794072000,1.340072021484375,0.48921267296373844,-1.1752712025206535,0.2878397674001753
1782811426804144000,1.35014404296875,0.5241144749969243,-1.1700220498207956,0.30850933820232745
1782811426814215200,1.360215087890625,0.4702209722459316,-1.1984325901385395,0.2958510782897472
1782811426824286000,1.370285888671875,0.3129863374859094,-1.2212732944346965,0.3024799949102103
1782811426834358000,1.38035791015625,0.07446925778985022,-1.1939008649930358,0.3012204963684082
1782811426844429000,1.390428955078125,-0.06880407163500786,-1.1649478152964263,0.2876752244882285
1782811426854500000,1.4005,-0.16848200496137142,-1.1858932073652744,0.28451602980494495
1782811426864572200,1.410572265625,-0.19320786541700363,-1.1832624935355036,0.30042525433748957
1782811426874643200,1.420643310546875,-0.11651567088067531,-1.1452831106878816,0.32511984287202356
1782811426884715000,1.430715087890625,0.0021931261301040648,-1.1273796435981989,0.3773544725000858
1782811426894786000,1.4407861328125,0.10329203217029571,-1.1460600864097474,0.42543285923153157
1782811426904857000,1.450857177734375,0.15534721357822417,-1.157211156629771,0.46712373688295483
1782811426914929200,1.46092919921875,0.14431260934472084,-1.1811359298355877,0.4893457978241145
1782811426925000200,1.471000244140625,0.05885550907254219,-1.1899993275098502,0.49463732836097474
1782811426935071000,1.481071044921875,-0.02988835778534412,-1.1848234592419118,0.5152279887080192
1782811426945143000,1.49114306640625,-0.11856558914780616,-1.1118173328071832,0.539097670725733
1782811426955214000,1.501214111328125,-0.20329905132055281,-1.0499984438844026,0.5547010441794992
1782811426965286100,1.5112861328125,-0.3518009290486574,-1.000296839865297,0.5416857875227928
1782811426975357000,1.52135693359375,-0.5573287623345852,-0.9686686526753008,0.5161546020336449
1782811426985428000,1.531427978515625,-0.7436094588369131,-0.9161325558826326,0.4722206216305494
1782811426995500000,1.5415,-0.861973972454667,-0.9016315176475792,0.4295084381073713
1782811427005571000,1.551571044921875,-0.9098620973110199,-0.9183081463560462,0.4006773342899978
1782811427015642000,1.56164208984375,-0.9049901073604821,-0.9781249747414141,0.3653513154953718
1782811427025714200,1.571714111328125,-0.9144903416335582,-1.055921550323069,0.3310999401949346
1782811427035785200,1.58178515625,-0.866364316368103,-1.1178247565284372,0.21853227628767488
1782811427045856000,1.59185595703125,-0.8840542868375778,-1.214729206553474,0.07646247743368148
1782811427055928000,1.601927978515625,-0.9222031079679727,-1.293669837603718,-0.07770370966643095
1782811427065999000,1.6119990234375,-0.9998755457133054,-1.3448654795728623,-0.17156608858183026
1782811427076071000,1.62207080078125,-1.2176613875478506,-1.330769295811653,-0.2297245553009212
1782811427086142000,1.632141845703125,-1.4379273557603358,-1.2576038140967487,-0.22314210817068814
1782811427096213000,1.642212890625,-1.6017051285535095,-1.0687417227990925,-0.23368352205976842
1782811427106285000,1.65228515625,-1.801239858904481,-0.7855679013833403,-0.19803981561809778
1782811427116356000,1.662356201171875,-1.9699299536585806,-0.41282358955983073,-0.06435059935748577
1782811427126427100,1.67242724609375,-1.9768600451827048,-0.07682952064778656,0.04870557871907949
1782811427136499200,1.682499267578125,-1.8442402117192744,0.09131481332443654,0.1542706703878939
1782811427146570200,1.6925703125,-1.6584867539614438,0.09454926520101725,0.260337135707587
1782811427156641000,1.70264111328125,-1.448947346946597,0.0810160490848124,0.29141835653930903
1782811427166713000,1.712713134765625,-1.1122288362175226,-0.05465082392431795,0.2726826764091849
1782811427176784100,1.7227841796875,-0.7756652237892151,-0.290122179248929,0.2353352347895503
1782811427186856000,1.73285595703125,-0.4084539596408605,-0.4341888510085642,0.16438742912411689
1782811427196927200,1.74292724609375,-0.10248305387496948,-0.6138344934105873,0.08358736087754368
1782811427206998300,1.752998291015625,0.11605506763160228,-0.7398806475721299,0.01551847164928913
1782811427217070300,1.7630703125,0.1915887397825718,-0.7667062567859888,-0.025363135445863008
1782811427227141400,1.773141357421875,0.13848083445131779,-0.747499378947541,-0.10480872034355998
1782811427237212400,1.78321240234375,-0.011450783818960189,-0.6574398263812065,-0.23261852317675946
1782811427247284500,1.793284423828125,-0.11613456260859965,-0.4614986635427922,-0.39527152972370383
1782811427257355500,1.80335546875,-0.10995967336595058,-0.2723941417913884,-0.47318566727042194
1782811427267426300,1.81342626953125,-0.0461409889280796,-0.1193584200259298,-0.44568055135980245
1782811427277498400,1.823498291015625,0.11741700363457203,0.06282894274815917,-0.44243587035015225
1782811427287569400,1.8335693359375,0.34307167914807796,0.19724998041465877,-0.4358199593417346
1782811427297641200,1.84364111328125,0.6444336298137903,0.2919691222898662,-0.41903073710426686
1782811427307712300,1.853712158203125,0.9761299284666776,0.4089170471079647,-0.389832845801115
1782811427317783300,1.863783203125,1.3527958341807127,0.5593175980642437,-0.3701980248741805
1782811427327855400,1.87385546875,1.7038485752105712,0.6525503007739782,-0.3612275135636329
1782811427337926400,1.883926513671875,1.9986492676645515,0.657707537406683,-0.3462326273970306
1782811427347997400,1.89399755859375,2.2428385477781294,0.6354090502284467,-0.32982553634494544
1782811427358069500,1.904069580078125,2.3312755406439303,0.622890637177974,-0.2751278776042163
1782811427368140500,1.914140625,2.177221289485693,0.6766248577140271,-0.17565218885168432
1782811427378211300,1.92421142578125,1.8360750254422424,0.8464267131023109,-0.07662585130184889
1782811427388283100,1.934283203125,1.4050111745864151,1.037264196126163,-0.006176058286428451
1782811427398354200,1.944354248046875,1.0245371087610722,1.13466497830078,-0.031279519882798194
1782811427408426200,1.95442626953125,0.5944418106764555,1.0834542848929762,-0.06888444339483976
1782811427418497300,1.964497314453125,0.20396248366534708,1.006533688428253,-0.17579715028032658
1782811427428568300,1.974568359375,-0.028666122514009473,0.8152744728609919,-0.31156974868625403
1782811427438640400,1.984640380859375,-0.070510291031003,0.5678153772965073,-0.45241365900710223
1782811427448711400,1.99471142578125,0.018231822261214257,0.30936902377158404,-0.5941477961659432
1782811427458782500,2.004782470703125,0.3160340346187353,0.13153919861987232,-0.6732362381890415
1782811427468854500,2.0148544921875,0.7625894691169262,-0.047941316348314285,-0.6520842906974256
1782811427478925300,2.02492529296875,1.322253980922699,-0.22278569594845174,-0.5936658578678965
1782811427488996400,2.034996337890625,1.8172136731058357,-0.4444340584300458,-0.5147271995790302
1782811427499068200,2.045068115234375,2.1405489706486462,-0.6971487364351749,-0.49740460111722345
1782811427509139200,2.05513916015625,2.260894428950548,-0.8896911236807703,-0.41027898311093447
1782811427519211300,2.065211181640625,2.2827456107527015,-1.0138840511910616,-0.2986459697052836
1782811427529282300,2.0752822265625,2.1146084737062454,-1.1032014801532029,-0.16060060406178234
1782811427539353300,2.085353271484375,1.7568594499081371,-1.170568358591944,-0.10510434228926896
1782811427549425400,2.09542529296875,1.3491560163736342,-1.2193540168099104,-0.025494945131987332
1782811427559496400,2.105496337890625,0.8764759605377912,-1.280266896803677,0.05259045732840895
1782811427569567500,2.1155673828125,0.3986795846015215,-1.2883632556281983,0.10752733165249227
1782811427579639600,2.1256396484375,-0.05386895283162593,-1.2371250896915793,0.21402122860401868
1782811427589710300,2.13571044921875,-0.49818566849231716,-1.1340131633285433,0.33878538013100623
1782811427599781400,2.145781494140625,-1.0412485895872114,-0.9896578838858753,0.5297551112323999
1782811427609853200,2.155853271484375,-1.5075444973438978,-0.905421849841252,0.6875431420914828
1782811427619924200,2.16592431640625,-1.6777607787519693,-0.9713266198381781,0.7060957207396626
1782811427629996300,2.175996337890625,-1.6925106041163205,-1.2538614126980303,0.5864492044873535
1782811427640067300,2.1860673828125,-1.3798960225522516,-1.5338304467231034,0.3894277721315622
1782811427650138400,2.196138427734375,-1.062684176325798,-1.7896163488671182,0.19384411749392746
1782811427660210400,2.20621044921875,-0.8014765413939953,-1.9974113964326679,0.029509587600827215
1782811427670281500,2.216281494140625,-0.6026894145399332,-2.0991256578922273,-0.04146510607153177
1782811427680352500,2.2263525390625,-0.43925241800844667,-2.169007003369927,-0.12129340667650103
1782811427690424300,2.23642431640625,-0.37302433434128757,-2.2104335309967396,-0.10999313724413513
1782811427700495400,2.246495361328125,-0.34672727904617784,-2.232681457031518,-0.06570749385915696
1782811427710566400,2.25656640625,-0.35816286529600616,-2.179250164964795,0.003860036429017782
1782811427720638200,2.26663818359375,-0.45393268526792524,-2.083123494379222,0.01784450344406068
1782811427730709200,2.276709228515625,-0.5934948852151632,-1.9223953184150158,-0.06386464247144759
1782811427740780300,2.2867802734375,-0.6241676713764667,-1.7567830236710607,-0.10115823501199483
1782811427750852400,2.296852294921875,-0.42110184428989883,-1.6545153661124408,-0.01555303150601685
1782811427760923400,2.30692333984375,-0.13815174862742424,-1.6564511564806104,0.136409800330922
1782811427770995500,2.316995361328125,-0.09679448684453963,-1.7304390604943036,0.20840850328877566
1782811427781066500,2.32706640625,-0.49028176349997515,-1.730918222313374,0.11399134003482758
1782811427791137500,2.337137451171875,-1.0520300958424806,-1.6761473522059618,-0.11165011067092417
1782811427801209300,2.347209228515625,-1.6401152309685945,-1.5329381740584969,-0.3171146694622934
1782811427811280100,2.357280029296875,-2.1640771457523105,-1.2367901586487888,-0.4416005885697901
1782811427821351200,2.36735107421875,-2.4186136323571206,-0.8776413510553538,-0.5044635797180235
1782811427831423200,2.37742333984375,-2.429938159447908,-0.6120289052933454,-0.5188068701080978
1782811427841494300,2.387494384765625,-2.22579096686542,-0.40005452621653675,-0.5159101257532834
1782811427851565300,2.3975654296875,-1.7466110276162623,-0.1897803751863539,-0.3967559230625629
1782811427861637400,2.407637451171875,-1.095852870956063,-0.07633461327031255,-0.23411767569333314
1782811427871708400,2.41770849609375,-0.5186328287154436,0.08254793482720851,-0.06223667594343423
1782811427881780500,2.427780517578125,-0.11981821955740452,0.3202363086141646,0.0555294333897531
1782811427891851500,2.4378515625,0.1371247436672449,0.5276470330372452,0.11392404695227741
1782811427901922300,2.44792236328125,0.2818395040720701,0.6682011666312814,0.08245411906391381
1782811427911994400,2.457994384765625,0.4158271187573671,0.8066983676955103,0.02500496965795755
1782811427922065200,2.468065185546875,0.6036117900818586,0.9667750940136611,0.03080503423884511
1782811427932136200,2.47813623046875,0.8961012829840183,1.1058097629554569,0.1470059400819242
1782811427942208300,2.488208251953125,1.1925234391599893,1.212056114886701,0.33544059974774715
1782811427952279300,2.498279296875,1.3180693887144326,1.3305163439638912,0.5282668454360216
1782811427962350300,2.508350341796875,1.3125515020757912,1.5240740457318722,0.7096879000127315
1782811427972422400,2.51842236328125,1.3402706991285085,1.673825046738237,0.823757858241722
1782811427982493400,2.528493408203125,1.4450573537707327,1.7717513140916823,0.9014328532703221
1782811427992565500,2.5385654296875,1.5371873559355735,1.7618793238967656,0.924381767181307
1782811428002636500,2.548636474609375,1.5850567760914562,1.7121829805746673,0.9234691823810338
1782811428012707300,2.558707275390625,1.6251093850165605,1.518461612677574,0.9160182087879627
1782811428022779100,2.568779052734375,1.6684551902681588,1.2287784093677996,0.8533816468067467
1782811428032850200,2.57885009765625,1.7001251707732676,0.9872887436017393,0.801623402518779
1782811428042921200,2.588921142578125,1.6082418368458746,0.7880844142489135,0.7327694273274391
1782811428052993300,2.5989931640625,1.348999949029088,0.6353340852960944,0.7445058962199836
1782811428063064300,2.609064208984375,1.0053601146042346,0.5539909962140024,0.7799532763719558
1782811428073135400,2.61913525390625,0.553158783173561,0.4940004917621612,0.7699731496274471
1782811428083207400,2.62920751953125,0.01561784037053585,0.4725115674011409,0.7083515368424356
1782811428093278500,2.639278564453125,-0.4364490510255098,0.47108957177400584,0.6904283421389759
1782811428103349500,2.649349609375,-0.6277297477722168,0.42509091392606496,0.6294025032900273
1782811428113421600,2.659421630859375,-0.5167617741465568,0.33238165056854485,0.5567284583538771
1782811428123492400,2.669492431640625,-0.14957447539567947,0.1908070878855884,0.4564274246931076
1782811428133564200,2.679564208984375,0.3095364892929792,0.05890504730269312,0.377069664209336
1782811428143635200,2.68963525390625,0.7406020937144756,-0.03765270817652344,0.37050796760618687
1782811428153706200,2.699706298828125,1.0890361766785384,-0.08114055224731564,0.41143151414692397
1782811428163778300,2.7097783203125,1.3191010698497294,-0.05995777122601866,0.4997681153781712
1782811428173849300,2.719849365234375,1.3089695519357918,0.05845832644850015,0.5816299676373601
1782811428183920400,2.72992041015625,1.076048684811592,0.2633963771477342,0.6803054459229111
1782811428193992400,2.739992431640625,0.8620195651620626,0.4804221943952143,0.7623840096727014
1782811428204063000,2.75006298828125,0.7891957364916801,0.5833017002418637,0.8449204001925885
1782811428214134000,2.760134033203125,0.7368728440582751,0.5500226771049201,0.8624322376161814
1782811428224206000,2.7702060546875,0.6027852761298418,0.49550052106156944,0.7970943807870149
1782811428234276900,2.78027685546875,0.466935959225893,0.414588078481704,0.7099331069454551
1782811428244348700,2.7903486328125,0.5075958863943815,0.2924991375133395,0.5895274428889155
1782811428254419700,2.800419677734375,0.6409259139537811,0.1812782120399177,0.4821395197071135
1782811428264490800,2.81049072265625,0.7917734780251979,0.07545140069499612,0.38838936899453397
1782811428274562800,2.820562744140625,0.9074906920045613,-0.00012654898911714554,0.3208922883048653
1782811428284633900,2.8306337890625,0.9106219757676124,-0.07310922148302197,0.29282193972691895
1782811428294705000,2.840704833984375,0.7704466123580932,-0.12348127210959792,0.2929291994936764
1782811428304777000,2.85077685546875,0.5300643233120441,-0.1437507376782596,0.2717227453358471
1782811428314848000,2.860847900390625,0.28901275670230386,-0.15763079447075723,0.21162454272583126
1782811428324919000,2.8709189453125,-0.02103226663470268,-0.17500205437988042,0.12509513704702258
1782811428334991000,2.8809912109375,-0.43245267486572264,-0.22919863173067567,0.07771861497461795
1782811428345062000,2.891061767578125,-0.9117010031759738,-0.34513664885386824,0.05666136002913117
1782811428355133700,2.9011337890625,-1.4201882854521273,-0.4113908898755908,-0.016019699169695378
1782811428365204700,2.911204833984375,-1.8439514579057692,-0.40738589201793074,-0.10921017017289995
1782811428375275800,2.92127587890625,-2.2296341982901096,-0.42805517055913805,-0.2526426356822252
1782811428385347800,2.931347900390625,-2.5415660582870245,-0.4485903013266623,-0.5691759981252252
1782811428395419000,2.9414189453125,-2.662301392689347,-0.5773926953937858,-0.9272180135205388
1782811428405490000,2.951489990234375,-2.650710908138752,-0.8226817534428089,-1.1153737101145087
1782811428415562000,2.96156201171875,-2.7618028004050252,-0.9564047989077865,-1.1103139425069093
1782811428425633000,2.971633056640625,-3.039787967136502,-0.9065338296711445,-0.9526409163296222
1782811428435704000,2.9817041015625,-3.2701001130670306,-0.6893696999315172,-0.6594263240233064
1782811428445776000,2.99177587890625,-3.3314047688573596,-0.30573863137997687,-0.364619786350429
1782811428455847000,3.001846923828125,-3.1507927656412122,0.12104666537381707,-0.10512304698973894
1782811428465918700,3.011918701171875,-2.711563728508353,0.5271020394403487,0.09306129166558384
1782811428475989800,3.02198974609375,-2.09345053486526,0.7815524551969021,0.17075316476374863
1782811428486060800,3.032060791015625,-1.3494950390696525,0.7793744535706937,0.09932327466979622
1782811428496132900,3.0421328125,-0.5936474454283714,0.505609169556573,-0.11281623184084892
1782811428506204000,3.052203857421875,0.044785482665896416,0.1308741588398814,-0.3341349239766598
1782811428516275000,3.06227490234375,0.43846389797925944,-0.2084654211077839,-0.5545359167456626
1782811428526347000,3.072346923828125,0.5396463906496763,-0.44108650156781076,-0.7519440103314816
1782811428536418000,3.08241796875,0.44876609628498554,-0.5128823754299432,-0.9194986713148653
1782811428546489000,3.092489013671875,0.3451432247251272,-0.49053851474002,-1.0278165688231586
1782811428556561000,3.102560791015625,0.3176554983407259,-0.41574433584474024,-1.053362805750966
1782811428566631700,3.112631591796875,0.16149989098906517,-0.22996333249285816,-1.0684197973683476
1782811428576702700,3.12270263671875,-0.16614625549018383,0.011542553755640983,-1.0698713113509117
1782811428586774800,3.13277490234375,-0.4144166674375534,0.2388531067173928,-1.0333638276867567
1782811428596845800,3.142845703125,-0.5028828863978385,0.3945413888182491,-0.9671057872727513
1782811428606918000,3.15291796875,-0.5045961200565099,0.5214586267258972,-0.9034247577399015
1782811428616989000,3.162989013671875,-0.38671617508530615,0.5654988439824432,-0.8343670036047697
1782811428627060000,3.17306005859375,-0.19255729255378246,0.5157074427880346,-0.7462626036942005
1782811428637132000,3.183132080078125,-0.034929859083890916,0.4825397710710764,-0.665622548314929
1782811428647203000,3.193203125,0.11764788978099823,0.5102320801168679,-0.5557143128752708
1782811428657273900,3.20327392578125,0.27161270909011365,0.5808953697524964,-0.4115459343068301
1782811428667346000,3.213345947265625,0.46124680767357346,0.6801533241011202,-0.18602379913181066
1782811428677416700,3.223416748046875,0.7546013929724693,0.7840348465971648,0.02952595421373844
1782811428687487700,3.23348779296875,1.0908820968061685,0.8470094814263284,0.1799408259563148
1782811428697559800,3.243559814453125,1.3899521371424197,0.8537608553826809,0.2924922693811357
1782811428707630800,3.253630859375,1.6406062293559311,0.8172956034250557,0.3331428441993892
1782811428717702000,3.263701904296875,1.852802872881293,0.7082058447614312,0.3278136120006442
1782811428727774000,3.27377392578125,2.000883310326934,0.5938869532726705,0.241641349196434
1782811428737845000,3.283844970703125,2.128628815752268,0.45935982488319277,0.14431655486747622
1782811428747917000,3.2939169921875,2.270993213638663,0.28874738376438613,0.06536927488073706
1782811428757988000,3.303988037109375,2.392444587355852,0.1149703411348164,-0.01816299480870366
1782811428768059000,3.314058837890625,2.473338909757137,-0.028021833261102438,-0.0988235084541142
1782811428778130700,3.324130615234375,2.4715140324175358,-0.1667981435276568,-0.2226530094794929
1782811428788201700,3.33420166015625,2.3966455461770293,-0.3144998107887804,-0.35662659563943744
1782811428798272800,3.344272705078125,2.3439421299934384,-0.4538790553845465,-0.4836709670580923
1782811428808344800,3.3543447265625,2.295091297584772,-0.6321716757424175,-0.61165203480497
1782811428818415900,3.364415771484375,2.1428034715771673,-0.774595694861561,-0.7190336743764579
1782811428828487000,3.37448681640625,1.9062883793532848,-0.7683736054763197,-0.7406075005419552
1782811428838559000,3.38455908203125,1.6642092232614754,-0.7396000770650804,-0.708490653052181
1782811428848630000,3.394630126953125,1.3815952276855705,-0.770388306299597,-0.6472295441426337
1782811428858701000,3.404701171875,1.0690443590074776,-0.8431642041750251,-0.635076457273215
1782811428868772900,3.41477294921875,0.6420867744266986,-0.8665449336320161,-0.6765516463473439
1782811428878844000,3.424843994140625,0.17959493512809274,-0.9283370806783438,-0.7470446939826011
1782811428888915700,3.434915771484375,-0.24440029251575468,-0.9758008426427841,-0.8377306348189711
1782811428898986800,3.44498681640625,-0.5103074834406376,-0.9747675540722907,-0.8912757625237107
1782811428909057800,3.455057861328125,-0.678692457768321,-0.961089887984097,-0.820986713027954
1782811428919129900,3.4651298828125,-0.8278308798342943,-0.9192370977692306,-0.690720895344764
1782811428929201000,3.475200927734375,-0.9268997413516044,-0.8905762359522282,-0.5452322279579938
1782811428939272000,3.48527197265625,-0.9524199670553207,-0.8981146686330437,-0.3919575828701257
1782811428949344000,3.495343994140625,-0.9913134690731763,-0.8907302574701607,-0.23618965966179967
1782811428959415000,3.5054150390625,-1.0285510205775499,-0.8392255495518446,-0.0639450872965157
1782811428969486000,3.515486083984375,-1.065259579771757,-0.8080499284349382,0.10506415640935302
1782811428979558000,3.525557861328125,-1.1141589274972676,-0.7819342210561037,0.2482261344142258
1782811428989628700,3.535628662109375,-1.2754092276394366,-0.8156741397030651,0.2632658826358616
1782811428999700700,3.54570068359375,-1.37146955499053,-0.8797698875166475,0.1359932554192841
1782811429009771800,3.555771728515625,-1.0867676472246646,-0.8453342416904867,0.08546659875288605
1782811429019842800,3.5658427734375,-0.6320429347962141,-0.9268791369549929,0.20059680662453172
1782811429029915000,3.575914794921875,-0.41784196571111676,-1.022687096980214,0.32085926281809807
1782811429039986000,3.58598583984375,-0.5893091239631175,-1.1068016966022551,0.3424905182592571
1782811429050057000,3.596056884765625,-0.9299632205754518,-1.1748375603437422,0.23578327081799505
1782811429060129000,3.60612890625,-1.2360241427123546,-1.1037336873337626,0.15611469081938265
1782811429070200000,3.616199951171875,-1.4967343495160341,-1.0100205076307058,0.16088497396111487
1782811429080270800,3.626270751953125,-1.6898919460505246,-0.8544863931782544,0.1914477238766849
1782811429090343000,3.636343017578125,-1.7990560851246118,-0.6652561992205679,0.2549628953233361
1782811429100413700,3.64641357421875,-1.792412409326434,-0.5411369214683771,0.3015568887159228
1782811429110484700,3.656484619140625,-1.6612684936344622,-0.4178250145763159,0.35463863669261336
1782811429120556800,3.666556884765625,-1.4573089325785635,-0.23806729010194538,0.5075529240354896
1782811429130627800,3.6766279296875,-1.2366951738417147,-0.05365910947322845,0.6779492381855845
1782811429140700000,3.686699951171875,-1.1433990505069493,0.12844196325689552,0.8087434636570513
1782811429150771000,3.69677099609375,-1.205249065220356,0.3195871970556676,0.8825612718008458
1782811429160842000,3.706842041015625,-1.2404273461073636,0.48916225795075297,0.8758543215081095
1782811429170914000,3.7169140625,-1.0199304917484522,0.6131947342023253,0.8436961190946399
1782811429180985000,3.726985107421875,-0.5187497330933809,0.6819494137376546,0.8219625723227858
1782811429191056000,3.737055908203125,0.09570026186704635,0.7672519079700112,0.8893241900645196
1782811429201128400,3.74712841796875,0.6084001934021711,0.8139025999858975,0.95833781279698
1782811429211199500,3.757199462890625,0.9194494253456592,0.8100896175689994,0.9684779524087905
1782811429221270500,3.7672705078125,1.0756471182733773,0.8402323885068297,0.9548353576339781
1782811429231342600,3.777342529296875,1.117265661340952,0.8192164884850383,0.8883953847818076
1782811429241413400,3.787413330078125,1.144358250927925,0.8130369230672717,0.7911522773869335
1782811429251484400,3.797484375,1.0333937844336032,0.8476347737178206,0.7203688685029744
1782811429261556500,3.807556396484375,0.9141209237992763,0.871880011049658,0.6120714292608201
1782811429271627500,3.81762744140625,0.8198556631714106,0.8910926610417663,0.4967825236961245
1782811429281699300,3.82769921875,0.6846750393092632,0.8595626735292374,0.41750776532068845
1782811429291770400,3.837770263671875,0.5031307236790656,0.8325289745226502,0.3476281734086573
1782811429301841400,3.84784130859375,0.34387598126828667,0.8229362396605312,0.2859516155660152
1782811429311913500,3.85791357421875,0.2908808886617422,0.7676287784583866,0.23911256137117742
1782811429321984500,3.867984619140625,0.29053894335627556,0.694991704531759,0.17372151305004954
1782811429332055600,3.8780556640625,0.344628845462203,0.658086015330255,0.21051804278865455
1782811429342127600,3.888127685546875,0.5428986704438924,0.6046110302522778,0.27613836982101203
1782811429352198400,3.898198486328125,0.8517576988667249,0.6265367385953664,0.33473025952130553
1782811429362269400,3.90826953125,1.1605395704001187,0.6261895325928926,0.3862190392181277
1782811429372341500,3.918341552734375,1.3703344134807587,0.6168851131528615,0.42141631706655025
1782811429382412500,3.92841259765625,1.5017068772315978,0.5430823564477265,0.5323894052587449
1782811429392483600,3.938483642578125,1.6276123077481983,0.5039551918044686,0.5872095213353633
1782811429402555400,3.948555419921875,1.7283260138630867,0.4487947378575802,0.6131653619773686
1782811429412626400,3.95862646484375,1.749705486500263,0.3924238852076232,0.6140664024703204
1782811429422697500,3.968697509765625,1.6606956621825695,0.3041390141636133,0.5744231049984693
1782811429432769500,3.97876953125,1.6043430758416652,0.2017738875798881,0.5859776414528489
1782811429442840600,3.988840576171875,1.4849334370851517,0.10403671305775641,0.5925749938912689
1782811429452912600,3.99891259765625,1.3048287988692522,-0.02086085559055209,0.5798971524953842
1782811429462983400,4.0089833984375,1.04869306037426,-0.13102014318183064,0.5377171761527657
1782811429473054500,4.019054443359375,0.7485773103773593,-0.1817386691585183,0.5343295795410872
1782811429483126500,4.02912646484375,0.5182435371369123,-0.1625714657433331,0.5563594789110123
1782811429493197600,4.039197509765625,0.34697511632740496,-0.16211889967024326,0.578511835616827
1782811429503268600,4.0492685546875,0.17795242861807345,-0.10038272059485316,0.5645242267966271
1782811429513340400,4.05934033203125,0.11260814204812049,-0.07235372694060206,0.5830222987785935
1782811429523411500,4.069411376953125,0.05807224974036217,-0.17753054994419215,0.5686424757704138
1782811429533482500,4.079482421875,-0.007799275574088096,-0.28989699219092724,0.528969806073606
1782811429543554600,4.089554443359375,-0.05103577523231506,-0.3426801956124604,0.48161739552915095
1782811429553625600,4.09962548828125,-0.1365069040298462,-0.38352030165344475,0.4413347772404551
1782811429563696400,4.1096962890625,-0.24104747495651244,-0.4386537214629352,0.4182674976468086
1782811429573768400,4.1197685546875,-0.406304672652483,-0.5215172981105745,0.3696238782480359
1782811429583839500,4.129839599609375,-0.7097089428007602,-0.5884237194307148,0.2849415617406368
1782811429593911300,4.139911376953125,-1.1043979964613915,-0.6284114464260637,0.22168927901387214
1782811429603982300,4.149982421875,-1.5852058291733264,-0.6712889035135507,0.12233458629250525
1782811429614053400,4.160053466796875,-1.9884575439959764,-0.7067237895101308,-0.03618102818876505
1782811429624125400,4.17012548828125,-2.227701184400916,-0.6630670186132193,-0.3099503307908773
1782811429634196500,4.180196533203125,-2.2440596140056845,-0.6248156138911843,-0.5494011842057108
1782811429644267500,4.190267578125,-2.1877496977627278,-0.6771259391039609,-0.6058022858634591
1782811429654339600,4.200339599609375,-2.2901947577148674,-0.7203272213183343,-0.4975815651193261
1782811429664410400,4.210410400390625,-2.5611463725477455,-0.7073711475029587,-0.33713439805358647
1782811429674481400,4.2204814453125,-2.8351602975606918,-0.5010927881106734,-0.21126871502548455
1782811429684553500,4.230553466796875,-2.949193503975868,-0.1086245523046702,-0.0779167678952217
1782811429694624500,4.24062451171875,-2.934945198392868,0.37275326231494543,0.07473024681359529
1782811429704695600,4.250695556640625,-2.7044810767710206,0.7844214347619562,0.24015520229190587
1782811429714767400,4.260767333984375,-2.2389701819121837,0.9887313436254859,0.33407325691729783
1782811429724838400,4.27083837890625,-1.678184557121992,0.9759365247864276,0.2981552635788917
1782811429734910500,4.280910400390625,-1.0781348434358835,0.8526479987699538,0.14469532505199312
1782811429744981500,4.2909814453125,-0.4502542890161276,0.6695981739476323,-0.01540302857607603
1782811429755052500,4.301052490234375,0.0482715712159872,0.46265828190669417,-0.1345525550916791
1782811429765124600,4.31112451171875,0.39823534796535964,0.30768830414302645,-0.2774346932418644
1782811429775195400,4.3211953125,0.535519666108489,0.23638284414634106,-0.4662359942629933
1782811429785266400,4.331266357421875,0.5856593692839145,0.3004841449178755,-0.6342588572800159
1782811429795338500,4.34133837890625,0.6183025787353515,0.42747664001882074,-0.738403560756892
1782811429805409500,4.351409423828125,0.6305068112701178,0.561037699855119,-0.7945607706561684
1782811429815480600,4.36148046875,0.634553456312418,0.6378580508157611,-0.8502442255638539
1782811429825552400,4.371552490234375,0.6084808574229479,0.6729879625163973,-0.9756671332605182
1782811429835623400,4.38162353515625,0.5902981350004672,0.6602817718088626,-1.0786784487932919
1782811429845694500,4.391694580078125,0.6152122115045785,0.6204042271897197,-1.1486490799896418
1782811429855766500,4.4017666015625,0.7627075425386428,0.5840421433456242,-1.143930234774202
1782811429865837600,4.411837646484375,0.8948486525744199,0.5521629040040076,-1.0874794487558304
1782811429875908400,4.421908447265625,0.9185913472115993,0.4954787476211786,-0.9721097330398857
1782811429885980400,4.43198046875,0.8570587278842926,0.4648195515938103,-0.9298968773409724
1782811429896051500,4.442051513671875,0.7727747630447149,0.45348508763089773,-0.9605646950662136
1782811429906123500,4.45212353515625,0.689550536391139,0.5458978522598743,-0.9937852660141885
1782811429916194600,4.462194580078125,0.5117009836256504,0.5959839255519211,-0.8864799065493046
1782811429926265600,4.472265625,0.35294893004000183,0.5811961062647402,-0.7343865802004933
1782811429936337400,4.48233740234375,0.3193465201675892,0.5785002913095056,-0.6135404789000749
1782811429946408400,4.492408447265625,0.43933542011678217,0.5370484831109643,-0.553559034537524
1782811429956479500,4.5024794921875,0.7411246562838554,0.44590939167961474,-0.4924538468420505
1782811429966551600,4.512551513671875,1.129956800609827,0.2934907788991928,-0.4043383410155773
1782811429976622600,4.52262255859375,1.5442916349828242,0.1435286193601787,-0.35590573401898146
1782811429986693400,4.532693359375,1.9446756854146718,0.04838321489691734,-0.34981048588380215
1782811429996765400,4.542765380859375,2.245700366950035,-0.03397036640197038,-0.3826471720807254
1782811430006836500,4.55283642578125,2.3607430426687,-0.11426993778049944,-0.40942806537002324
1782811430016907500,4.562907470703125,2.34526373398602,-0.2035615016490221,-0.4213141718663275
1782811430026979300,4.572979248046875,2.207498938849568,-0.32845468638315795,-0.4366480807289481
1782811430037050400,4.58305029296875,1.9864251613855362,-0.4928634505562484,-0.45205300900116563
1782811430047121400,4.593121337890625,1.7440297789514063,-0.6542800471760333,-0.44968174982517956
1782811430057193500,4.603193359375,1.5634627839207649,-0.8494872697167098,-0.4372529147543013
1782811430067264500,4.613264404296875,1.380990247529745,-0.998371278630197,-0.44277810791656375
1782811430077336600,4.623336669921875,1.2121838329195975,-1.1027191034637391,-0.417827498794347
1782811430087407400,4.633407470703125,1.0057499907046556,-1.1336072859413922,-0.39452144200876355
1782811430097478400,4.643478515625,0.6906476839780807,-1.1098672216527163,-0.3743430157244205
1782811430107550500,4.653550537109375,0.37859833508133883,-1.0783940788939594,-0.419585302247107
1782811430117621500,4.66362158203125,0.11106266617178916,-1.0293192284710704,-0.4362079357460141
1782811430127692500,4.673692626953125,-0.14559680393636226,-0.958346434494853,-0.41176147675365204
1782811430137764400,4.683764404296875,-0.3398784360647201,-0.877562732861191,-0.35663813994675875
1782811430147835400,4.69383544921875,-0.5321218403637409,-0.875169992505759,-0.3297263137541711
1782811430157906400,4.703906494140625,-0.799541189417243,-0.9225329244442284,-0.41051629899814723
1782811430167978500,4.713978515625,-1.0861726039409636,-0.9955226112008094,-0.5053500071637332
1782811430178049500,4.724049560546875,-1.314088794645667,-1.052313735089451,-0.5775773312456906
1782811430188120300,4.734120361328125,-1.4048615369826554,-1.0890203945875168,-0.5924959373056888
1782811430198192400,4.7441923828125,-1.343641636866331,-1.1059642228648066,-0.5126175139486789
1782811430208262700,4.7542626953125,-1.2167366739183663,-1.1580930540308356,-0.4682995026640594
1782811430218333400,4.76433349609375,-0.9544324759215116,-1.1986908757485448,-0.48507878802940246
1782811430228405500,4.774405517578125,-0.5416179829835891,-1.1194907900445163,-0.4526522900685668
1782811430238476500,4.7844765625,-0.08780103304982184,-1.196001490534097,-0.3257984727859497
1782811430248548600,4.794548583984375,0.2216910325795412,-1.5336106664925813,-0.40512613039240236
1782811430258619600,4.80461962890625,-0.07839782941043376,-1.8893908744357526,-0.9004485184080898
1782811430268690700,4.814690673828125,-0.81558573076725,-2.1824482303537427,-1.5013991264566777
1782811430278762500,4.824762451171875,-1.484147255143523,-1.914026718520373,-1.6650902438797055
1782811430288833500,4.83483349609375,-2.291133499869704,-1.1844328524891286,-1.257437225358188
1782811430298904600,4.844904541015625,-3.264956320437789,-0.8894504467926919,-0.8682245572820305
1782811430308976600,4.8549765625,-3.830046948945522,-0.6192988962963223,-0.6100874158367514
1782811430319047700,4.865047607421875,-3.671404200953245,-0.2889501397948712,-0.38454175365567206
1782811430329118500,4.875118408203125,-3.0215280878245827,-0.10719320432730019,-0.19759017215445637
1782811430339190500,4.8851904296875,-2.0273072068721056,0.11549363435655832,0.10726605036780237
1782811430349261600,4.895261474609375,-1.1355600274443625,0.3233129395805299,0.43936976077780127
1782811430359332600,4.90533251953125,-0.5294073207080364,0.39798561098799107,0.6766013307079672
1782811430369404700,4.91540478515625,-0.15978256567716598,0.4516143253229558,0.8019615484319627
1782811430379475700,4.925475830078125,0.158422967761755,0.6329132878899574,0.9178161250554024
1782811430389546800,4.935546630859375,0.5033130945086479,0.8632631354823708,1.0159908142119645
1782811430399618600,4.94561865234375,0.8046352976858615,1.0338235541529952,1.0272875765129923
1782811430409689600,4.955689697265625,1.0756541325360536,1.1247490028336644,1.0682374265387653
1782811430419760600,4.9657607421875,1.236128187608719,1.1605810714542866,1.1722966436892748
1782811430429832700,4.975832763671875,1.1771160266697407,1.1860481056660412,1.232385347818583
1782811430439903500,4.985903564453125,1.021117071184516,1.255472793417424,1.2091526485301554
1782811430449975600,4.9959755859375,0.8528905022889375,1.2827337253086268,1.128287406092882
1782811430460046600,5.006046630859375,0.7093471237510443,1.2769151021577416,1.0212965194046497
1782811430470117600,5.01611767578125,0.570501547640562,1.1984916999146342,0.9259241743177175
1782811430480189400,5.026189453125,0.42151627030968664,1.053749613111466,0.7956704854637384
1782811430490260500,5.036260498046875,0.22119535801708698,0.9059064915530383,0.6001204408347607
1782811430500331500,5.04633154296875,0.03564531387686729,0.781405813267827,0.39239626654833554
1782811430510403600,5.056403564453125,-0.05164952321648597,0.7244168287195265,0.26862171058058737
1782811430520474600,5.066474609375,-0.0407382531017065,0.6824136702485382,0.19481471609175205
1782811430530545400,5.07654541015625,-0.03828618377447128,0.6950272142365574,0.26674334948807954
1782811430540617700,5.08661767578125,0.033711130943894385,0.7562786785349249,0.4268243135899305
1782811430550688500,5.0966884765625,0.14638883109688758,0.8404150515973567,0.6190303084880113
1782811430560759600,5.106759521484375,0.38249884965121744,0.8658332782313227,0.7624374934256076
1782811430570831600,5.11683154296875,0.6558674624979496,0.8309520805947482,0.8625815829589962
1782811430580902700,5.126902587890625,0.8638637317240238,0.7804166561000049,0.966696037428081
1782811430590973700,5.1369736328125,1.0109399605631828,0.7565174557268619,1.1513871266514062
1782811430601045500,5.14704541015625,1.156672958099842,0.7155610298298299,1.3067743799790739
1782811430611116500,5.157116455078125,1.265917761194706,0.6228694482594728,1.3615455423474312
1782811430621188600,5.167188720703125,1.3827292001515625,0.5804157695420086,1.3994418500214814
1782811430631259600,5.177259765625,1.4993202743560075,0.5419293870203197,1.480822202374041
1782811430641330400,5.187330322265625,1.592405385288596,0.4986306357808411,1.5503277002766727
1782811430651402500,5.197402587890625,1.6694605679184198,0.3806621357433498,1.609502066040039
1782811430661473500,5.2074736328125,1.6241688892960549,0.23422931937426328,1.5946858974412084
1782811430671544600,5.217544677734375,1.419700209674239,0.09538447391614317,1.512088862775266
1782811430681616600,5.22761669921875,1.1796025827884673,-0.004246989919990301,1.428301741541922
1782811430691687700,5.237687744140625,0.9085533528000116,-0.05181859617307782,1.340318045401573
1782811430701758700,5.2477587890625,0.6173053843915463,-0.09095759738460182,1.262018123407662
1782811430711830500,5.25783056640625,0.39777123758494853,-0.1254977264985442,1.146445578595996
1782811430721901600,5.267901611328125,0.24267303033173082,-0.13213131929412483,1.0332815562307833
1782811430731972600,5.27797265625,0.09020283349454403,-0.10150222614407539,0.951883960482478
1782811430742044700,5.288044677734375,-0.08554711664319038,-0.05160349211767316,0.9082508627220988
1782811430752115500,5.298115478515625,-0.2962567364811897,-0.056515229556709526,0.8243769399881362
1782811430762186500,5.3081865234375,-0.421722606536746,-0.05731719358935952,0.7238046881705522
1782811430772257500,5.318257568359375,-0.4321154057353735,-0.0511440579123795,0.6615224195197225
1782811430782328600,5.32832861328125,-0.44920974839925765,-0.06140168642401695,0.6204392985031009
1782811430792400600,5.338400634765625,-0.5877011042445898,-0.11700813057273626,0.5314399955794215
1782811430802471700,5.3484716796875,-0.9019956017196178,-0.16728578091412782,0.36247108388394117
1782811430812542700,5.358542724609375,-1.5006418783485889,-0.20439415308088063,0.07581190457046032
1782811430822614800,5.36861474609375,-2.1980460508495567,-0.13769304507449268,-0.23467677088081834
1782811430832685800,5.378685791015625,-2.7353777348160744,0.019380407774448393,-0.5460638564765453
1782811430842756600,5.388756591796875,-2.9473522600233553,0.0886526814430952,-0.8080503668263554
1782811430852828400,5.398828369140625,-2.9049995574623346,0.037466099563241005,-0.9201970288425684
1782811430862899500,5.4088994140625,-2.8744015901029107,-0.06473667606562376,-0.9080681996315717
1782811430872970500,5.418970458984375,-2.957317773720622,-0.07101824055314064,-0.7751347701743244
1782811430883042600,5.42904248046875,-3.0199288359344005,0.05542582688480615,-0.6410930872142314
1782811430893113600,5.439113525390625,-2.877401940962672,0.2933424564696848,-0.5732090530335903
1782811430903184600,5.4491845703125,-2.4687533355325457,0.45709816356152294,-0.4968322080567479
1782811430913256700,5.459256591796875,-1.8875643896609544,0.5625166863664984,-0.5124155616357923
1782811430923327700,5.46932763671875,-1.2135755795389414,0.5847990991927683,-0.5937909455522895
1782811430933398500,5.4793984375,-0.5654132845908403,0.47974546417742964,-0.5624807382702827
1782811430943470600,5.489470703125,-0.07065408341586589,0.24073373283222316,-0.5317530070513486
1782811430953541600,5.499541748046875,0.23760405650436878,-0.0683250559464097,-0.5703492796882986
1782811430963612700,5.50961279296875,0.41228316254019737,-0.3310121157810092,-0.7201508418381214
1782811430973684500,5.5196845703125,0.37402503581643104,-0.4590966439023614,-0.8320721706658601
1782811430983755500,5.529755615234375,0.2059486890465021,-0.3504055291675031,-0.804224086536467
1782811430993827600,5.53982763671875,0.13991992734372616,-0.15008403235301374,-0.7621075308188796
1782811431003898600,5.549898681640625,0.20412848788201807,0.051657560392469166,-0.7454688229680061
1782811431013969700,5.5599697265625,0.34219840344488617,0.2081212107799947,-0.7655509492710232
1782811431024041700,5.570041748046875,0.3837690157175064,0.2868682920195162,-0.8576911805689335
1782811431034112800,5.58011279296875,0.3425935402423143,0.36202874694392084,-0.9197083685427904
1782811431044183600,5.59018359375,0.38547581963539124,0.29667028571814297,-1.0391090933404863
1782811431054255400,5.60025537109375,0.5009159702390432,0.3721571961179375,-0.9457688386030495
1782811431064326400,5.610326416015625,0.7747142066746949,0.6038913376756012,-0.6437219744130969
1782811431074397400,5.6203974609375,1.2140326756566762,0.6958432067945599,-0.3644077510349452
1782811431084469500,5.630469482421875,1.3548609500169753,0.548462734311819,-0.2360138647034764
1782811431094540500,5.64054052734375,0.5339543164879084,0.3606250176258385,-0.33546018123105165
1782811431104611600,5.650611572265625,0.38789223312735555,0.22603943704739213,-0.48441506342366336
1782811431114683600,5.66068359375,0.3288742269694805,0.5087776435248553,-0.3279595963425934
1782811431124754700,5.670754638671875,0.37160219258368016,0.7357451552025973,-0.07766118569895625
1782811431134825700,5.68082568359375,0.3301075681567192,0.7667654396273196,0.08964344604611396
1782811431144897800,5.690897705078125,0.45460196283161636,0.6372177070856094,0.19730916325598954
1782811431154970600,5.700970703125,0.768384419131279,0.4110299476087093,0.1954820939593017
1782811431165041700,5.711041748046875,1.0376777453631163,0.3650375733710825,0.08758709803819656
1782811431175113700,5.72111376953125,0.866267285734415,0.3146276749521494,0.1370290282078087
1782811431185184500,5.7311845703125,0.9803986918270587,0.24606135759577152,0.4224076661914587
