time,seconds_elapsed,z,y,x
1782811618992714500,0.030714599609375,0.9344014952838421,-0.2650232476972043,0.5671080327447503
1782811619002786300,0.040786376953125,1.3011895655840635,-0.2017119282595813,0.7249187868922948
1782811619012858400,0.0508583984375,1.4167232396900653,-0.18598609746992587,0.7543646616071462
1782811619022930400,0.060930419921875,1.0749532907903194,-0.16173194617927072,0.660763271715492
1782811619033002500,0.07100244140625,0.26063714156746864,-0.2939334811653942,0.2602279031794518
1782811619043074300,0.08107421875,-0.6923328605860471,-0.3150039609186351,-0.15291187619008123
1782811619053146400,0.091146484375,-1.285076635172963,-0.11574256761632859,-0.33278497067242857
1782811619063218400,0.101218505859375,-1.4719734177470207,0.01170037466585636,-0.3179301505636424
1782811619073290200,0.111290283203125,-1.3675409833699463,0.10370134362354874,-0.19459124606680123
1782811619083362300,0.1213623046875,-0.8665449336320161,0.26453590257167814,0.03912329218573868
1782811619093434400,0.131434326171875,-0.2757657371163368,0.3824284147635102,0.26983616440426555
1782811619103505400,0.14150537109375,0.2108288623034954,0.3756172734439373,0.4912411465840414
1782811619113577500,0.151577392578125,0.8216343632817268,0.2807372419185936,0.6305164558812976
1782811619123649300,0.161649169921875,1.1819184585154057,0.004765753097087145,0.6926392231214791
1782811619133721300,0.171721435546875,0.8875953204452991,-0.31335999310389157,0.4648828991536051
1782811619143793400,0.18179345703125,0.39117724614739413,-0.38362215459272264,0.09548201600648462
1782811619153865200,0.191865234375,-0.3289256648957729,-0.2350422431923449,-0.14573182849287986
1782811619163937300,0.201937255859375,-0.808258164358139,-0.015204437264055013,-0.2860611403550953
1782811619174009600,0.212009521484375,-0.7348679339766502,0.2544597681067884,-0.3031499300610274
1782811619184081700,0.22208154296875,-0.6036731648802757,0.43407106984779237,-0.3010990619458258
1782811619194153500,0.232153564453125,-0.6061170509010553,0.4253443041652441,-0.3744225107014179
1782811619204225500,0.2422255859375,-0.5632441238582134,0.32076632383763787,-0.47235929944887756
1782811619214297600,0.252297607421875,-0.3136070997327566,0.2107889686845243,-0.6201918265480548
1782811619224369400,0.262369384765625,0.35114217287898064,0.2372024899661541,-0.6524520280312747
1782811619234441500,0.27244140625,1.2183610602498054,0.32016295111700893,-0.47520657863877713
1782811619244513500,0.282513427734375,2.0201567505955693,0.35287878741323947,-0.18946246834360062
1782811619254585600,0.292585693359375,2.560911979269981,0.2070883606009185,0.14548800979964435
1782811619264657400,0.302657470703125,2.7725410520404576,0.11566752961874008,0.48255182683505116
1782811619274729500,0.3127294921875,2.6172178038597105,0.21272680487930773,0.6142697430226951
1782811619284801500,0.322801513671875,2.333256485328078,0.4703869764626026,0.5400285949002951
1782811619294873600,0.33287353515625,2.2373037100046873,0.7507512934155762,0.38743696364052593
1782811619304945400,0.3429453125,1.9927175395280121,0.8897193268619478,0.19301628836765886
1782811619315017500,0.353017578125,1.5499287640869617,0.9547551320046186,0.006101897071674466
1782811619325089500,0.363089599609375,1.3385294084191321,0.9299877704948186,-0.260550632327795
1782811619335161300,0.373161376953125,1.225146774867177,0.9738862411931156,-0.475341018673405
1782811619345232400,0.383232421875,1.1441221040844916,1.1957885784357785,-0.5221303885076195
1782811619355304400,0.393304443359375,0.8770224885046481,1.3532099679395555,-0.568232872056216
1782811619365376500,0.40337646484375,0.33434593637883664,1.329766256248951,-0.8330947917118668
1782811619375448600,0.413448486328125,0.09637947630286216,1.4828858569055794,-0.9508156736638397
1782811619385520400,0.423520263671875,0.0926829598724842,1.6603060783430934,-1.0196433453701437
1782811619395592400,0.433592529296875,0.30956103921234607,1.7030051101237536,-1.2821423352867365
1782811619405664500,0.44366455078125,0.3796943136245012,1.6511366834595798,-1.6207288318447768
1782811619415736300,0.453736328125,0.4653144955039024,1.282711951868236,-2.055419641026109
1782811619425808400,0.463808349609375,0.4254126932263374,0.39354952823668715,-2.0707405442766844
1782811619435880400,0.47388037109375,0.5492652828663587,-0.8702756445929407,-1.5370359647661447
1782811619445952500,0.483952392578125,-0.13748422462940216,-2.141787572532892,-0.23156521473154423
1782811619456024300,0.4940244140625,-2.5228911684334276,-2.674187353055179,1.2155527248308062
1782811619466096400,0.504096435546875,-5.965618715703487,-2.365189792944491,1.7135536844059824
1782811619476168400,0.51416845703125,-9.958979911583661,-1.504593538583815,1.2376260249510407
1782811619486240500,0.524240478515625,-12.615417965197562,-0.5654793355643749,0.44089536290988324
1782811619496312300,0.534312255859375,-13.323346454322337,-0.40180239279717206,-0.2901386919923126
1782811619506384400,0.54438427734375,-12.756098355519772,-1.3026865261435507,-1.1961971592366694
1782811619516456400,0.55445654296875,-11.281979742437601,-2.391288695318997,-1.899903646752238
1782811619526528300,0.5645283203125,-9.556955692729353,-3.265778450475633,-2.18641143489629
1782811619536600300,0.574600341796875,-7.486008081573248,-3.6359643465206024,-1.9631961153589188
1782811619546672400,0.58467236328125,-5.517368167725205,-3.861315947434306,-1.5237819309175014
1782811619556744400,0.594744384765625,-3.6733366303205486,-3.901831205435097,-0.8099897373910993
1782811619566816500,0.60481640625,-1.8655004418909549,-3.8728164156138893,-0.005798530210927129
1782811619576887300,0.61488720703125,-0.5708265418112277,-3.8474560566470024,0.5190519309103488
1782811619586959400,0.62495947265625,-0.04157470392584801,-3.8047131857246157,0.628640286745876
1782811619597031400,0.635031494140625,-0.07920446961820125,-3.753365860325098,0.32296748714372514
1782811619607103200,0.645103271484375,-0.3386947792381048,-3.539037173207104,-0.050072775419056414
1782811619617175300,0.65517529296875,-0.959677975359559,-3.281771261638403,-0.3568995673619211
1782811619627247400,0.665247314453125,-1.4756594127833842,-2.7899153806895014,-0.5631681360125541
1782811619637319700,0.675319580078125,-1.4373492636114358,-1.8354966410323976,-0.5075067468062043
1782811619647391500,0.6853916015625,-0.44649522874355313,-0.7453110020577907,-0.08790171694532037
1782811619657463600,0.695463623046875,1.2535182983487845,0.07707359506934881,0.5410425211831927
1782811619667535600,0.70553564453125,3.3082477651536464,0.5525257459670305,1.092186457403004
1782811619677607400,0.715607421875,5.4641977185517545,1.5156354493409394,2.5265841777324676
1782811619687679500,0.725679443359375,7.146028523221611,2.626586228446662,4.626768989288807
1782811619697751600,0.73575146484375,7.8042767433762545,3.1627251954972744,3.028515462493896
1782811619707823600,0.74582373046875,7.960130737432837,3.579013209764659,2.8604110586732623
1782811619717895400,0.7558955078125,8.083499927470088,3.419775710749626,2.553260003212094
1782811619727967500,0.765967529296875,7.761172345665097,2.823930170755088,2.028028360753506
1782811619738039600,0.77603955078125,7.2021467162847514,2.2151731267392636,1.8888729880414903
1782811619748111400,0.786111328125,6.543833614200353,1.879812168098986,1.8812972920902071
1782811619758183400,0.796183349609375,6.089034082970023,1.8841437675625086,1.8622711045809088
1782811619768255500,0.80625537109375,5.815114850503206,2.0713357336908578,1.9656104830242693
1782811619778327600,0.81632763671875,5.728192938375472,2.250211706894636,2.163923708756268
1782811619788399400,0.8263994140625,5.781473277664184,2.4057407067805525,2.3799944172360004
1782811619798470400,0.836470458984375,5.744072060030699,2.576923202872276,2.520473585897684
1782811619808542500,0.84654248046875,5.741973626446724,2.737708223590255,2.593449390259385
1782811619818614500,0.856614501953125,5.721437618896365,2.8879309337615964,2.622237677848339
1782811619828686600,0.8666865234375,5.652008693361282,2.813378089341521,2.556365860272944
1782811619838758400,0.87675830078125,5.636583160692453,2.4449285155698655,2.2567682889312506
1782811619848830500,0.88683056640625,5.602508457133173,1.967050014308095,1.8749356481038033
1782811619858902500,0.896902587890625,5.50417317058742,1.5783169464424252,1.5633338968440889
1782811619868974300,0.906974365234375,5.345055790820718,1.3438497266590594,1.300640407268703
1782811619879046400,0.91704638671875,5.257005751445889,1.2470894343450665,1.0542876655109226
1782811619889118500,0.927118408203125,5.213784449356794,1.2560785042256115,0.7307384329564869
1782811619899190500,0.9371904296875,5.176068174424767,1.4792583140581845,0.4324661188691854
1782811619909262300,0.947262451171875,5.126244113069772,1.7326921001181006,0.2561868841603398
1782811619919334400,0.95733447265625,4.912163555493951,1.9121195697247981,0.23220921172350645
1782811619929406500,0.967406494140625,4.562372212702035,2.3014073488637803,0.2659919465988874
1782811619939478300,0.977478271484375,3.9531957742303607,2.8916131294056773,0.2828485349841416
1782811619949550300,0.98755029296875,2.536260937616229,3.4291400436833497,0.31323753576800223
1782811619959622400,0.997622314453125,0.3475216442942619,3.883958571875095,0.06476685200817883
1782811619969694500,1.007694580078125,-1.6081769549161196,4.101044741007685,-0.2424493776436895
1782811619979766300,1.017766357421875,-2.4970167224645614,3.982742771232128,-0.810241593260318
1782811619989838300,1.02783837890625,-2.337067568048835,3.284287043851614,-1.5879542510986326
1782811619999910400,1.037910400390625,-1.5349965678930282,1.5524112285524605,-2.5396464884012935
1782811620009981400,1.0479814453125,-1.257508244767785,-1.1022095465064048,-3.0753079010680318
1782811620020053500,1.058053466796875,-1.8167530698567629,-4.240006052452325,-2.594219790109992
1782811620030125300,1.068125244140625,-2.743612479197979,-7.295326519763469,-1.2288396380357443
1782811620040197400,1.078197265625,-4.443691472741961,-9.293097835549712,0.27375761216431854
1782811620050269400,1.08826953125,-7.3525254938006395,-8.369030687275528,0.11010335615295916
1782811620060341200,1.09834130859375,-12.604273470848797,-5.404815555256604,-0.27413166964109986
1782811620070413300,1.108413330078125,-17.844422195518014,-3.2506799578040835,0.18815116654932498
1782811620080485400,1.1184853515625,-20.83133606607914,-1.8793848825976252,0.308044424104318
1782811620090557400,1.128557373046875,-21.40456499285698,-1.1905834110081195,0.01934475193917751
1782811620100629500,1.13862939453125,-19.737595072710512,-1.6715841359436512,-0.2531890175186097
1782811620110701600,1.14870166015625,-15.727228966015577,-3.0108479961171746,-0.4921152625374496
1782811620120773600,1.158773681640625,-10.637740758413075,-4.377016814351082,-1.0017340330615638
1782811620130845400,1.168845458984375,-5.7977440289855,-5.605253956449031,-1.8872177681803701
1782811620140917500,1.17891748046875,-1.9497949281245468,-6.798667622447013,-2.702065247800946
1782811620150989600,1.188989501953125,0.6056067632913589,-7.221122050389647,-3.3172070244178173
1782811620161061600,1.1990615234375,1.5316840823441742,-6.513288838332891,-3.6583816377729175
1782811620171133400,1.209133544921875,0.7474749020934105,-4.868257778272032,-3.7595880958408117
1782811620181205500,1.21920556640625,-0.9152934747099876,-2.8556097958713766,-3.2203070313721893
1782811620191277600,1.229277587890625,-2.3816671727538106,-1.1275634757325053,-2.385821662084758
1782811620201349400,1.239349365234375,-3.270099528545141,0.1723474482178688,-1.5569706454224883
1782811620211420400,1.24942041015625,-2.7689678697288036,1.0987222889125345,-0.613716566119343
1782811620221492500,1.259492431640625,-0.7335662037283182,1.3893059481933712,0.2893615701399743
1782811620231564500,1.269564453125,1.9454525150060653,1.08331633772701,0.8089870631545781
1782811620241636600,1.27963671875,4.555087316390872,0.4116045326262712,0.8383722937233745
1782811620251708400,1.28970849609375,6.683483492431044,-0.25299188751131296,0.6500016392044723
1782811620261780500,1.299780517578125,8.060211990863085,-0.6326619434773921,0.7131701891705393
1782811620271852500,1.3098525390625,8.638975755414366,-0.6965399568870663,1.0073910359099507
1782811620281924600,1.319924560546875,8.703710970175266,-0.38424189392626285,1.3753854132600127
1782811620291996400,1.329996337890625,8.234796404352783,0.15510814412534235,1.7655615195408463
1782811620302068500,1.340068359375,7.374728557780385,0.7365913967683911,2.094674377571791
1782811620312140500,1.350140625,6.652993661621212,1.2770935274645685,2.347325927212834
1782811620322212400,1.36021240234375,6.089272567901015,1.6319602738246322,2.504813075429201
1782811620332284400,1.370284423828125,5.720932007461786,1.7845245786860584,2.6277070491701364
1782811620342356500,1.3803564453125,5.766586089655757,1.76497641312927,2.7016484836935994
1782811620352428500,1.390428466796875,6.038505672737956,1.5986974711701274,2.6895892125874754
1782811620362500400,1.400500244140625,6.131235978883504,1.3996242208510636,2.719867446473241
1782811620372572400,1.410572509765625,6.049119421210885,1.2339464596554637,2.7660563661962745
1782811620382644200,1.420644287109375,5.9690942828595634,0.9731997202336787,2.6437831547021866
1782811620392716300,1.43071630859375,5.923772793620825,0.6990580771878361,2.434493484664708
1782811620402788000,1.4407880859375,5.8505994208604095,0.499345944443345,2.2134110855028033
1782811620412859000,1.45085888671875,5.822542370155453,0.39861061101853845,2.091448985784501
1782811620422931000,1.460930908203125,5.716901144510508,0.4921136551022529,2.0140636944174766
1782811620433003300,1.471003173828125,5.081866042160987,0.7880868984669447,1.870449150339514
1782811620443075000,1.481074951171875,4.481895823451876,1.261482701356709,1.7802363799728451
1782811620453147100,1.491147216796875,4.513922946831584,1.768031416785717,1.9845932697832582
1782811620463219200,1.50121923828125,4.686662024715543,2.0982757630646227,2.2703400104269384
1782811620473291300,1.511291259765625,4.268125062477589,2.3056851723134515,2.234294445186108
1782811620483363000,1.521363037109375,3.058313219386339,2.382742400769889,1.910641752257198
1782811620493435100,1.53143505859375,0.7800877164065837,2.2326246122777462,0.9830617735564708
1782811620503507200,1.541507080078125,-2.4944331357121468,2.065836551752686,-0.5764795991368592
1782811620513579000,1.5515791015625,-6.1880035757660865,2.223614791870117,-1.9881706898786127
1782811620523651000,1.561651123046875,-8.072851692205667,1.9983643132433293,-2.7380548450708386
1782811620533723100,1.57172314453125,-7.270822193104029,1.0019754406020045,-2.1731299285188315
1782811620543795200,1.581795166015625,-6.079673549428581,-0.7227306291982531,-1.8366839511208235
1782811620553867000,1.591866943359375,-6.399440925356745,-3.2258179037481542,-2.4915806688904762
1782811620563939000,1.60193896484375,-8.094919731628893,-6.019863516110181,-3.4603473751127716
1782811620574011100,1.61201123046875,-10.358663120269775,-5.92672813629508,-5.316266918709874
1782811620584083200,1.622083251953125,-12.765240277874469,-3.012312807972729,-5.480630966958404
1782811620594155000,1.632155029296875,-13.7556892390728,-0.6419023577705025,-3.113302992941439
1782811620604226000,1.64222607421875,-13.348691323459148,0.8688573022276163,-1.213956395550072
1782811620614298000,1.652298095703125,-12.291342662942409,1.1834484445616602,-0.8172927538808434
1782811620624370200,1.6623701171875,-10.43627710582614,0.12697861270606517,-0.9598401071187108
1782811620634442000,1.67244189453125,-8.878240438607335,-1.1603136526897548,-1.2282995398096739
1782811620644514000,1.68251416015625,-7.652839396718144,-1.6983491010114549,-1.7117849211677907
1782811620654586000,1.692586181640625,-6.145457980981469,-1.5429299912407994,-2.0119126538634298
1782811620664658200,1.702658203125,-4.2041117322504515,-1.4691738501563667,-2.0327334697045383
1782811620674730000,1.71272998046875,-2.104144362837076,-1.4625664147153496,-1.9813614482551811
1782811620684802000,1.722802001953125,-0.039893618971109386,-1.4753832261905073,-2.1561108430482445
1782811620694874000,1.7328740234375,1.4579893160581587,-1.2614137277737258,-2.214217725710571
1782811620704946000,1.74294580078125,2.113810601326823,-0.7214715690478682,-1.869191843754798
1782811620715018000,1.75301806640625,1.6872931617289781,0.06728314567804336,-1.1820887005157767
1782811620725090000,1.763090087890625,0.41503626064062116,0.7523392932593822,-0.6068988489285111
1782811620735162000,1.773162109375,-0.5655564924538136,1.2097004916712641,-0.15309519686773418
1782811620745234000,1.78323388671875,-0.2924871548146009,1.4612015561029315,0.42934068032503125
1782811620755306000,1.793305908203125,0.9495645776242018,1.3986901548713444,1.0949452545918523
1782811620765378000,1.8033779296875,2.5536487102687357,1.0677930437721312,1.6119829230703413
1782811620775450000,1.8134501953125,4.242488516917825,0.7894966191343963,2.0286765955291686
1782811620785522000,1.82352197265625,5.822185811802744,0.5187094010829926,2.3785475794285533
1782811620795593000,1.833593017578125,6.974998002821207,0.18870032486468552,2.5469383989751337
1782811620805665000,1.8436650390625,7.57860102507472,-0.13540186539739368,2.5223046007171273
1782811620815737000,1.853737060546875,7.646015688177942,-0.18616759151667356,2.4734382784783837
1782811620825809000,1.863808837890625,7.296584995391965,0.08964403056800364,2.4493368335314094
1782811620835881000,1.873880859375,6.944758931902051,0.2506308574683964,2.3619378054112197
1782811620845953000,1.883953125,6.616782530555128,0.2750947059869766,2.2391614667005837
1782811620856025000,1.894025146484375,6.2317801736503835,0.19897607355490327,2.1097104725316167
1782811620866097000,1.904096923828125,5.9039814669579265,0.050977469173818825,2.0128342987529932
1782811620876169000,1.9141689453125,5.6981526048988105,-0.09086158966422081,1.8549618044808507
1782811620886241000,1.924240966796875,5.673817789587378,-0.24402999789863825,1.7079028190374372
1782811620896313000,1.93431298828125,5.815217726355791,-0.4595059553556144,1.6457957608230411
1782811620906385200,1.94438525390625,5.605747292923927,-0.6334412572868168,1.2740135354973374
1782811620916457200,1.954457275390625,5.263986696374416,-0.6646259384930133,0.94754900001809
1782811620926529300,1.964529296875,5.02505285257101,-0.554188418482244,0.8665484407633542
1782811620936601000,1.97460107421875,4.714415708559751,-0.33368031207695603,0.9540358778193593
1782811620946673200,1.984673095703125,4.567590824133157,0.012287673034518956,0.9733810681499541
1782811620956745200,1.9947451171875,4.7027264398097985,0.32918066257014866,0.9230420430101454
1782811620966817000,2.004817138671875,4.837044893884658,0.4121972378224134,0.8693914091043173
1782811620976889000,2.01488916015625,4.846801733267307,0.5081462137535214,0.48446036387011404
1782811620986960100,2.024960205078125,4.372725254637003,0.7405123696044087,0.0003388765655457973
1782811620997032200,2.0350322265625,2.764157254576683,0.9104390204161406,-0.4355754830613732
1782811621007104300,2.045104248046875,0.5773538977533579,0.7078112924858927,-0.9681723935909569
1782811621017176000,2.055176025390625,-1.9682050295621156,0.3529290562957525,-1.3720312805265187
1782811621027248000,2.065248046875,-4.314434393709898,0.27534692718237636,-1.5474261336162685
1782811621037320200,2.0753203125,-5.955588904598355,0.1594242537587881,-1.6200880497232077
1782811621047392300,2.085392333984375,-6.740526399123668,-0.8600877203166485,-1.5556749065235256
1782811621057464000,2.095464111328125,-6.8808601679652925,-2.615827518545091,-1.2054242756567894
1782811621067536100,2.1055361328125,-7.610186834427714,-4.926314245921373,0.11472674163728952
1782811621077608200,2.115608154296875,-9.011516690152883,-7.053293540900945,1.2688593676045536
1782811621087680000,2.125679931640625,-10.328279672443866,-5.912493859237432,-0.7430286632742732
1782811621097752000,2.135751953125,-12.563435264503955,-2.504011695918441,-2.490426822680235
1782811621107824000,2.14582421875,-14.795226348567008,-0.8008733148038387,-1.904960345619917
1782811621117896200,2.155896240234375,-16.696799974358083,-0.033569968907535074,-1.0464004193924368
1782811621127968000,2.165968017578125,-17.718352514350414,0.5125520474970341,-0.7241749827876687
1782811621138040000,2.1760400390625,-16.51291172595024,0.40298458831906314,-0.6587681523755192
1782811621148112100,2.186112060546875,-12.892304815298319,-0.5390142302259803,-0.6163247758563608
1782811621158184000,2.196183837890625,-8.498667121013998,-2.026075326989591,-0.8984643588535487
1782811621168255000,2.2062548828125,-4.103327298986912,-3.6248096230387685,-1.257355100032687
1782811621178327000,2.2163271484375,-0.3294096490204334,-4.682016829258203,-1.1742553765416144
1782811621188399000,2.226399169921875,2.1822499313026666,-4.892826402339339,-0.7525782165817916
1782811621198471200,2.23647119140625,3.3461388121306896,-4.211019027420878,-0.16992716226838528
1782811621208543000,2.24654296875,3.3559441668301817,-2.950032292887568,0.4411698690023273
1782811621218615000,2.256614990234375,2.6496318807303902,-1.6251050011023878,1.0618675261806696
1782811621228687000,2.26668701171875,1.6994933026105163,-0.5640180308401584,1.4840136918917297
1782811621238759200,2.27675927734375,1.1088456235200166,0.09596125089079141,1.5049024584025144
1782811621248831000,2.2868310546875,1.0291472329050302,0.42914618066623805,1.3257701723501085
1782811621258903000,2.296903076171875,1.7024585821568965,0.656362552538514,1.2881079656928778
1782811621268975000,2.30697509765625,2.652471488070488,0.8837536964558065,1.4260956097997723
1782811621279047000,2.317046875,3.5972605218559504,1.1164733419194817,1.6211381432980299
1782811621289119000,2.327118896484375,4.491863675236702,1.3297719553373752,1.8808176918797195
1782811621299191000,2.33719091796875,5.144324544161558,1.471532395981252,2.169719535553455
1782811621309263000,2.34726318359375,5.280835539844632,1.634599390156567,2.289026006196439
1782811621319335000,2.3573349609375,5.482302115041017,1.820066724449396,2.5088790096938607
1782811621329407000,2.367406982421875,6.288373583009839,2.0830311399206516,2.57506909943819
1782811621339479000,2.37747900390625,7.375254627481103,2.29183141900599,2.4397889607243237
1782811621349550000,2.387550048828125,8.337904896649718,2.4652958885550498,2.2541329719915986
1782811621359622000,2.397621826171875,8.86041836619079,2.6804545967563986,2.1126345432847735
1782811621369694000,2.40769384765625,9.007730157351494,2.733402927611768,1.9996677970573304
1782811621379766000,2.41776611328125,8.770298534804581,2.381130873920023,1.7495412358492612
1782811621389838300,2.42783837890625,8.325148875451088,1.792807838384807,1.4002297855287789
1782811621399910100,2.43791015625,7.824204848161339,1.1029235399946569,1.0774258914489299
1782811621409982500,2.447982421875,7.411434194365143,0.48694998872876166,0.8415760582007468
1782811621420054500,2.458054443359375,6.909936040323973,0.06206570329070091,0.58967525386177
1782811621430126300,2.468126220703125,6.225302502068877,-0.08046294524669646,0.4541781844615936
1782811621440198400,2.478198486328125,5.380233487185835,0.057684711727499956,0.4186052782338112
1782811621450270500,2.4882705078125,4.703674534314871,0.33678748431205746,0.3460820399452001
1782811621460342500,2.498342529296875,4.560674176612496,0.5365367341965437,0.1979037681482732
1782811621470414300,2.508414306640625,4.556348130106926,0.5827633555814623,0.12844890445433557
1782811621480486400,2.518486328125,4.349628456687927,0.5385682400241494,0.06448635456636548
1782811621490558500,2.528558349609375,3.8512534031033514,0.38303748657256365,-0.16722236028909682
1782811621500630300,2.53863037109375,2.852776618272066,0.3844984990358352,-0.44706309175938364
1782811621510702300,2.548702392578125,0.8871458231121301,0.5505354489326477,-0.6222542389705776
1782811621520773400,2.5587734375,-1.5898083545327186,0.7220379707589745,-0.5439307899706065
1782811621530845400,2.568845458984375,-4.312914636796712,0.7424573661923408,-0.6601315496832132
1782811621540917500,2.57891748046875,-6.942008171889185,0.3103241325393319,-1.0697635401275007
1782811621550989300,2.5889892578125,-7.727096473062038,-0.7663137503370642,-1.3076838960394261
1782811621561061400,2.599061279296875,-6.199726162263751,-2.1332918391272426,-1.253651277078688
1782811621571133400,2.609133544921875,-5.1301732692122455,-3.5372049893438815,-0.6185184865083545
1782811621581205200,2.619205322265625,-5.9882858900636435,-4.934278941190242,0.31281974874734875
1782811621591277300,2.62927734375,-6.938701531559229,-5.466327131795883,-0.17350100216716527
1782811621601349400,2.639349365234375,-7.056390337872505,-4.44123180463016,-1.6914869601570068
1782811621611421400,2.64942138671875,-7.189888123214244,-3.896478446230292,-2.0797465652920306
1782811621621493200,2.6594931640625,-7.11152887224853,-4.384655930927395,-1.766115938553214
1782811621631565300,2.6695654296875,-7.6208742326587435,-4.424176917193829,-1.4020523247808216
1782811621641637400,2.679637451171875,-9.133983378392458,-3.841865397033095,-1.2888305808790028
1782811621651709400,2.68970947265625,-10.300824679285288,-2.9806591940805314,-1.4252350474476814
1782811621661781200,2.69978125,-9.815318459624052,-2.171328139793873,-1.7450234661638735
1782811621671853300,2.709853271484375,-7.495435835132002,-1.8528943505570292,-1.822100714495033
1782811621681925400,2.71992529296875,-4.691114327949285,-2.2918489546626803,-1.7443338764645158
1782811621691997200,2.7299970703125,-2.0561814191788432,-3.011305676756799,-1.9183689855083823
1782811621702068200,2.740068115234375,0.012297171515226364,-3.3329330013379455,-1.9611862368412314
1782811621712140300,2.750140380859375,0.7090981174260378,-2.970073502658307,-1.6171166326969861
1782811621722212400,2.76021240234375,0.1687128911077976,-1.9210832129031419,-1.0202436493508518
1782811621732284400,2.770284423828125,-0.4502303236186504,-0.5833019925028086,-0.4169673748336732
1782811621742356200,2.780356201171875,-0.591902647587657,0.4563213339701295,0.23188582498803734
1782811621752428300,2.79042822265625,-0.33803485402464867,1.0970189921259879,0.7529729149878025
1782811621762500400,2.800500244140625,0.3489408634424209,1.543986222295463,1.21593251792863
1782811621772572200,2.810572265625,1.6196294923007488,1.8907798445761204,1.6554371571324764
1782811621782644200,2.820644287109375,3.3640216748237606,1.9791560471653937,2.017298146294057
1782811621792716300,2.83071630859375,5.106201441994309,1.745114067056775,2.2700353283919394
1782811621802788400,2.840788330078125,6.395451563459634,1.3785463615089655,2.3503778621293603
1782811621812860200,2.850860107421875,7.205530513504147,1.075849070586264,2.3232257974401116
1782811621822932200,2.86093212890625,7.7831608901113265,0.8110776056930422,2.3414478289596734
1782811621833004300,2.87100439453125,7.967121619233488,0.6537041469842195,2.420386633379012
1782811621843076400,2.881076416015625,7.682998388138413,0.6024279871247709,2.4203486394561824
1782811621853148200,2.891148193359375,7.242784431621432,0.6143291450597346,2.3570715145491064
1782811621863220200,2.90122021484375,6.685870679828525,0.8098372502431272,2.3044658596515655
1782811621873291300,2.911291259765625,6.276607157370448,1.0745517242521048,2.226657666697353
1782811621883363300,2.92136328125,5.886100942352414,1.3100742983072995,1.9693708584710954
1782811621893435100,2.93143505859375,5.4826458139121526,1.3940375067599118,1.7022297418370842
1782811621903507200,2.941507080078125,5.361650367268919,1.4054722162269055,1.5719545718036592
1782811621913579300,2.951579345703125,5.6801756341814995,1.4093984497599303,1.5997843896239996
1782811621923651300,2.9616513671875,6.303818404901027,1.2845542187340557,1.6532881624050437
1782811621933723100,2.97172314453125,6.735776574248075,0.92946769214347,1.6944174606509506
1782811621943795500,2.98179541015625,6.891299728915095,0.6431814377956092,1.7787465798065065
1782811621953867500,2.991867431640625,6.665154639536142,0.564968171171844,1.7737424879088997
1782811621963939300,3.001939208984375,6.021257016295194,0.4807403204336762,1.6372789846293627
1782811621974011400,3.012011474609375,5.230435139906406,0.32359190265238286,1.3494748730644583
1782811621984083500,3.02208349609375,4.502769100132585,0.05735533364266157,0.8697634572871029
1782811621994155500,3.032155517578125,3.8032612333506344,-0.1041749524846673,0.3988125633314252
1782811622004227300,3.042227294921875,2.9402982498586177,-0.06485562627017498,0.037465295845642684
1782811622014299400,3.05229931640625,1.880155574709177,0.18388386449366806,-0.1427143073026091
1782811622024371500,3.062371337890625,0.39239714333117004,0.3771931444585323,-0.11706767874024808
1782811622034443300,3.072443359375,-1.8596710050851106,0.18072890759408472,-0.34988398951143024
1782811622044514300,3.082514404296875,-4.215162118574977,-0.49892684224843975,-0.8821016914650798
1782811622054586400,3.09258642578125,-5.5227434310227626,-1.5339397523164748,-1.374126791501045
1782811622064658400,3.102658447265625,-5.49151067289114,-2.810139253550768,-1.2934465502418577
1782811622074730500,3.11273046875,-5.154553677231073,-3.993651118737459,-0.5243246106162667
1782811622084802300,3.12280224609375,-5.486330055382847,-4.492979527524113,0.04219605069458485
1782811622094874400,3.132874267578125,-7.101660973706841,-3.706904845662415,-1.0596753498986362
1782811622104946400,3.142946533203125,-9.302932416343689,-1.7741367479234933,-3.101749041008949
1782811622115018200,3.153018310546875,-11.823290266907215,0.0332116569891572,-4.418954506370425
1782811622125090300,3.16309033203125,-13.53781688799858,0.8111912952005863,-4.622791317829489
1782811622135162400,3.173162353515625,-14.02770000756979,0.5126996392741799,-4.227019437368214
1782811622145234400,3.183234375,-13.235060268104075,-0.14339987841397522,-3.734715520390868
1782811622155306200,3.19330615234375,-12.411681691503524,-0.7153919568732381,-3.5015310338944197
1782811622165378300,3.20337841796875,-11.207496456122398,-0.9342069956250488,-3.6189874927565455
1782811622175450400,3.213450439453125,-8.634882348620891,-0.8112041546821593,-3.253006354925036
1782811622185522400,3.2235224609375,-5.785679497182369,-0.7506460794754326,-2.3246637212887404
1782811622195594200,3.23359423828125,-3.1497511476337907,-0.8483201256334781,-1.4919500378489494
1782811622205666300,3.243666259765625,-0.780087131884694,-1.2923013257294893,-0.992116017627716
1782811622215737300,3.2537373046875,1.0393728588432074,-1.7693987596161662,-0.7924290193244814
1782811622225809400,3.263809326171875,1.8520698824316262,-2.0535693369843067,-0.7868062110066414
1782811622235881200,3.273881103515625,1.9520278017431496,-1.8299639952160418,-0.9370774364948272
1782811622245953300,3.283953369140625,1.5742314306944607,-1.3177061083599924,-0.8921844018012285
1782811622256025300,3.294025390625,1.273905252817273,-0.6795858994767069,-0.36909897759109733
1782811622266097400,3.304097412109375,1.7317898905813693,-1.0039272322569042,0.07794190233647823
1782811622276169200,3.314169189453125,3.1415906375318765,-1.4273615380823612,0.7536310866355895
1782811622286241300,3.3242412109375,4.562105086198449,-1.0109057660326362,1.9536302685037255
1782811622296313300,3.334313232421875,4.93064672216773,-1.1047976633034646,2.8512998237177727
1782811622306385200,3.34438525390625,4.64919826323986,-1.5134556210838257,3.0629306500539184
1782811622316457200,3.354457275390625,4.40258964702487,-1.6446102043002844,3.1332948106124996
1782811622326529300,3.364529296875,4.429633136773109,-1.5239948430158197,3.2635078751951454
1782811622336601300,3.374601318359375,4.447278099057078,-1.253887277791649,3.110893593712151
1782811622346673200,3.384673095703125,4.14223366048634,-1.5546347498208284,2.4183470903754234
1782811622356745200,3.3947451171875,1.7058663447737692,-2.515107967211306,1.2037161565646528
1782811622366817300,3.4048173828125,-0.08440729895830154,-3.1497967403411864,0.5396347002118825
1782811622376888300,3.414888427734375,-0.9154378516167402,-2.9040020708575844,1.0319316029265522
1782811622386960400,3.42496044921875,-0.36148528771698474,-2.372390225842595,1.7950284370437264
1782811622397032200,3.4350322265625,0.40467210301458834,-2.1487805001601576,2.1254346958860753
1782811622407104300,3.445104248046875,0.055390463310480115,-1.77394707057029,2.5080668165281415
1782811622417176300,3.45517626953125,-0.40186230629086495,-1.2771663004398346,2.8570354447603226
1782811622427248000,3.465248046875,-0.13255261344611644,-0.9367806455053389,2.917305789066851
1782811622437320200,3.4753203125,0.15704291158020495,-1.2560114303387702,2.7023791360557077
1782811622447392300,3.485392333984375,0.06257774446606636,-0.700875794134289,2.584550044488907
1782811622457464300,3.49546435546875,0.5321306081920862,0.9432124321185051,2.240843574568629
1782811622467536100,3.5055361328125,1.836137569284439,2.520195353478193,1.6110782293155788
1782811622477608400,3.5156083984375,2.475579382160306,3.188464616909623,0.7636649893939494
1782811622487680500,3.525680419921875,2.6255454872220754,3.4135677960202098,-0.3240658037744462
1782811622497752300,3.53575244140625,2.484452424445748,3.3070103323131796,-0.9728595284938811
1782811622507824400,3.545824462890625,-1.4524281747996806,3.415447326156497,-1.3611146035842596
1782811622517896400,3.555896484375,-1.43661393507421,3.894292918884754,-1.70189700275138
1782811622527968500,3.565968505859375,-0.2975666500359773,4.266006755149364,-2.3945380525037643
1782811622538039300,3.576039306640625,0.722341045358777,4.758184123137593,-2.469325582462549
1782811622548111400,3.586111328125,1.6073837587118147,4.031270070774853,-1.9745565905459224
1782811622558183400,3.596183349609375,1.4738906495451927,2.1101681531712413,-1.3555351960167288
1782811622568255500,3.60625537109375,0.5694961699903011,-0.1041553710013628,-1.1635363410633057
1782811622578327300,3.616327392578125,-0.8879133003532886,-1.9970082224592565,-1.3510586351245641
1782811622588399400,3.6263994140625,-1.8447972610801457,-2.1945415498599408,-0.6664791651442646
1782811622598471400,3.636471435546875,-2.1908792279601097,-1.5075205319464207,0.6921797158509493
1782811622608543500,3.64654345703125,-2.28418470364511,-1.1180097577065229,0.8809533251475542
1782811622618615300,3.656615234375,-2.276905652552843,-1.0740472818613052,0.06891491159833968
1782811622628687400,3.666687255859375,-2.5099481002300976,-1.2916682885229587,-0.5001944510314613
1782811622638759400,3.676759521484375,-3.761088563531637,-1.4982105595484374,-0.7595667602948843
1782811622648831500,3.68683154296875,-5.225185548815131,-1.520431159184873,-0.972987684918195
1782811622658903300,3.6969033203125,-6.1754883775860065,-1.680077531261742,-1.225198066662997
1782811622668975400,3.706975341796875,-6.220024269405007,-1.7700030091196297,-1.5606807519868016
1782811622679047400,3.71704736328125,-6.113537240585685,-1.1905763967454432,-1.7707836381033062
1782811622689118500,3.727118408203125,-6.075535718971491,-0.14469137952923775,-1.670546463458985
1782811622699190300,3.737190185546875,-5.6778363775789735,0.33796734174638987,-1.59097608313784
1782811622709262300,3.747262451171875,-4.661144137099385,-0.05459960519373416,-1.8043945235431194
1782811622719334400,3.75733447265625,-2.7219454217910766,-0.6880632204428315,-1.9694021303921936
1782811622729406500,3.767406494140625,-0.4245166211694479,-0.9304881212323903,-1.7679336554996667
1782811622739478300,3.777478271484375,1.5459341414928436,-0.9514537523716687,-1.2977787342272697
1782811622749550300,3.78755029296875,2.6730262003213165,-0.7469032396852969,-0.7995432352438568
1782811622759622400,3.797622314453125,3.0424767678290605,-0.28067805907726284,-0.34596608541533347
1782811622769694200,3.807694091796875,3.1116572715610262,0.2634215115889907,0.08766995401605963
1782811622779766300,3.817766357421875,3.39819048640728,0.6273188288837671,0.47815322654992337
1782811622789838300,3.82783837890625,3.7558097463458773,0.5648182413071393,0.6509406736202538
1782811622799910400,3.837910400390625,4.239704439157247,0.08310907584130764,0.6307968802578747
1782811622809982200,3.847982177734375,4.689260809037089,-0.510373826675117,0.7814239334464073
1782811622820054300,3.85805419921875,5.187275212615728,-0.8943751898437738,1.1046554783537983
1782811622830126300,3.868126220703125,5.485674221822619,-0.798534058201313,1.5518249530971049
1782811622840198400,3.878198486328125,5.404667086696625,-0.4149757626250386,1.9508162339963018
1782811622850269400,3.88826953125,4.944828976777195,0.11230682101398706,2.2986137726224958
1782811622860341200,3.89834130859375,4.419384129959345,0.6235137375123798,2.4906439725622533
1782811622870413300,3.908413330078125,3.8654619611978527,0.9525709198333322,2.5272446874678134
1782811622880485400,3.9184853515625,3.596156360006332,1.1407659255243836,2.4061852356776594
1782811622890557200,3.92855712890625,3.713907125639915,1.1367729103654622,2.302560902813077
1782811622900629200,3.938629150390625,3.827527659600973,0.9077369218505918,2.1927318700894713
1782811622910701300,3.948701416015625,4.064391711392998,0.6081586397312582,1.990454416901618
1782811622920773400,3.9587734375,4.335532126796245,0.2886559060886502,1.7051817235104738
1782811622930845200,3.96884521484375,4.171923865351081,0.07901011608988046,1.3353811735212802
1782811622940917200,3.978917236328125,3.6799732918560504,0.10805033261328935,1.0735704581297933
1782811622950989300,3.9889892578125,3.048103960061073,0.24886779331862924,0.8732140361323952
1782811622961061000,3.99906103515625,2.754462374514341,0.2646215350285172,0.6463267500840127
1782811622971133200,4.00913330078125,2.951164511787891,0.15641425828784702,0.5324013879574835
1782811622981205200,4.019205322265625,3.104867465290427,-0.03084668142348528,0.5948723841134459
1782811622991277300,4.02927734375,2.9199679940134287,-0.12495061400979757,0.6871699248649179
1782811623001349000,4.03934912109375,2.4579981327623126,0.07283113519400358,0.7491089330360293
1782811623011420200,4.049420166015625,1.4803572152107953,0.19919570765495298,0.45703423147983846
1782811623021492200,4.0594921875,0.22972587047517298,0.013167524608969687,-0.004803016367554664
1782811623031564300,4.069564208984375,-1.0681892034828662,-0.5092185191601515,-0.5437167088285089
1782811623041636400,4.07963623046875,-2.285838900592923,-1.1333365061759948,-1.1003094850387423
1782811623051708200,4.089708251953125,-3.731931442630291,-1.6053089982643722,-1.5323464917756615
1782811623061780200,4.0997802734375,-4.776201425865292,-1.6062182220637797,-1.4841840800225734
1782811623071852300,4.109852294921875,-5.52638617143929,-1.4101537981718777,-0.8800742042254656
1782811623081924400,4.11992431640625,-6.318805546152591,-1.5892694253504276,-0.20987514177523553
1782811623091996400,4.129996337890625,-7.1626856435120105,-1.653745696914196,0.14029117180891335
1782811623102068500,4.140068359375,-7.437659937989712,-1.2276228095918893,-0.4214262539386749
1782811623112140500,4.150140625,-6.8655714134186505,-0.727887573570013,-1.482601487006247
1782811623122212400,4.16021240234375,-6.72744889088571,-0.9486924709647894,-1.7731889456793666
1782811623132284400,4.170284423828125,-7.54132021895051,-1.5982871368035674,-1.5723630064740777
1782811623142356500,4.1803564453125,-8.522639532753825,-2.0600828105315565,-1.7101323316551744
1782811623152428300,4.19042822265625,-8.99723506682217,-2.130487887622416,-1.972689481499791
1782811623162499300,4.200499267578125,-8.705955534231663,-1.8559096067249774,-1.7945349544383584
1782811623172571400,4.2105712890625,-7.685008558917045,-1.5408458784431218,-1.2603054742708801
1782811623182643500,4.2206435546875,-6.536321338874101,-1.3459952142551541,-0.8791380924191325
1782811623192715500,4.230715576171875,-5.482343031573295,-1.1595248403996228,-0.7338426825821399
1782811623202787300,4.240787353515625,-4.564964567282796,-0.8008268453136086,-0.5802759957451373
1782811623212859400,4.250859375,-3.385166754183173,-0.4856757310092449,-0.4801232114486396
1782811623222931500,4.260931396484375,-1.8941922833681106,-0.2826169181853533,-0.4765851004503667
1782811623233003300,4.271003173828125,-0.4326210171699524,-0.15280074396580456,-0.5075234787452966
1782811623243075300,4.281075439453125,0.7001730526924133,-0.3784568807840347,-0.6317630949415266
1782811623253147400,4.2911474609375,1.6065426317125557,-0.9846420284852385,-0.7049314992658794
1782811623263219500,4.301219482421875,2.2457775238394735,-1.281633801242709,-0.5885758412525057
1782811623273291300,4.311291259765625,2.4534721797704697,-1.0130594369351864,-0.2877112456496805
1782811623283363300,4.32136328125,2.37652104203701,-0.3819160813271999,0.20450981534980237
1782811623293435400,4.331435302734375,2.308887183225155,0.33606559977829453,0.7440216928996145
1782811623303507500,4.341507568359375,2.323465159153938,0.936406405365467,1.070837233773619
1782811623313578200,4.351578125,2.4945950482755896,1.209298048350215,1.2084526835672558
1782811623323650300,4.361650390625,2.942097408235073,1.198426817984879,1.13622243687585
1782811623333722400,4.371722412109375,3.490391800242662,1.060713899166137,0.9903160555336624
1782811623343794400,4.38179443359375,4.255725599631667,0.8539357735581695,0.8752624200295657
1782811623353866200,4.3918662109375,5.004178991368413,0.6565165740564465,0.8881917519684881
1782811623363938300,4.401938232421875,5.605385473874211,0.5431947307810187,1.0140369036652148
1782811623374010400,4.41201025390625,5.786389106756449,0.5105113354496658,1.1082871128544212
1782811623384082700,4.422082763671875,5.635988701930642,0.6025790860332548,1.1533636143561452
1782811623394154800,4.43215478515625,5.446073448318243,0.7629017499364912,1.1860884376764296
1782811623404226800,4.442226806640625,5.213294035491347,0.7873806498937308,1.0501448666177688
1782811623414299000,4.452298828125,5.066252877965569,0.804737004494667,0.7925000387340784
1782811623424370700,4.46237060546875,4.953279994258284,0.8254556751355528,0.4863839523438364
1782811623434442800,4.47244287109375,4.8993216095775365,0.7302031570360064,0.24599421064369378
1782811623444514800,4.482514892578125,4.929843589091301,0.5518333797886967,0.005264350268989801
1782811623454585900,4.4925859375,5.158278250712156,0.41661885365694756,-0.16511413596346974
1782811623464657700,4.50265771484375,5.499194213131069,0.3383522494107485,-0.16751674012579024
1782811623474729700,4.512729736328125,5.922026826736331,0.3823965583205223,-0.05252615992054343
1782811623484801800,4.5228017578125,5.982681494185329,0.5042518366634845,0.05183481665551662
1782811623494873900,4.532873779296875,5.342067714920639,0.7437269477367401,0.053029141006618735
1782811623504945700,4.542945556640625,4.318348352283239,0.9540686110451817,-0.09180091634094714
1782811623515017700,4.553017822265625,3.0238696825146674,1.058448730713129,-0.2802132911097258
1782811623525089800,4.56308984375,1.8872417335778473,1.1518494834661483,-0.5471501904085279
1782811623535161900,4.573161865234375,1.1367834317594765,1.1271399896234273,-0.7015346964344382
1782811623545233700,4.583233642578125,0.6096539928555488,0.6702142600193619,-0.3418008554946631
1782811623555305700,4.5933056640625,-0.1005079544097185,-0.3471624555930495,0.38124523286093026
1782811623565377800,4.603377685546875,-0.982442180353403,-1.7569608644559978,0.7308559949215501
1782811623575449600,4.61344970703125,-2.442014966210723,-3.052958706615865,0.7398530289128422
1782811623585522000,4.62352197265625,-4.717542900669574,-3.5687943058282134,0.8249623386606574
1782811623595594000,4.633593994140625,-7.087042665767669,-3.341308907756209,0.9083192517831921
1782811623605664800,4.643664794921875,-8.623121768200397,-2.858110380515456,0.6877839651100337
1782811623615736800,4.65373681640625,-9.613635026806593,-2.9166967172577976,0.29116438177824017
1782811623625808600,4.66380859375,-10.164399608319997,-3.6181931275084613,-0.031921617178618904
1782811623635880700,4.673880615234375,-9.490878415709734,-3.6756221109092233,-0.7372779907930642
1782811623645953000,4.683953125,-8.255332996425032,-3.207363086386025,-1.5435652204044161
1782811623656024800,4.69402490234375,-8.125299087801576,-2.6854005287259817,-1.4010121680781245
1782811623666097000,4.704096923828125,-8.293211183920501,-2.1565669162526726,-0.38822957532294095
1782811623676169000,4.7141689453125,-7.918738988858461,-1.677645627939701,0.4524181890517473
1782811623686241000,4.724240966796875,-7.20740741329193,-1.4388900633126496,0.742589833465591
1782811623696312800,4.734312744140625,-6.388935897955298,-1.6542589071333407,0.6051735595058649
1782811623706385000,4.744385009765625,-5.720675402352214,-2.0228131103232503,0.23417861210033297
1782811623716457000,4.75445703125,-5.277591443356871,-2.1897882178530095,-0.2732301542241126
1782811623726528800,4.76452880859375,-4.600789329379797,-2.0734815135478972,-0.7743748917177319
1782811623736600800,4.774600830078125,-3.4069787730187175,-1.9282067811727523,-1.010741807642579
1782811623746671900,4.784671875,-2.426542671790719,-1.978757987758517,-1.2746228995673359
1782811623756744000,4.794743896484375,-1.7664672362089155,-2.0718840152233837,-1.6357279557950795
1782811623766816000,4.80481591796875,-1.2340741776883601,-1.806629150727391,-1.7657246011480687
1782811623776887800,4.8148876953125,-0.8807622595548629,-1.2145564072698354,-1.6620713344499467
1782811623786960000,4.8249599609375,-0.7005716966211796,-0.34068741436004635,-1.207880582767725
1782811623797032000,4.835031982421875,-0.3854372411906719,0.6286237740024924,-0.519444291228801
1782811623807104000,4.84510400390625,0.44081309145390984,1.297441611227393,0.07479337517768145
1782811623817175800,4.85517578125,1.8199474819838999,1.643765862430632,0.36404695489853617
1782811623827247900,4.865247802734375,3.2237253153830765,1.7962182313501833,0.6985353684879839
1782811623837320000,4.87531982421875,4.285331048822402,1.7114166723772883,0.9746291685149073
1782811623847391700,4.885391845703125,4.9900925983488555,1.5837310804456473,1.113852638027072
1782811623857463800,4.8954638671875,5.393822452077269,1.464917361755669,1.1858316133711486
1782811623867536000,4.905535888671875,5.657510797908902,1.3333376849949359,1.1896004643853753
1782811623877608000,4.91560791015625,5.935003797209262,1.2233330034434795,1.100292680034414
1782811623887679700,4.9256796875,6.206895907762647,1.1957359714657068,0.9354545845333486
1782811623897750800,4.935750732421875,6.373105876138806,1.3776897446796297,0.7009995666444301
1782811623907822800,4.94582275390625,6.30114538629949,1.785078997698426,0.5556744923215359
1782811623917895000,4.95589501953125,6.019971652659773,2.1718208917468784,0.6385696331512183
1782811623927966700,4.965966796875,5.896333582553267,2.4597911536589265,0.8456185385245829
1782811623938038800,4.976038818359375,6.02555500575006,2.6930557196542617,0.9817894155330955
1782811623948110800,4.98611083984375,6.131984751424193,2.9018387553438543,1.0968187933787703
1782811623958183000,4.996182861328125,6.1627253421247,2.981555266137421,1.1412870267890394
1782811623968254700,5.006254638671875,6.09519494368732,2.8778704352572557,1.0192305267855524
1782811623978326800,5.016326904296875,6.0446986821591855,2.7503362344950437,0.7960582426723092
1782811623988398800,5.02639892578125,5.816660910901427,2.7641139999568463,0.5980958762045949
1782811623998470700,5.036470703125,5.2700920275121925,2.8494293536707755,0.46326658653076735
1782811624008542700,5.046542724609375,4.697874323603511,2.8980060453131795,0.3930799744961783
1782811624018614800,5.05661474609375,4.632909976261854,2.87956876360774,0.42347211708519605
1782811624028686800,5.066686767578125,4.74528314051032,2.801529246115684,0.3381694036571309
1782811624038758000,5.0767578125,4.502652780276537,2.7941601786524055,0.13462867993465624
1782811624048829700,5.08682958984375,4.061474947163463,2.8033529544115066,0.1214158092134632
1782811624058901800,5.09690185546875,3.66596756285727,2.7799305777698753,0.5373818797837943
1782811624068973800,5.106973876953125,3.1365567350178956,2.682604176005721,1.004620986674726
1782811624079046000,5.1170458984375,2.3016098856985567,2.0462989075899123,1.1264908049996942
1782811624089117700,5.12711767578125,1.6252397333979605,0.9044359806090593,0.7778029664702713
1782811624099189800,5.137189697265625,0.9539274490088224,-0.38637481430172915,0.10309866502266377
1782811624109261800,5.14726171875,-0.0805225664794445,-1.6003811864733695,-0.313514708741568
1782811624119333600,5.157333740234375,-1.2961276060193776,-2.70071500223577,-0.06280395443737506
1782811624129405700,5.16740576171875,-1.9985931535631416,-3.3087147981435057,0.21968995842281727
1782811624139477800,5.177477783203125,-2.008644591978192,-3.1409470789313314,0.17551124601103366
1782811624149549800,5.1875498046875,-3.2780566250294445,-3.0739836667269467,0.28688005552254614
1782811624159621600,5.19762158203125,-5.515995125806331,-2.7114047385543585,-0.25690785537865013
1782811624169693700,5.207693603515625,-6.786998227441311,-1.378905257949233,-0.9151847536385059
1782811624179764700,5.2177646484375,-7.142908929896354,-0.4017448173910379,-0.4096013761103153
1782811624189836800,5.2278369140625,-6.756415457651019,-0.5475000267595053,0.8573428785879165
1782811624199908600,5.23790869140625,-5.693189429533481,-1.5370675289481877,1.2062927290543912
1782811624209980700,5.247980712890625,-5.004451378569007,-2.949727756983042,0.33050876936875284
1782811624220052700,5.258052734375,-5.973416822233796,-4.168958585804701,-0.592081511285901
1782811624230124800,5.268124755859375,-8.09063927783072,-4.585045232281089,-0.7987347684051841
1782811624240196900,5.27819677734375,-9.53743616874516,-4.4421670396536586,-0.9432438501700758
1782811624250269000,5.28826904296875,-9.759752055224777,-3.9072254656940695,-1.2990103218488394
1782811624260341000,5.298341064453125,-8.972926554995775,-3.455193645611405,-1.6661365380622446
1782811624270412800,5.308412841796875,-7.442308056056499,-3.22229177544862,-2.012265266693383
1782811624280484900,5.31848486328125,-5.732386298412084,-3.065005118240416,-2.301388205771893
1782811624290557000,5.328556884765625,-3.7296716810047625,-2.521420511358976,-2.2586168394073844
1782811624300629000,5.33862890625,-1.5310416927874086,-1.858262015070021,-1.7095141997568308
1782811624310700800,5.34870068359375,0.18634791651964186,-1.5717527656212449,-1.0521277840632945
1782811624320771800,5.358771728515625,1.488491421827674,-1.4345011807039378,-0.5105749752704054
1782811624330844000,5.368843994140625,2.236464921092987,-0.605433160290122,0.11245974655337632
1782811624340916000,5.378916015625,1.8001438803613186,0.5743930021211504,0.5794723512120544
1782811624350988000,5.388988037109375,0.45556993108093735,1.7543299314305185,0.6799198076061904
1782811624361059800,5.399059814453125,-1.2512655509859323,2.622139185909927,0.6436709748782217
1782811624371132000,5.4091318359375,-2.659168355360627,2.815005106021464,0.44784017707910384
1782811624381204000,5.419203857421875,-2.658146026575565,2.504716629317403,0.18285097778197376
1782811624391275500,5.429275634765625,-1.5665508130639791,1.9734274403855203,-0.06309533859938382
1782811624401347300,5.439347412109375,-0.0046533787637948985,1.4237316571474075,-0.24321517438441514
1782811624411419400,5.44941943359375,1.7598539555490016,0.9860933963373303,-0.39829080447964366
1782811624421491500,5.459491455078125,3.5535558201640844,0.7975316031605004,-0.36592743488289414
1782811624431563300,5.469563232421875,5.141976519730687,0.8518018302693963,-0.1259378714814782
1782811624441635300,5.47963525390625,6.3654311037272215,1.0630275829359888,0.16872125707734376
1782811624451707400,5.489707275390625,6.822022194549441,1.4378890695765614,0.3555873887848109
1782811624461778400,5.4997783203125,6.889930194127559,1.842739744028449,0.6774619661252945
1782811624471850500,5.5098505859375,7.324576579645275,2.1689228322178122,0.9901460327289998
1782811624481922300,5.51992236328125,7.46026690659523,2.3362062750443813,1.1082610285650938
1782811624491994400,5.529994384765625,6.792210993653535,2.5371687001109122,0.9850689486604184
1782811624502066400,5.54006640625,5.084495806142687,2.5983923996195197,0.7064467991996556
1782811624512138200,5.55013818359375,2.2799930971741675,2.290202941021323,0.3088185868145898
1782811624522210300,5.560210205078125,3.1394530409812926,1.7573700297787784,0.12194273743070662
1782811624532282400,5.570282470703125,3.8453988318562504,1.5575395313516258,0.004784750058501958
1782811624542354400,5.5803544921875,4.320127636915445,2.0501851013734935,-0.27149127466753126
1782811624552426200,5.59042626953125,4.550266764366627,2.237978832787275,-0.3060249009754509
1782811624562499300,5.600499267578125,4.861844404098391,1.8806150089144706,-0.20471322896741329
1782811624572571400,5.6105712890625,5.259235117933154,1.7492904759585857,-0.077885678637214
1782811624582643200,5.620643310546875,4.386902248549461,1.7868261336266993,0.022487616542167962
1782811624592714200,5.63071435546875,0.665614949530363,2.0201590886831284,0.6705994599446654
