time,seconds_elapsed,z,y,x
1782811618992714500,0.030714599609375,-0.23673608899116516,0.06832457333803177,-0.07472896575927734
1782811619002786300,0.040786376953125,-0.15374375879764557,0.018917620182037354,-0.22753122448921204
1782811619012858400,0.0508583984375,-0.0987635999917984,-0.05269318073987961,-0.32896941900253296
1782811619022930400,0.060930419921875,-0.11149664968252182,-0.10350822657346725,-0.3099820017814636
1782811619033002500,0.07100244140625,-0.15833179652690887,-0.07508830726146698,-0.19985522329807281
1782811619043074300,0.08107421875,-0.19452732801437378,0.028391733765602112,-0.060935765504837036
1782811619053146400,0.091146484375,-0.20796802639961243,0.14408238232135773,0.08469121158123016
1782811619063218400,0.101218505859375,-0.20977520942687988,0.24989767372608185,0.21925079822540283
1782811619073290200,0.111290283203125,-0.1877463310956955,0.31252244114875793,0.30403250455856323
1782811619083362300,0.1213623046875,-0.14879481494426727,0.323569655418396,0.33581337332725525
1782811619093434400,0.131434326171875,-0.08728617429733276,0.28494396805763245,0.32876479625701904
1782811619103505400,0.14150537109375,-0.01460733637213707,0.15362362563610077,0.2658473551273346
1782811619113577500,0.151577392578125,0.03841673582792282,-0.05427657067775726,0.14066308736801147
1782811619123649300,0.161649169921875,0.043897323310375214,-0.2507305145263672,0.03205044940114021
1782811619133721300,0.171721435546875,0.02534680999815464,-0.3831900358200073,-0.025343600660562515
1782811619143793400,0.18179345703125,0.0028799891006201506,-0.3960639238357544,-0.013261115178465843
1782811619153865200,0.191865234375,-0.011926653794944286,-0.3388099670410156,0.060749463737010956
1782811619163937300,0.201937255859375,0.00011974939843639731,-0.2883324921131134,0.17109383642673492
1782811619174009600,0.212009521484375,0.02336888015270233,-0.2332324981689453,0.31183281540870667
1782811619184081700,0.22208154296875,0.03935782611370087,-0.15346212685108185,0.4776545763015747
1782811619194153500,0.232153564453125,0.02426249533891678,-0.053987473249435425,0.6494207382202148
1782811619204225500,0.2422255859375,-0.01775125227868557,0.06101547181606293,0.8046326637268066
1782811619214297600,0.252297607421875,-0.06156104803085327,0.12227243930101395,0.9202859997749329
1782811619224369400,0.262369384765625,-0.08427715301513672,0.10703106969594955,0.9705396294593811
1782811619234441500,0.27244140625,-0.0764424055814743,0.02902388758957386,0.949334979057312
1782811619244513500,0.282513427734375,-0.06518647074699402,-0.11391180008649826,0.8796308636665344
1782811619254585600,0.292585693359375,-0.04197409003973007,-0.26030948758125305,0.7913092374801636
1782811619264657400,0.302657470703125,-0.0031970073468983173,-0.3547852337360382,0.7211200594902039
1782811619274729500,0.3127294921875,0.058498580008745193,-0.418691486120224,0.6999295353889465
1782811619284801500,0.322801513671875,0.11890637129545212,-0.47394800186157227,0.7047677636146545
1782811619294873600,0.33287353515625,0.17439386248588562,-0.4858994483947754,0.7219566106796265
1782811619304945400,0.3429453125,0.22749783098697662,-0.4136348366737366,0.734251081943512
1782811619315017500,0.353017578125,0.25293126702308655,-0.3419950008392334,0.729472815990448
1782811619325089500,0.363089599609375,0.23756742477416992,-0.2668330669403076,0.7290120124816895
1782811619335161300,0.373161376953125,0.22834782302379608,-0.22317399084568024,0.7583430409431458
1782811619345232400,0.383232421875,0.2185344099998474,-0.19718851149082184,0.8618362545967102
1782811619355304400,0.393304443359375,0.20193332433700562,-0.15034164488315582,1.0420541763305664
1782811619365376500,0.40337646484375,0.1987968385219574,-0.04412003234028816,1.2262470722198486
1782811619375448600,0.413448486328125,0.2004631757736206,0.12808743119239807,1.3362561464309692
1782811619385520400,0.423520263671875,0.19793713092803955,0.35693150758743286,1.344068169593811
1782811619395592400,0.433592529296875,0.1946292221546173,0.6405046582221985,1.2432115077972412
1782811619405664500,0.44366455078125,0.15412941575050354,0.8363243341445923,1.0553501844406128
1782811619415736300,0.453736328125,0.05438896641135216,0.7660021781921387,0.814153790473938
1782811619425808400,0.463808349609375,-0.08838244527578354,0.27092576026916504,0.5274472236633301
1782811619435880400,0.47388037109375,-0.22163450717926025,-0.5818018913269043,0.32811757922172546
1782811619445952500,0.483952392578125,-0.27225926518440247,-1.4424976110458374,0.39634549617767334
1782811619456024300,0.4940244140625,-0.214742973446846,-2.0170485973358154,0.7475453019142151
1782811619466096400,0.504096435546875,-0.05196678638458252,-2.0238053798675537,1.2448910474777222
1782811619476168400,0.51416845703125,0.18981201946735382,-1.5314580202102661,1.6281412839889526
1782811619486240500,0.524240478515625,0.4503801465034485,-0.7170974612236023,1.7188518047332764
1782811619496312300,0.534312255859375,0.61142498254776,0.24947552382946014,1.5493121147155762
1782811619506384400,0.54438427734375,0.6648882031440735,1.1013033390045166,1.249382734298706
1782811619516456400,0.55445654296875,0.6556925773620605,1.6466602087020874,0.9774726033210754
1782811619526528300,0.5645283203125,0.6017447113990784,1.73445463180542,0.8137732744216919
1782811619536600300,0.574600341796875,0.5256960391998291,1.4365808963775635,0.7711943984031677
1782811619546672400,0.58467236328125,0.4698807895183563,0.8439847826957703,0.7938041090965271
1782811619556744400,0.594744384765625,0.4429154694080353,0.0844629630446434,0.7765300869941711
1782811619566816500,0.60481640625,0.4534609615802765,-0.6714901328086853,0.6401859521865845
1782811619576887300,0.61488720703125,0.46718770265579224,-1.2670706510543823,0.37241020798683167
1782811619586959400,0.62495947265625,0.44829419255256653,-1.642087459564209,0.020151417702436447
1782811619597031400,0.635031494140625,0.38642099499702454,-1.798452615737915,-0.3329288959503174
1782811619607103200,0.645103271484375,0.28212615847587585,-1.7029778957366943,-0.5953139662742615
1782811619617175300,0.65517529296875,0.14635129272937775,-1.3465808629989624,-0.7362716197967529
1782811619627247400,0.665247314453125,0.010608755983412266,-0.7973476648330688,-0.7569059729576111
1782811619637319700,0.675319580078125,-0.09746578335762024,-0.2413579523563385,-0.7205982804298401
1782811619647391500,0.6853916015625,-0.19440366327762604,0.21165917813777924,-0.6746405959129333
1782811619657463600,0.695463623046875,-0.28018808364868164,0.4952256381511688,-0.6602696776390076
1782811619667535600,0.70553564453125,-0.24876637756824493,0.5321359038352966,-0.6901646852493286
1782811619677607400,0.715607421875,0.006718914955854416,0.38954442739486694,-0.7168722152709961
1782811619687679500,0.725679443359375,0.11940818279981613,0.031829942017793655,-0.6710666418075562
1782811619697751600,0.73575146484375,0.2291242927312851,-0.1930026412010193,-0.6444690823554993
1782811619707823600,0.74582373046875,0.26295021176338196,-0.3981172442436218,-0.5834223628044128
1782811619717895400,0.7558955078125,0.2023337483406067,-0.6162780523300171,-0.47271960973739624
1782811619727967500,0.765967529296875,0.10534555464982986,-0.79749995470047,-0.32538899779319763
1782811619738039600,0.77603955078125,-0.008012430742383003,-0.8809911012649536,-0.17599818110466003
1782811619748111400,0.786111328125,-0.11736047267913818,-0.8366616368293762,-0.0588255375623703
1782811619758183400,0.796183349609375,-0.2109822928905487,-0.6877856254577637,0.00450496282428503
1782811619768255500,0.80625537109375,-0.26978713274002075,-0.49415460228919983,0.0008124256273731589
1782811619778327600,0.81632763671875,-0.2759283781051636,-0.2519078850746155,-0.06620895862579346
1782811619788399400,0.8263994140625,-0.22524631023406982,0.04736913740634918,-0.17097578942775726
1782811619798470400,0.836470458984375,-0.12269411236047745,0.36227649450302124,-0.28623101115226746
1782811619808542500,0.84654248046875,0.03437083959579468,0.6549667119979858,-0.3912244737148285
1782811619818614500,0.856614501953125,0.18975749611854553,0.8961350917816162,-0.46699193120002747
1782811619828686600,0.8666865234375,0.2975344955921173,1.0581706762313843,-0.4878489077091217
1782811619838758400,0.87675830078125,0.32575762271881104,1.1434358358383179,-0.44245344400405884
1782811619848830500,0.88683056640625,0.30432212352752686,1.1565771102905273,-0.33532440662384033
1782811619858902500,0.896902587890625,0.2440100610256195,1.124047040939331,-0.15986761450767517
1782811619868974300,0.906974365234375,0.17430941760540009,1.0477335453033447,0.0727488249540329
1782811619879046400,0.91704638671875,0.09751370549201965,0.9319164156913757,0.3256537616252899
1782811619889118500,0.927118408203125,0.02994840033352375,0.822857677936554,0.5570707321166992
1782811619899190500,0.9371904296875,-0.025385960936546326,0.7433878779411316,0.728420615196228
1782811619909262300,0.947262451171875,-0.05304723232984543,0.7386449575424194,0.8352521657943726
1782811619919334400,0.95733447265625,-0.028838833793997765,0.8110554814338684,0.8965360522270203
1782811619929406500,0.967406494140625,0.07577687501907349,0.9186923503875732,0.9411347508430481
1782811619939478300,0.977478271484375,0.25379160046577454,1.0580816268920898,1.0276374816894531
1782811619949550300,0.98755029296875,0.4743853211402893,1.2711763381958008,1.2558550834655762
1782811619959622400,0.997622314453125,0.7308533191680908,1.5456839799880981,1.6378138065338135
1782811619969694500,1.007694580078125,0.9915738105773926,1.769973635673523,2.0216336250305176
1782811619979766300,1.017766357421875,1.1875622272491455,1.8743834495544434,2.2364158630371094
1782811619989838300,1.02783837890625,1.1992312669754028,1.8306224346160889,2.152125597000122
1782811619999910400,1.037910400390625,0.99985271692276,1.6929415464401245,1.802237629890442
1782811620009981400,1.0479814453125,0.6856971979141235,1.438668966293335,1.2560893297195435
1782811620020053500,1.058053466796875,0.34498217701911926,0.9512277841567993,0.5645782947540283
1782811620030125300,1.068125244140625,0.04672594368457794,0.2393968254327774,-0.1361275315284729
1782811620040197400,1.078197265625,-0.24513812363147736,-0.6201682686805725,-0.7325863838195801
1782811620050269400,1.08826953125,-0.3646196126937866,-1.1265068054199219,-1.062747836112976
1782811620060341200,1.09834130859375,-0.22131329774856567,-1.1680691242218018,-1.0564748048782349
1782811620070413300,1.108413330078125,0.06353790313005447,-0.9400376081466675,-0.8133911490440369
1782811620080485400,1.1184853515625,0.37523001432418823,-0.6129958033561707,-0.4574567377567291
1782811620090557400,1.128557373046875,0.6586146354675293,-0.29599422216415405,-0.1765500009059906
1782811620100629500,1.13862939453125,0.8449283242225647,-0.12383949756622314,-0.14908403158187866
1782811620110701600,1.14870166015625,0.8828876614570618,-0.18898621201515198,-0.3902824819087982
1782811620120773600,1.158773681640625,0.7360060811042786,-0.4736208915710449,-0.8216195106506348
1782811620130845400,1.168845458984375,0.4030779302120209,-0.9291474223136902,-1.3190642595291138
1782811620140917500,1.17891748046875,-0.050519634038209915,-1.4181289672851562,-1.8158823251724243
1782811620150989600,1.188989501953125,-0.5366544723510742,-1.8034969568252563,-2.2524659633636475
1782811620161061600,1.1990615234375,-0.971008837223053,-1.937041997909546,-2.5197930335998535
1782811620171133400,1.209133544921875,-1.2742300033569336,-1.7816190719604492,-2.542165756225586
1782811620181205500,1.21920556640625,-1.4391754865646362,-1.4128061532974243,-2.336874008178711
1782811620191277600,1.229277587890625,-1.4719715118408203,-0.8921757936477661,-1.9403895139694214
1782811620201349400,1.239349365234375,-1.3884696960449219,-0.3173423111438751,-1.482080340385437
1782811620211420400,1.24942041015625,-1.2359619140625,0.16782599687576294,-1.1105103492736816
1782811620221492500,1.259492431640625,-1.063726782798767,0.42960646748542786,-0.8616942167282104
1782811620231564500,1.269564453125,-0.9654092788696289,0.4722284972667694,-0.6995217800140381
1782811620241636600,1.27963671875,-0.9736408591270447,0.3410118818283081,-0.6102630496025085
1782811620251708400,1.28970849609375,-1.0410841703414917,0.10695798695087433,-0.5652339458465576
1782811620261780500,1.299780517578125,-1.1117980480194092,-0.15665662288665771,-0.5318338871002197
1782811620271852500,1.3098525390625,-1.1562540531158447,-0.43647265434265137,-0.47491708397865295
1782811620281924600,1.319924560546875,-1.1549304723739624,-0.6664353013038635,-0.37397611141204834
1782811620291996400,1.329996337890625,-1.099899411201477,-0.7828328013420105,-0.22047454118728638
1782811620302068500,1.340068359375,-0.9965144395828247,-0.7975438237190247,-0.04668491333723068
1782811620312140500,1.350140625,-0.8568307757377625,-0.6839315295219421,0.07800094783306122
1782811620322212400,1.36021240234375,-0.7140975594520569,-0.40503090620040894,0.1021701991558075
1782811620332284400,1.370284423828125,-0.5806346535682678,-0.030960913747549057,0.0017840111395344138
1782811620342356500,1.3803564453125,-0.4688575267791748,0.32753705978393555,-0.15864428877830505
1782811620352428500,1.390428466796875,-0.3759038746356964,0.5920911431312561,-0.2797994911670685
1782811620362500400,1.400500244140625,-0.28832927346229553,0.7312564849853516,-0.2993135452270508
1782811620372572400,1.410572509765625,-0.2228478044271469,0.7583862543106079,-0.2192758172750473
1782811620382644200,1.420644287109375,-0.1970612108707428,0.6963050365447998,-0.06030135601758957
1782811620392716300,1.43071630859375,-0.2092955857515335,0.6069410443305969,0.14023855328559875
1782811620402788000,1.4407880859375,-0.23547951877117157,0.4922129213809967,0.33557555079460144
1782811620412859000,1.45085888671875,-0.25821197032928467,0.3891961872577667,0.5014680624008179
1782811620422931000,1.460930908203125,-0.25318312644958496,0.3654378652572632,0.6630868315696716
1782811620433003300,1.471003173828125,-0.20457977056503296,0.3725132644176483,0.8211808204650879
1782811620443075000,1.481074951171875,-0.0894225537776947,0.3107748031616211,0.9396920204162598
1782811620453147100,1.491147216796875,0.08407025784254074,0.17521019279956818,0.9724550843238831
1782811620463219200,1.50121923828125,0.2883110046386719,-0.0062413583509624004,0.9862307906150818
1782811620473291300,1.511291259765625,0.5090494751930237,-0.2664504945278168,1.070342779159546
1782811620483363000,1.521363037109375,0.691183865070343,-0.5318249464035034,1.28227961063385
1782811620493435100,1.53143505859375,0.7992828488349915,-0.6865712404251099,1.6241635084152222
1782811620503507200,1.541507080078125,0.8611520528793335,-0.5700709819793701,2.100541830062866
1782811620513579000,1.5515791015625,0.8786361813545227,-0.23813487589359283,2.4372024536132812
1782811620523651000,1.561651123046875,0.9027950167655945,-0.003273900132626295,2.28460693359375
1782811620533723100,1.57172314453125,0.8778896927833557,0.1885475516319275,1.5921683311462402
1782811620543795200,1.581795166015625,0.7355160117149353,0.4810827374458313,0.6375714540481567
1782811620553867000,1.591866943359375,0.3739023506641388,0.6988919973373413,-0.15683792531490326
1782811620563939000,1.60193896484375,-0.21341998875141144,0.6303257346153259,-0.540844738483429
1782811620574011100,1.61201123046875,-0.6658376455307007,0.5668542385101318,-0.6210218071937561
1782811620584083200,1.622083251953125,-0.7084804773330688,0.5173183679580688,-0.5854161381721497
1782811620594155000,1.632155029296875,-0.4783308506011963,0.4151824712753296,-0.514228343963623
1782811620604226000,1.64222607421875,-0.23443083465099335,0.2747955322265625,-0.46435853838920593
1782811620614298000,1.652298095703125,-0.07165716588497162,-0.011227955110371113,-0.5129000544548035
1782811620624370200,1.6623701171875,-0.014281224459409714,-0.3633934557437897,-0.6211873888969421
1782811620634442000,1.67244189453125,-0.04328521341085434,-0.6880040168762207,-0.7142091989517212
1782811620644514000,1.68251416015625,-0.10381113737821579,-0.957561194896698,-0.8103711605072021
1782811620654586000,1.692586181640625,-0.18482080101966858,-1.1589840650558472,-0.9346504211425781
1782811620664658200,1.702658203125,-0.28507763147354126,-1.287681221961975,-1.1438443660736084
1782811620674730000,1.71272998046875,-0.42883267998695374,-1.3146839141845703,-1.478157639503479
1782811620684802000,1.722802001953125,-0.606290340423584,-1.223055362701416,-1.9011545181274414
1782811620694874000,1.7328740234375,-0.7667165398597717,-1.0776232481002808,-2.277533531188965
1782811620704946000,1.74294580078125,-0.8485627174377441,-0.9238001108169556,-2.448458194732666
1782811620715018000,1.75301806640625,-0.8271610736846924,-0.6890906095504761,-2.3697726726531982
1782811620725090000,1.763090087890625,-0.7269729375839233,-0.33057209849357605,-2.1266157627105713
1782811620735162000,1.773162109375,-0.5798282027244568,0.05007502809166908,-1.8222193717956543
1782811620745234000,1.78323388671875,-0.425475150346756,0.345260351896286,-1.536403775215149
1782811620755306000,1.793305908203125,-0.27769243717193604,0.5152809619903564,-1.2822304964065552
1782811620765378000,1.8033779296875,-0.1402250975370407,0.5302470922470093,-1.0526739358901978
1782811620775450000,1.8134501953125,-0.029191233217716217,0.40871554613113403,-0.8567847013473511
1782811620785522000,1.82352197265625,0.05232599750161171,0.20017272233963013,-0.6903821229934692
1782811620795593000,1.833593017578125,0.09553822129964828,-0.017094099894165993,-0.5751882195472717
1782811620805665000,1.8436650390625,0.12737230956554413,-0.17619028687477112,-0.4960143268108368
1782811620815737000,1.853737060546875,0.16727599501609802,-0.25493404269218445,-0.4302772581577301
1782811620825809000,1.863808837890625,0.21383416652679443,-0.2967459261417389,-0.36011838912963867
1782811620835881000,1.873880859375,0.24326853454113007,-0.30012497305870056,-0.28576943278312683
1782811620845953000,1.883953125,0.2604570984840393,-0.26789113879203796,-0.19736285507678986
1782811620856025000,1.894025146484375,0.2650415301322937,-0.217572882771492,-0.08965915441513062
1782811620866097000,1.904096923828125,0.26521968841552734,-0.13942375779151917,0.022848740220069885
1782811620876169000,1.9141689453125,0.26294317841529846,-0.020035583525896072,0.10495249181985855
1782811620886241000,1.924240966796875,0.25386205315589905,0.1125943660736084,0.13617460429668427
1782811620896313000,1.93431298828125,0.195176899433136,0.23340657353401184,0.2012343555688858
1782811620906385200,1.94438525390625,0.09197673946619034,0.3163752257823944,0.32634565234184265
1782811620916457200,1.954457275390625,0.000060704012867063284,0.3720984160900116,0.4964304566383362
1782811620926529300,1.964529296875,-0.06005429849028587,0.42776888608932495,0.7053461670875549
1782811620936601000,1.97460107421875,-0.08452380448579788,0.48364317417144775,0.9164569973945618
1782811620946673200,1.984673095703125,-0.06448831409215927,0.5347630977630615,1.0660651922225952
1782811620956745200,1.9947451171875,-0.01975174993276596,0.5981566309928894,1.1449178457260132
1782811620966817000,2.004817138671875,0.02725570648908615,0.5911634564399719,1.1755250692367554
1782811620976889000,2.01488916015625,0.08090474456548691,0.5178288817405701,1.1880847215652466
1782811620986960100,2.024960205078125,0.14199472963809967,0.4619150459766388,1.249414086341858
1782811620997032200,2.0350322265625,0.16576094925403595,0.3985784947872162,1.4460806846618652
1782811621007104300,2.045104248046875,0.13399982452392578,0.31212055683135986,1.7757720947265625
1782811621017176000,2.055176025390625,0.09671572595834732,0.26274386048316956,2.1268105506896973
1782811621027248000,2.065248046875,0.09000909328460693,0.31022241711616516,2.311988592147827
1782811621037320200,2.0753203125,0.042640320956707,0.3897480070590973,2.2080490589141846
1782811621047392300,2.085392333984375,-0.08214449137449265,0.42898330092430115,1.7456960678100586
1782811621057464000,2.095464111328125,-0.21263250708580017,0.4604126513004303,1.0640857219696045
1782811621067536100,2.1055361328125,-0.3495693504810333,0.2738579511642456,0.42812997102737427
1782811621077608200,2.115608154296875,-0.6310170888900757,-0.1921902894973755,-0.050871286541223526
1782811621087680000,2.125679931640625,-0.8681537508964539,-0.48096030950546265,-0.43413370847702026
1782811621097752000,2.135751953125,-0.8493630886077881,-0.5610078573226929,-0.6906752586364746
1782811621107824000,2.14582421875,-0.6346702575683594,-0.3944503366947174,-0.7227565050125122
1782811621117896200,2.155896240234375,-0.39593037962913513,0.03003193624317646,-0.5647531151771545
1782811621127968000,2.165968017578125,-0.14764758944511414,0.5240240693092346,-0.3710493743419647
1782811621138040000,2.1760400390625,0.060316335409879684,0.8593311309814453,-0.32740190625190735
1782811621148112100,2.186112060546875,0.1321319341659546,0.9811180233955383,-0.45198512077331543
1782811621158184000,2.196183837890625,-0.0013844962231814861,0.8737061023712158,-0.7361246347427368
1782811621168255000,2.2062548828125,-0.26516208052635193,0.5615236759185791,-1.107911229133606
1782811621178327000,2.2163271484375,-0.5557430982589722,0.12748226523399353,-1.4812828302383423
1782811621188399000,2.226399169921875,-0.8016210198402405,-0.3287728726863861,-1.7644232511520386
1782811621198471200,2.23647119140625,-0.9613857865333557,-0.7339538335800171,-1.880511999130249
1782811621208543000,2.24654296875,-1.0046101808547974,-1.0284842252731323,-1.7899762392044067
1782811621218615000,2.256614990234375,-0.955681562423706,-1.1399791240692139,-1.5495141744613647
1782811621228687000,2.26668701171875,-0.8839977979660034,-1.0564706325531006,-1.2391908168792725
1782811621238759200,2.27675927734375,-0.815909206867218,-0.7950255274772644,-0.9341772794723511
1782811621248831000,2.2868310546875,-0.7620329260826111,-0.44796156883239746,-0.6941966414451599
1782811621258903000,2.296903076171875,-0.7052599191665649,-0.09131234884262085,-0.5134121775627136
1782811621268975000,2.30697509765625,-0.6397027373313904,0.20897425711154938,-0.3558840751647949
1782811621279047000,2.317046875,-0.5584896206855774,0.3744121193885803,-0.15245594084262848
1782811621289119000,2.327118896484375,-0.46026453375816345,0.30629509687423706,0.16555744409561157
1782811621299191000,2.33719091796875,-0.34205561876296997,0.09374314546585083,0.6376366019248962
1782811621309263000,2.34726318359375,-0.17689327895641327,-0.1179584488272667,1.1258893013000488
1782811621319335000,2.3573349609375,0.009096326306462288,-0.24687543511390686,1.4494644403457642
1782811621329407000,2.367406982421875,0.18593955039978027,-0.2418079674243927,1.494314432144165
1782811621339479000,2.37747900390625,0.3555908203125,-0.1107526570558548,1.2923941612243652
1782811621349550000,2.387550048828125,0.5329096913337708,0.11676385998725891,0.956615149974823
1782811621359622000,2.397621826171875,0.7097554206848145,0.37962499260902405,0.5930045247077942
1782811621369694000,2.40769384765625,0.8402412533760071,0.5941444635391235,0.29718780517578125
1782811621379766000,2.41776611328125,0.9144910573959351,0.7007490396499634,0.13772213459014893
1782811621389838300,2.42783837890625,0.9341419339179993,0.6641803979873657,0.13647763431072235
1782811621399910100,2.43791015625,0.9036927819252014,0.48261165618896484,0.2493201494216919
1782811621409982500,2.447982421875,0.8028284907341003,0.27094733715057373,0.4056974947452545
1782811621420054500,2.458054443359375,0.6738349795341492,0.10288015753030777,0.5780636668205261
1782811621430126300,2.468126220703125,0.5613715648651123,0.008634085766971111,0.7831342220306396
1782811621440198400,2.478198486328125,0.4856701195240021,-0.01603849045932293,0.9804986119270325
1782811621450270500,2.4882705078125,0.43943899869918823,-0.018974358215928078,1.1062653064727783
1782811621460342500,2.498342529296875,0.4029591381549835,-0.008058261126279831,1.1357380151748657
1782811621470414300,2.508414306640625,0.37437915802001953,0.02852451801300049,1.088718056678772
1782811621480486400,2.518486328125,0.3428644835948944,0.08766921609640121,0.9737579226493835
1782811621490558500,2.528558349609375,0.32856571674346924,0.15006202459335327,0.8456188440322876
1782811621500630300,2.53863037109375,0.3554777204990387,0.1849057972431183,0.8296929597854614
1782811621510702300,2.548702392578125,0.4209129214286804,0.10375766456127167,1.0297024250030518
1782811621520773400,2.5587734375,0.48509296774864197,-0.06011029705405235,1.4505493640899658
1782811621530845400,2.568845458984375,0.5219436883926392,-0.05244625359773636,1.9541875123977661
1782811621540917500,2.57891748046875,0.5101099610328674,0.14367419481277466,2.2159597873687744
1782811621550989300,2.5889892578125,0.46793636679649353,0.2419552356004715,2.003244161605835
1782811621561061400,2.599061279296875,0.423399418592453,0.255176305770874,1.4647705554962158
1782811621571133400,2.609133544921875,0.4040009677410126,0.3253132998943329,0.9187729954719543
1782811621581205200,2.619205322265625,0.3177933394908905,0.261579692363739,0.5069152116775513
1782811621591277300,2.62927734375,0.12156231701374054,0.06192464381456375,0.11596180498600006
1782811621601349400,2.639349365234375,-0.05128128454089165,-0.1405063271522522,-0.328917533159256
1782811621611421400,2.64942138671875,-0.16248929500579834,-0.45884379744529724,-0.795634388923645
1782811621621493200,2.6594931640625,-0.26464101672172546,-0.8336434960365295,-1.1608455181121826
1782811621631565300,2.6695654296875,-0.3241778314113617,-1.060726284980774,-1.3406637907028198
1782811621641637400,2.679637451171875,-0.2970723807811737,-1.0049858093261719,-1.388917088508606
1782811621651709400,2.68970947265625,-0.20487184822559357,-0.7406396269798279,-1.4230015277862549
1782811621661781200,2.69978125,-0.10280952602624893,-0.4719254970550537,-1.5566178560256958
1782811621671853300,2.709853271484375,-0.048980649560689926,-0.28745898604393005,-1.7873938083648682
1782811621681925400,2.71992529296875,-0.12933675944805145,-0.25057440996170044,-2.073237657546997
1782811621691997200,2.7299970703125,-0.322978675365448,-0.41455933451652527,-2.2999234199523926
1782811621702068200,2.740068115234375,-0.5550248622894287,-0.7265514135360718,-2.341130018234253
1782811621712140300,2.750140380859375,-0.7141199707984924,-0.9826132655143738,-2.1361961364746094
1782811621722212400,2.76021240234375,-0.7480978965759277,-1.090914249420166,-1.7746713161468506
1782811621732284400,2.770284423828125,-0.6824454069137573,-1.0409330129623413,-1.3841421604156494
1782811621742356200,2.780356201171875,-0.5653370022773743,-0.8434661030769348,-1.014728307723999
1782811621752428300,2.79042822265625,-0.4104861915111542,-0.5327506065368652,-0.7129800319671631
1782811621762500400,2.800500244140625,-0.23756147921085358,-0.2118113487958908,-0.49504992365837097
1782811621772572200,2.810572265625,-0.0761568695306778,0.02073773555457592,-0.3793070912361145
1782811621782644200,2.820644287109375,0.04538394510746002,0.1320461630821228,-0.3567882180213928
1782811621792716300,2.83071630859375,0.11761420220136642,0.17895986139774323,-0.41885051131248474
1782811621802788400,2.840788330078125,0.15846964716911316,0.21058928966522217,-0.5193955302238464
1782811621812860200,2.850860107421875,0.16843226552009583,0.18204180896282196,-0.6132956743240356
1782811621822932200,2.86093212890625,0.17358236014842987,0.08771228045225143,-0.640343189239502
1782811621833004300,2.87100439453125,0.1807451993227005,-0.04061480239033699,-0.5811387300491333
1782811621843076400,2.881076416015625,0.1886875182390213,-0.14748425781726837,-0.4629131853580475
1782811621853148200,2.891148193359375,0.21034540235996246,-0.18419432640075684,-0.3099888861179352
1782811621863220200,2.90122021484375,0.24746094644069672,-0.15401971340179443,-0.1608787626028061
1782811621873291300,2.911291259765625,0.27877330780029297,-0.05346247926354408,-0.030101578682661057
1782811621883363300,2.92136328125,0.3019086718559265,0.11977989226579666,0.09148199111223221
1782811621893435100,2.93143505859375,0.3223697245121002,0.3342447876930237,0.19369304180145264
1782811621903507200,2.941507080078125,0.36801615357398987,0.5361163020133972,0.261692613363266
1782811621913579300,2.951579345703125,0.4187142252922058,0.657404363155365,0.2918313443660736
1782811621923651300,2.9616513671875,0.4462753236293793,0.6913098692893982,0.3011432886123657
1782811621933723100,2.97172314453125,0.44814324378967285,0.6575250029563904,0.2942294478416443
1782811621943795500,2.98179541015625,0.4467485845088959,0.6125966906547546,0.27975645661354065
1782811621953867500,2.991867431640625,0.45208317041397095,0.5708993077278137,0.3065004348754883
1782811621963939300,3.001939208984375,0.472168892621994,0.5371778607368469,0.36630696058273315
1782811621974011400,3.012011474609375,0.46499913930892944,0.5258237719535828,0.3996494710445404
1782811621984083500,3.02208349609375,0.433929443359375,0.5350070595741272,0.38445496559143066
1782811621994155500,3.032155517578125,0.4131341278553009,0.5770179033279419,0.3228621482849121
1782811622004227300,3.042227294921875,0.4557793438434601,0.5135933756828308,0.2684068977832794
1782811622014299400,3.05229931640625,0.5457636117935181,0.251242995262146,0.29923778772354126
1782811622024371500,3.062371337890625,0.602550745010376,-0.06242312490940094,0.48420780897140503
1782811622034443300,3.072443359375,0.5565055012702942,-0.33707332611083984,0.835534930229187
1782811622044514300,3.082514404296875,0.3898885250091553,-0.6133296489715576,1.1713401079177856
1782811622054586400,3.09258642578125,0.16099543869495392,-1.0162811279296875,1.291146159172058
1782811622064658400,3.102658447265625,-0.024856509640812874,-1.4908076524734497,1.0632954835891724
1782811622074730500,3.11273046875,-0.08777422457933426,-1.8835711479187012,0.5594451427459717
1782811622084802300,3.12280224609375,-0.11123770475387573,-2.0600812435150146,0.011257626116275787
1782811622094874400,3.132874267578125,-0.12129593640565872,-1.9723069667816162,-0.4171682894229889
1782811622104946400,3.142946533203125,-0.06749291718006134,-1.637302041053772,-0.6809969544410706
1782811622115018200,3.153018310546875,0.06591547280550003,-1.240647315979004,-0.8295451402664185
1782811622125090300,3.16309033203125,0.2153114527463913,-0.8781751394271851,-0.9666520953178406
1782811622135162400,3.173162353515625,0.3412368893623352,-0.6753453612327576,-1.1494027376174927
1782811622145234400,3.183234375,0.3924388587474823,-0.520241916179657,-1.3200730085372925
1782811622155306200,3.19330615234375,0.36420562863349915,-0.3331942558288574,-1.438812255859375
1782811622165378300,3.20337841796875,0.28894272446632385,-0.2751918435096741,-1.526442289352417
1782811622175450400,3.213450439453125,0.20112794637680054,-0.35602304339408875,-1.5955079793930054
1782811622185522400,3.2235224609375,0.11560787260532379,-0.5327036380767822,-1.6932321786880493
1782811622195594200,3.23359423828125,-0.011474975384771824,-0.742974042892456,-1.884225845336914
1782811622205666300,3.243666259765625,-0.16658292710781097,-0.8847500085830688,-2.2186386585235596
1782811622215737300,3.2537373046875,-0.3503810167312622,-0.810619056224823,-2.636608839035034
1782811622225809400,3.263809326171875,-0.5442401170730591,-0.5353966355323792,-3.052215814590454
1782811622235881200,3.273881103515625,-0.712439775466919,-0.15819475054740906,-3.373781204223633
1782811622245953300,3.283953369140625,-0.8191043734550476,0.17123264074325562,-3.511751890182495
1782811622256025300,3.294025390625,-0.9576193690299988,0.23684415221214294,-3.4682211875915527
1782811622266097400,3.304097412109375,-1.066076397895813,-0.06333461403846741,-3.366206645965576
1782811622276169200,3.314169189453125,-1.0640257596969604,-0.6126118898391724,-3.314471483230591
1782811622286241300,3.3242412109375,-0.9483721256256104,-0.9783268570899963,-3.300445556640625
1782811622296313300,3.334313232421875,-0.788878321647644,-1.098253846168518,-3.2723639011383057
1782811622306385200,3.34438525390625,-0.6340628862380981,-1.0881147384643555,-3.2169861793518066
1782811622316457200,3.354457275390625,-0.49579960107803345,-1.0317411422729492,-3.1484920978546143
1782811622326529300,3.364529296875,-0.4033042788505554,-0.9792553186416626,-3.081605911254883
1782811622336601300,3.374601318359375,-0.4042513072490692,-0.9302260279655457,-2.9891929626464844
1782811622346673200,3.384673095703125,-0.59794020652771,-0.6184905767440796,-2.7227044105529785
1782811622356745200,3.3947451171875,-0.8736018538475037,-0.09728068858385086,-2.3253064155578613
1782811622366817300,3.4048173828125,-1.0983649492263794,0.5107091069221497,-1.8093403577804565
1782811622376888300,3.414888427734375,-1.2434086799621582,0.8065745830535889,-1.249135136604309
1782811622386960400,3.42496044921875,-1.3254822492599487,0.8865286111831665,-0.6499608755111694
1782811622397032200,3.4350322265625,-1.3429228067398071,1.0298877954483032,0.027168074622750282
1782811622407104300,3.445104248046875,-1.2871434688568115,1.2653976678848267,0.7797788381576538
1782811622417176300,3.45517626953125,-1.221459984779358,1.4135353565216064,1.570356845855713
1782811622427248000,3.465248046875,-1.2277343273162842,1.5391298532485962,2.3807690143585205
1782811622437320200,3.4753203125,-1.218832015991211,1.8032147884368896,3.167459011077881
1782811622447392300,3.485392333984375,-1.0826678276062012,2.0985963344573975,3.8056676387786865
1782811622457464300,3.49546435546875,-0.838592529296875,2.1146843433380127,4.251337051391602
1782811622467536100,3.5055361328125,-0.5485087633132935,1.9589170217514038,4.564918518066406
1782811622477608400,3.5156083984375,-0.10741981863975525,1.7567778825759888,4.471981525421143
1782811622487680500,3.525680419921875,0.32593008875846863,1.8790037631988525,4.041418552398682
1782811622497752300,3.53575244140625,0.6195555925369263,2.616342782974243,4.199985980987549
1782811622507824400,3.545824462890625,0.9758134484291077,3.2222776412963867,4.248018741607666
1782811622517896400,3.555896484375,1.2773845195770264,3.5594756603240967,4.177464008331299
1782811622527968500,3.565968505859375,1.6075763702392578,3.4644391536712646,3.9918344020843506
1782811622538039300,3.576039306640625,1.9545150995254517,3.009401798248291,3.6262922286987305
1782811622548111400,3.586111328125,2.162642478942871,2.449618101119995,3.16976261138916
1782811622558183400,3.596183349609375,2.0295214653015137,1.869985818862915,2.6959986686706543
1782811622568255500,3.60625537109375,1.6074557304382324,1.411050796508789,2.2506322860717773
1782811622578327300,3.616327392578125,1.2633649110794067,1.0275816917419434,1.8309718370437622
1782811622588399400,3.6263994140625,1.1998875141143799,0.7005487084388733,1.4024345874786377
1782811622598471400,3.636471435546875,1.2664498090744019,0.4271587133407593,0.9190689921379089
1782811622608543500,3.64654345703125,1.269447922706604,0.11908619105815887,0.363434374332428
1782811622618615300,3.656615234375,1.1881672143936157,-0.29975634813308716,-0.19945721328258514
1782811622628687400,3.666687255859375,1.1284743547439575,-0.682574987411499,-0.6297147870063782
1782811622638759400,3.676759521484375,1.1122759580612183,-0.9780572056770325,-0.9008623957633972
1782811622648831500,3.68683154296875,1.0344773530960083,-1.1556813716888428,-1.069108247756958
1782811622658903300,3.6969033203125,0.8640395998954773,-1.2878473997116089,-1.1988533735275269
1782811622668975400,3.706975341796875,0.7186192870140076,-1.3110345602035522,-1.2258661985397339
1782811622679047400,3.71704736328125,0.716128408908844,-1.159138798713684,-1.0911139249801636
1782811622689118500,3.727118408203125,0.8068731427192688,-0.9034180641174316,-0.8103268146514893
1782811622699190300,3.737190185546875,0.8625808358192444,-0.6412191987037659,-0.47572752833366394
1782811622709262300,3.747262451171875,0.7982701063156128,-0.4782651960849762,-0.21755622327327728
1782811622719334400,3.75733447265625,0.6494920253753662,-0.45422086119651794,-0.06202387809753418
1782811622729406500,3.767406494140625,0.4644230604171753,-0.5836735963821411,0.0020877826027572155
1782811622739478300,3.777478271484375,0.2754741907119751,-0.7539409399032593,0.021406885236501694
1782811622749550300,3.78755029296875,0.12999817728996277,-0.8128138184547424,0.03147057071328163
1782811622759622400,3.797622314453125,0.057622503489255905,-0.7027201056480408,0.0555436834692955
1782811622769694200,3.807694091796875,0.04565252363681793,-0.48341014981269836,0.0699542984366417
1782811622779766300,3.817766357421875,0.038092877715826035,-0.245612233877182,0.06125108525156975
1782811622789838300,3.82783837890625,-0.004185926169157028,-0.04085369035601616,0.0038651314098387957
1782811622799910400,3.837910400390625,-0.09598109126091003,0.11616149544715881,-0.11317520588636398
1782811622809982200,3.847982177734375,-0.20749233663082123,0.19109521806240082,-0.29885658621788025
1782811622820054300,3.85805419921875,-0.2743917405605316,0.15800996124744415,-0.4835129678249359
1782811622830126300,3.868126220703125,-0.2846398949623108,0.10300403833389282,-0.6191973090171814
1782811622840198400,3.878198486328125,-0.22809110581874847,0.08944295346736908,-0.6624441146850586
1782811622850269400,3.88826953125,-0.12661564350128174,0.1436700075864792,-0.6242066621780396
1782811622860341200,3.89834130859375,0.020808164030313492,0.27459847927093506,-0.4924275577068329
1782811622870413300,3.908413330078125,0.17880962789058685,0.4352308511734009,-0.3160383701324463
1782811622880485400,3.9184853515625,0.32351088523864746,0.5326343774795532,-0.12027551978826523
1782811622890557200,3.92855712890625,0.41765353083610535,0.5911646485328674,0.06796112656593323
1782811622900629200,3.938629150390625,0.46887385845184326,0.5918527841567993,0.23626039922237396
1782811622910701300,3.948701416015625,0.45959651470184326,0.503275990486145,0.366912841796875
1782811622920773400,3.9587734375,0.39863142371177673,0.4081665575504303,0.4909849762916565
1782811622930845200,3.96884521484375,0.3186168372631073,0.39686235785484314,0.6246176958084106
1782811622940917200,3.978917236328125,0.25222423672676086,0.5181909203529358,0.7797428369522095
1782811622950989300,3.9889892578125,0.19099143147468567,0.6944352984428406,0.9404640197753906
1782811622961061000,3.99906103515625,0.13917191326618195,0.8279033303260803,1.069417119026184
1782811622971133200,4.00913330078125,0.10759243369102478,0.8683782815933228,1.1636296510696411
1782811622981205200,4.019205322265625,0.10972350090742111,0.8266952633857727,1.248713731765747
1782811622991277300,4.02927734375,0.13636037707328796,0.6658164858818054,1.3098312616348267
1782811623001349000,4.03934912109375,0.15480729937553406,0.4250640273094177,1.367862343788147
1782811623011420200,4.049420166015625,0.13963882625102997,0.15431156754493713,1.4021049737930298
1782811623021492200,4.0594921875,0.050188299268484116,-0.03601151704788208,1.3720918893814087
1782811623031564300,4.069564208984375,-0.10775672644376755,-0.08884762972593307,1.2651649713516235
1782811623041636400,4.07963623046875,-0.27929332852363586,0.04260307550430298,1.1163252592086792
1782811623051708200,4.089708251953125,-0.33753064274787903,0.20736300945281982,0.9710385203361511
1782811623061780200,4.0997802734375,-0.2786228656768799,0.24367894232273102,0.8551249504089355
1782811623071852300,4.109852294921875,-0.20631630718708038,0.17585718631744385,0.7800246477127075
1782811623081924400,4.11992431640625,-0.16820727288722992,0.16120126843452454,0.7354733943939209
1782811623091996400,4.129996337890625,-0.16693788766860962,0.2045971006155014,0.6945470571517944
1782811623102068500,4.140068359375,-0.22613249719142914,0.167679563164711,0.5750475525856018
1782811623112140500,4.150140625,-0.3126220405101776,0.022409876808524132,0.3854673504829407
1782811623122212400,4.16021240234375,-0.37767934799194336,-0.11790701746940613,0.19982263445854187
1782811623132284400,4.170284423828125,-0.43106818199157715,-0.09101473540067673,-0.002201499417424202
1782811623142356500,4.1803564453125,-0.4722102880477905,0.06272342056035995,-0.24241650104522705
1782811623152428300,4.19042822265625,-0.4538656771183014,0.24575820565223694,-0.4922504723072052
1782811623162499300,4.200499267578125,-0.36917582154273987,0.3016449213027954,-0.7367150783538818
1782811623172571400,4.2105712890625,-0.2741346061229706,0.24597536027431488,-0.9773709177970886
1782811623182643500,4.2206435546875,-0.18933768570423126,0.17287024855613708,-1.1797301769256592
1782811623192715500,4.230715576171875,-0.09313175827264786,0.14974336326122284,-1.2663322687149048
1782811623202787300,4.240787353515625,-0.009686929173767567,0.1109837144613266,-1.2198030948638916
1782811623212859400,4.250859375,0.034844256937503815,0.006555883679538965,-1.0601184368133545
1782811623222931500,4.260931396484375,0.040130365639925,-0.15105772018432617,-0.8375469446182251
1782811623233003300,4.271003173828125,-0.016766851767897606,-0.3209366202354431,-0.6448614001274109
1782811623243075300,4.281075439453125,-0.15349140763282776,-0.48535671830177307,-0.6001916527748108
1782811623253147400,4.2911474609375,-0.30937182903289795,-0.6124491691589355,-0.7279517650604248
1782811623263219500,4.301219482421875,-0.38127264380455017,-0.6484106183052063,-0.9659547209739685
1782811623273291300,4.311291259765625,-0.34402650594711304,-0.5742074847221375,-1.2127094268798828
1782811623283363300,4.32136328125,-0.22206570208072662,-0.4222794473171234,-1.3945318460464478
1782811623293435400,4.331435302734375,-0.05231928825378418,-0.24191182851791382,-1.4482907056808472
1782811623303507500,4.341507568359375,0.09968755394220352,-0.05118289589881897,-1.3728628158569336
1782811623313578200,4.351578125,0.20579542219638824,0.11370298266410828,-1.2115398645401
1782811623323650300,4.361650390625,0.26144933700561523,0.2484312206506729,-0.9973905086517334
1782811623333722400,4.371722412109375,0.28200727701187134,0.33020099997520447,-0.7802857160568237
1782811623343794400,4.38179443359375,0.2888678312301636,0.3252054452896118,-0.5692856311798096
1782811623353866200,4.3918662109375,0.2907065153121948,0.2320999801158905,-0.3871757388114929
1782811623363938300,4.401938232421875,0.2897653579711914,0.10534229129552841,-0.2004663199186325
1782811623374010400,4.41201025390625,0.29560714960098267,0.01569901406764984,-0.00014820729847997427
1782811623384082700,4.422082763671875,0.32176312804222107,-0.03213721886277199,0.2235429435968399
1782811623394154800,4.43215478515625,0.3493849039077759,-0.055679801851511,0.4574081301689148
1782811623404226800,4.442226806640625,0.3636826276779175,-0.0353444367647171,0.6721792817115784
1782811623414299000,4.452298828125,0.36261898279190063,0.03937583789229393,0.8524091839790344
1782811623424370700,4.46237060546875,0.32755979895591736,0.17490489780902863,0.9844276905059814
1782811623434442800,4.47244287109375,0.2587375342845917,0.31783977150917053,1.0573835372924805
1782811623444514800,4.482514892578125,0.15562421083450317,0.4405105710029602,1.0877236127853394
1782811623454585900,4.4925859375,0.03217199072241783,0.5114553570747375,1.0664602518081665
1782811623464657700,4.50265771484375,-0.09488316625356674,0.4933919310569763,0.984166145324707
1782811623474729700,4.512729736328125,-0.1992211639881134,0.39916568994522095,0.8821604251861572
1782811623484801800,4.5228017578125,-0.26138707995414734,0.3410501778125763,0.7995579838752747
1782811623494873900,4.532873779296875,-0.26397719979286194,0.3481975495815277,0.7588069438934326
1782811623504945700,4.542945556640625,-0.2225876748561859,0.4273163378238678,0.7737600207328796
1782811623515017700,4.553017822265625,-0.1429193913936615,0.5225743055343628,0.8519673347473145
1782811623525089800,4.56308984375,-0.041709426790475845,0.5465044379234314,0.9772794842720032
1782811623535161900,4.573161865234375,0.06025487557053566,0.4319732189178467,1.1032904386520386
1782811623545233700,4.583233642578125,0.1497860997915268,0.1870790421962738,1.2019445896148682
1782811623555305700,4.5933056640625,0.14358429610729218,-0.17164042592048645,1.1850740909576416
1782811623565377800,4.603377685546875,-0.0007337327115237713,-0.4809093177318573,1.0332340002059937
1782811623575449600,4.61344970703125,-0.12908262014389038,-0.5321224927902222,0.8799924850463867
1782811623585522000,4.62352197265625,-0.08915571123361588,-0.4381650686264038,0.9026471972465515
1782811623595594000,4.633593994140625,0.03231692314147949,-0.39187294244766235,1.0869251489639282
1782811623605664800,4.643664794921875,0.03870025649666786,-0.3665279150009155,1.3108328580856323
1782811623615736800,4.65373681640625,-0.10714000463485718,-0.2166319191455841,1.4739415645599365
1782811623625808600,4.66380859375,-0.2780880630016327,-0.10297059267759323,1.475998044013977
1782811623635880700,4.673880615234375,-0.4355085492134094,-0.15220770239830017,1.220560073852539
1782811623645953000,4.683953125,-0.498149037361145,-0.12751621007919312,0.7948846220970154
1782811623656024800,4.69402490234375,-0.35666924715042114,-0.046830251812934875,0.3513162136077881
1782811623666097000,4.704096923828125,-0.08846493810415268,-0.09427659213542938,-0.01093682274222374
1782811623676169000,4.7141689453125,0.16969938576221466,-0.30209043622016907,-0.2543010115623474
1782811623686241000,4.724240966796875,0.33640313148498535,-0.6461130976676941,-0.3964032828807831
1782811623696312800,4.734312744140625,0.4131952226161957,-1.0167052745819092,-0.4432240128517151
1782811623706385000,4.744385009765625,0.4534590244293213,-1.2498503923416138,-0.40037935972213745
1782811623716457000,4.75445703125,0.4624054431915283,-1.333217740058899,-0.30953317880630493
1782811623726528800,4.76452880859375,0.42539069056510925,-1.387258529663086,-0.20413272082805634
1782811623736600800,4.774600830078125,0.3058610260486603,-1.3899712562561035,-0.11945443600416183
1782811623746671900,4.784671875,0.09960852563381195,-1.295780897140503,-0.12791049480438232
1782811623756744000,4.794743896484375,-0.13244305551052094,-1.081279993057251,-0.26166728138923645
1782811623766816000,4.80481591796875,-0.3237355351448059,-0.7528936862945557,-0.49251434206962585
1782811623776887800,4.8148876953125,-0.4166407585144043,-0.27436190843582153,-0.739445149898529
1782811623786960000,4.8249599609375,-0.39092153310775757,0.27170702815055847,-0.9030596613883972
1782811623797032000,4.835031982421875,-0.3172641396522522,0.7476112842559814,-0.9549287557601929
1782811623807104000,4.84510400390625,-0.24984194338321686,1.019688367843628,-0.9038234949111938
1782811623817175800,4.85517578125,-0.20154166221618652,1.0765634775161743,-0.7476226091384888
1782811623827247900,4.865247802734375,-0.17147670686244965,0.9712551832199097,-0.4950532019138336
1782811623837320000,4.87531982421875,-0.14641420543193817,0.8160519599914551,-0.20238889753818512
1782811623847391700,4.885391845703125,-0.13176654279232025,0.6728609800338745,0.07850456237792969
1782811623857463800,4.8954638671875,-0.12950165569782257,0.5780603289604187,0.31535670161247253
1782811623867536000,4.905535888671875,-0.14506223797798157,0.5252248048782349,0.4852410852909088
1782811623877608000,4.91560791015625,-0.19566676020622253,0.4776417911052704,0.5839052200317383
1782811623887679700,4.9256796875,-0.26753029227256775,0.42471277713775635,0.6203634142875671
1782811623897750800,4.935750732421875,-0.32731151580810547,0.42726853489875793,0.622086763381958
1782811623907822800,4.94582275390625,-0.35041069984436035,0.4977347254753113,0.609225869178772
1782811623917895000,4.95589501953125,-0.3458736538887024,0.5876489877700806,0.599636435508728
1782811623927966700,4.965966796875,-0.32449617981910706,0.6667842864990234,0.5783652663230896
1782811623938038800,4.976038818359375,-0.277459979057312,0.7200022339820862,0.5559723377227783
1782811623948110800,4.98611083984375,-0.21341274678707123,0.7537230849266052,0.5490149855613708
1782811623958183000,4.996182861328125,-0.16577626764774323,0.7810741066932678,0.5580399036407471
1782811623968254700,5.006254638671875,-0.1589047759771347,0.7647600769996643,0.5862342715263367
1782811623978326800,5.016326904296875,-0.19269807636737823,0.6893036365509033,0.6446406245231628
1782811623988398800,5.02639892578125,-0.24090154469013214,0.642401933670044,0.7448868155479431
1782811623998470700,5.036470703125,-0.2702772617340088,0.6639944314956665,0.8746747970581055
1782811624008542700,5.046542724609375,-0.27852320671081543,0.6551340818405151,0.9871488809585571
1782811624018614800,5.05661474609375,-0.2734595537185669,0.5962789058685303,1.0672284364700317
1782811624028686800,5.066686767578125,-0.25993895530700684,0.556857168674469,1.1362847089767456
1782811624038758000,5.0767578125,-0.23712874948978424,0.5589646100997925,1.1996691226959229
1782811624048829700,5.08682958984375,-0.17082935571670532,0.5457220673561096,1.2258572578430176
1782811624058901800,5.09690185546875,-0.0336836576461792,0.4972260296344757,1.2207175493240356
1782811624068973800,5.106973876953125,0.12190939486026764,0.4492467939853668,1.196476697921753
1782811624079046000,5.1170458984375,0.1842556744813919,0.3627813756465912,1.1232707500457764
1782811624089117700,5.12711767578125,0.09240911900997162,0.2940313220024109,0.9715884923934937
1782811624099189800,5.137189697265625,-0.12309970706701279,0.3105100989341736,0.7454431653022766
1782811624109261800,5.14726171875,-0.33860671520233154,0.42497703433036804,0.4505912959575653
1782811624119333600,5.157333740234375,-0.4382181167602539,0.5225668549537659,0.11252406984567642
1782811624129405700,5.16740576171875,-0.4054364860057831,0.3048688769340515,-0.21208542585372925
1782811624139477800,5.177477783203125,-0.39929839968681335,-0.0038511911407113075,-0.4820133447647095
1782811624149549800,5.1875498046875,-0.47359341382980347,-0.04263267666101456,-0.6586490869522095
1782811624159621600,5.19762158203125,-0.49835482239723206,0.08424023538827896,-0.7676458954811096
1782811624169693700,5.207693603515625,-0.35457074642181396,0.23168960213661194,-0.8443108797073364
1782811624179764700,5.2177646484375,-0.05857951194047928,0.23901163041591644,-0.8990676403045654
1782811624189836800,5.2278369140625,0.2008502036333084,-0.10556785762310028,-0.9542195796966553
1782811624199908600,5.23790869140625,0.22799882292747498,-0.7378875613212585,-1.0712441205978394
1782811624209980700,5.247980712890625,0.08133027702569962,-1.2884896993637085,-1.215848445892334
1782811624220052700,5.258052734375,0.014553106389939785,-1.4922070503234863,-1.3166184425354004
1782811624230124800,5.268124755859375,0.08212762326002121,-1.4104015827178955,-1.3483383655548096
1782811624240196900,5.27819677734375,0.22903507947921753,-1.159974217414856,-1.3100003004074097
1782811624250269000,5.28826904296875,0.3577885329723358,-0.8228911757469177,-1.2050997018814087
1782811624260341000,5.298341064453125,0.38711732625961304,-0.5204950571060181,-1.0469281673431396
1782811624270412800,5.308412841796875,0.3116076588630676,-0.26554930210113525,-0.8700127005577087
1782811624280484900,5.31848486328125,0.20380130410194397,-0.13362161815166473,-0.69245445728302
1782811624290557000,5.328556884765625,0.08068044483661652,-0.22557523846626282,-0.5210411548614502
1782811624300629000,5.33862890625,-0.06727200746536255,-0.4318764805793762,-0.44261476397514343
1782811624310700800,5.34870068359375,-0.23627488315105438,-0.6911096572875977,-0.5876486897468567
1782811624320771800,5.358771728515625,-0.28994861245155334,-0.945221483707428,-0.9235787391662598
1782811624330844000,5.368843994140625,-0.1935778707265854,-1.0967068672180176,-1.2952955961227417
1782811624340916000,5.378916015625,-0.0021577193401753902,-1.0466805696487427,-1.5603222846984863
1782811624350988000,5.388988037109375,0.24073214828968048,-0.7218659520149231,-1.6016616821289062
1782811624361059800,5.399059814453125,0.466244637966156,-0.20137964189052582,-1.361323595046997
1782811624371132000,5.4091318359375,0.6028701663017273,0.2749671936035156,-0.9057691097259521
1782811624381204000,5.419203857421875,0.6109018325805664,0.5867292284965515,-0.3392753005027771
1782811624391275500,5.429275634765625,0.5212475657463074,0.7554601430892944,0.2637740671634674
1782811624401347300,5.439347412109375,0.36057624220848083,0.8343136310577393,0.7904637455940247
1782811624411419400,5.44941943359375,0.18846039474010468,0.8672294616699219,1.1579538583755493
1782811624421491500,5.459491455078125,0.04936583340167999,0.8717092275619507,1.3483785390853882
1782811624431563300,5.469563232421875,-0.04699984937906265,0.8171567320823669,1.3656686544418335
1782811624441635300,5.47963525390625,-0.11106240004301071,0.7587815523147583,1.2953397035598755
1782811624451707400,5.489707275390625,-0.1282709389925003,0.7645075917243958,1.166542887687683
1782811624461778400,5.4997783203125,-0.0984259843826294,0.6786825060844421,0.9152214527130127
1782811624471850500,5.5098505859375,-0.005311225540935993,0.5240758657455444,0.5443216562271118
1782811624481922300,5.51992236328125,0.14296582341194153,0.4899781346321106,0.17021124064922333
1782811624491994400,5.529994384765625,0.30145612359046936,0.6596025824546814,-0.029848089441657066
1782811624502066400,5.54006640625,0.3448752462863922,1.3744897842407227,0.2793206572532654
1782811624512138200,5.55013818359375,0.2173290103673935,1.3329474925994873,0.6531866788864136
1782811624522210300,5.560210205078125,0.09480994194746017,1.0187913179397583,1.047788143157959
1782811624532282400,5.570282470703125,0.029978474602103233,0.6052771210670471,1.4541964530944824
1782811624542354400,5.5803544921875,-0.0672183632850647,0.15730619430541992,1.796499490737915
1782811624552426200,5.59042626953125,-0.1679614782333374,-0.23494121432304382,1.8774937391281128
1782811624562499300,5.600499267578125,-0.3026505708694458,-0.6585074067115784,1.676629900932312
1782811624572571400,5.6105712890625,-0.431189626455307,-0.9538775682449341,1.3408583402633667
1782811624582643200,5.620643310546875,-0.35253748297691345,-0.5244542360305786,1.145876169204712
1782811624592714200,5.63071435546875,-0.06743357330560684,0.04112266004085541,1.0828112363815308
