time,seconds_elapsed,z,y,x
1782661556137812700,0.064812744140625,0.39530864686369893,-0.563826599921286,-0.6363397552073001
1782661556147883800,0.0748837890625,-0.1048614734441042,-0.25099253038763997,-0.8716410877272486
1782661556157954800,0.084954833984375,-0.2808417252063751,0.10866992581635714,-1.0055975766219198
1782661556168025900,0.09502587890625,-0.050554713717103,0.5469692808836698,-1.127837835694477
1782661556178097000,0.105096923828125,0.3651584232717752,1.1031786837995052,-1.1538535167649389
1782661556188167700,0.115167724609375,0.6310568463683128,1.6114841797679662,-1.1542967304877936
1782661556198238700,0.12523876953125,0.29061726928949355,1.86177937554121,-1.0442538358177988
1782661556208309800,0.135309814453125,-0.3515197740197181,2.0711632997334,-0.6783399180036038
1782661556218380800,0.145380859375,-0.36218203780949115,2.2156541882544754,-0.3725908017622307
1782661556228451800,0.155451904296875,0.06921557504534721,2.2156880905240772,-0.33723113642632957
1782661556238523000,0.16552294921875,0.4790986907064914,2.1232173120975495,-0.29850281664123757
1782661556248594000,0.175593994140625,0.9551742341995239,2.0051608415156603,-0.07804214784055948
1782661556258664700,0.185664794921875,1.1977321137189865,2.378824058282375,0.3160779833583161
1782661556268735700,0.19573583984375,1.576226403903961,3.0548978579849004,0.7906278151214122
1782661556278806800,0.205806884765625,1.7941496083825825,2.4423563269943,0.6403882999457419
1782661556288877800,0.2158779296875,1.8015087389737368,1.9023159685909747,0.47955297381263223
1782661556298948900,0.225948974609375,1.5626801091104745,2.081415813678503,0.6053789824174717
1782661556309020000,0.23602001953125,1.0225076487600804,2.179233506090939,0.6392855994008481
1782661556319090700,0.246090576171875,0.5134446124225854,1.911064507713914,0.49055499095078553
1782661556329161700,0.25616162109375,0.03885784618258476,1.4439324413940309,-0.28165961746051904
1782661556339232800,0.266232666015625,-0.07947510325312614,0.900139452458918,-1.4427403090000153
1782661556349303800,0.2763037109375,0.3270826673775911,0.26034488062262534,-2.2968663444332775
1782661556359374800,0.286374755859375,1.0071054969668387,-0.29231238276958466,-2.438204760272801
1782661556369446000,0.29644580078125,1.7387357641965149,-0.5045093185558915,-2.160831295698881
1782661556379516700,0.3065166015625,2.102211933469772,-0.5456073448807001,-1.79138028979972
1782661556389587700,0.316587646484375,2.1870926951587197,-0.5284773463815451,-1.6338950412794946
1782661556399659500,0.326659423828125,2.0969448067218064,-0.6710618167594075,-1.383505299090594
1782661556409729800,0.336729736328125,1.8927420845597982,-1.002054351057112,-1.0926545133061707
1782661556419801600,0.346801513671875,2.114452406361699,-0.9784954885542392,-0.49927174669597296
1782661556429872600,0.35687255859375,2.2244453974753617,-0.28421763138025996,0.010354659145325422
1782661556439943700,0.366943603515625,1.9756430706083774,0.6783183637589216,0.42784993031062185
1782661556450014700,0.3770146484375,1.2081202367424964,1.2388865464061498,0.9420890541117638
1782661556460085800,0.387085693359375,0.35663141794502734,1.1888844981357454,1.0955755883846432
1782661556470156800,0.39715673828125,0.22289456315040587,1.000758466027677,0.7829813920214772
1782661556480227800,0.407227783203125,0.41754093693792815,0.6915194983765482,0.42568296153508123
1782661556490298600,0.417298583984375,0.6871721168220043,0.10765139642357825,0.11854001631513238
1782661556500369700,0.42736962890625,1.234490357273817,-0.6702057844519614,-0.17175905387066304
1782661556510440700,0.437440673828125,1.7398744128376245,-1.3617071626499295,-0.2795779888808727
1782661556520511700,0.44751171875,2.176310604381561,-1.6201207829490303,-0.1322208972737193
1782661556530582800,0.457582763671875,2.1388667166501283,-1.539569867157936,0.0962014893874526
1782661556540653800,0.46765380859375,2.0735142467737195,-1.4034046161726117,0.2980310526773333
1782661556550724900,0.477724853515625,1.9871195733904838,-1.4508993577972054,0.3468839309126138
1782661556560796000,0.4877958984375,1.6089748272955418,-1.7528507987886666,0.0017814765892922876
1782661556570867000,0.497866943359375,1.4373539397865533,-1.842379678544402,-0.11092018896117806
1782661556580938000,0.50793798828125,1.7507365831136703,-1.6084373594179748,-0.04565788158625364
1782661556591009000,0.518009033203125,2.89184080068171,-1.3562968280389904,0.26063158860951663
1782661556601080000,0.528080078125,2.62928525827229,-1.7303312162056563,0.29338775691613556
1782661556611150800,0.53815087890625,0.7221247722595929,-2.307551258446276,-0.32926088819950816
1782661556621222000,0.548221923828125,-2.23457574634552,-2.7811148191183803,-1.0475457900352776
1782661556631293000,0.55829296875,-2.6273697800397873,-2.419744389952719,-0.9110733727969229
1782661556641364000,0.568364013671875,-2.338723518562317,-1.3851377225980162,-0.41336745064556596
1782661556651435000,0.57843505859375,-2.9275030656933785,-0.6205696468845009,-0.08042480519339441
1782661556661506000,0.588506103515625,-2.8000913222670554,-0.005089139832556247,0.1668118797920644
1782661556671576800,0.598576904296875,-2.63305308637321,0.5240028313159942,0.33617169050127266
1782661556681647900,0.60864794921875,-2.3277631486088035,0.7514531580746173,0.2747841787330806
1782661556691719000,0.618718994140625,-2.1011241382330654,0.7906447662562132,0.19641411411240695
1782661556701790000,0.6287900390625,-2.2331197023183105,0.8214832643732428,0.37364253930486735
1782661556711861000,0.638861083984375,-2.7624808457970618,0.6587371727153658,0.4294686906188726
1782661556721932000,0.64893212890625,-2.91157250611186,0.45631870362162585,0.26364684477746486
1782661556732003000,0.659003173828125,-3.430122917240858,-0.05047317291349172,0.33026999217681585
1782661556742073900,0.669073974609375,-4.605456736668944,-1.0650888993799685,1.2411172280676661
1782661556752145000,0.679144775390625,-6.8914932056605815,-2.2095623011201617,1.6178493308857083
1782661556762216000,0.6892158203125,-9.842262580651044,-2.8886525260344147,0.7177027910988777
1782661556772287000,0.699286865234375,-11.210267089879512,-2.1469211360290643,-0.27555691667124627
1782661556782358000,0.70935791015625,-11.67079785823822,-0.8427911330789327,-1.2602120968990027
1782661556792429000,0.719428955078125,-11.367758329749106,0.1547419411614537,-2.142783597832918
1782661556802499800,0.729499755859375,-9.901424379193783,0.6815072229281067,-2.6022233560845254
1782661556812571000,0.73957080078125,-8.007605020791292,0.027643209207057953,-2.592270994129777
1782661556822642000,0.749641845703125,-5.5479445077747105,-1.4081301833897828,-2.681473710671067
1782661556832713000,0.759712890625,-3.005380670621991,-2.6860683449849483,-2.612087747494876
1782661556842784000,0.769783935546875,-0.8435270461380481,-3.5764725853711363,-2.8871903445273635
1782661556852855000,0.77985498046875,0.24259236631095407,-4.13214481267035,-3.805239547686279
1782661556862925800,0.78992578125,-0.47122167372107504,-3.884692146846652,-4.938812492966652
1782661556872996900,0.799996826171875,-1.7258049709528684,-2.4809569835454224,-4.6240848647713655
1782661556883068000,0.81006787109375,-3.1453818465083834,0.23284195666909216,-2.9563679256498814
1782661556893139000,0.820138916015625,-4.422295633491873,3.0515210750281807,-0.6460030710875988
1782661556903210000,0.8302099609375,-4.645523958641291,4.618936980488896,1.2281871654763816
1782661556913281000,0.840281005859375,-3.542195052716136,4.637731989590823,2.5877497173130513
1782661556923351800,0.850351806640625,-1.1941618540167809,3.6331709164097905,3.3369217787131666
1782661556933422800,0.8604228515625,1.1243816308259964,2.3963825113266704,3.458183182816207
1782661556943495000,0.870494873046875,3.0517443623900413,0.9273983385235071,2.9094252649500962
1782661556953566000,0.88056591796875,4.04773283753693,-0.6191969702918082,1.9528499317809938
1782661556963637000,0.890636962890625,4.379747116097808,-1.8618365125559269,0.9530328382566571
1782661556973708000,0.9007080078125,4.939474756267667,-2.5783061816632746,0.5220673332087695
1782661556983779000,0.910779052734375,5.148725993990898,-3.3570503745064135,0.165768215958029
1782661556993849900,0.920849853515625,4.621212524205446,-4.0029806726187465,-0.08893997395187615
1782661557003921000,0.9309208984375,5.141830973780155,-3.053861500674486,1.71507782523334
1782661557013992000,0.940991943359375,5.828862220826744,-1.9350759362898766,3.3599861356973646
1782661557024063000,0.95106298828125,6.171929223799705,-1.4295093637660146,3.35359731144309
1782661557034134000,0.961134033203125,6.298166662749647,-0.9848068636581301,3.2447447225362063
1782661557044205000,0.971205078125,5.988439619320631,-0.7145676348783075,3.3000673813074823
1782661557054275800,0.98127587890625,5.470542119142412,-0.5022140472255647,3.210655990451574
1782661557064347000,0.991346923828125,4.820132922050356,-0.5222132444854826,2.9300024812936782
1782661557074418000,1.00141796875,4.2868385307759045,-0.650498190549761,3.103974315842986
1782661557084489000,1.011489013671875,4.153170065042376,-0.7250157444607466,2.9352371670767665
1782661557094560000,1.02156005859375,4.565103683492541,-0.6879189166013151,2.700201792016625
1782661557104631000,1.031631103515625,5.570074506518244,-0.20111542367115615,2.6017601224869487
1782661557114701800,1.041701904296875,6.483398726981878,0.45582639006003733,2.4590134472846983
1782661557124772900,1.05177294921875,6.908422713151574,0.9342246774122118,2.3259350563988086
1782661557134844000,1.061843994140625,6.897274711671471,1.069021270392835,2.188492186693102
1782661557144915000,1.0719150390625,6.397946302884817,0.830712865011394,1.776438595125079
1782661557154986000,1.081986083984375,5.805095560792088,0.5825182947792112,1.2617882601745425
1782661557165057000,1.09205712890625,4.997449975374341,0.672427844415605,0.987566537629813
1782661557175127800,1.1021279296875,4.169410421225428,1.4125979764536023,1.7026640416011214
1782661557185198800,1.11219873046875,3.7486639662444587,2.1803078573241828,1.9053743332482873
1782661557195270000,1.122269775390625,3.3223499402642247,2.6560110603734848,1.6898545366495847
1782661557205341000,1.1323408203125,1.6297656863898038,3.16246186838597,1.0664401678584516
1782661557215412000,1.142411865234375,0.35468788266181944,3.1606071804299947,0.733608435434848
1782661557225483000,1.15248291015625,-2.307044770228863,2.9155294270440932,0.7113312102403492
1782661557235553800,1.1625537109375,-5.801452235853672,2.582205527189374,-0.05571333858929574
1782661557245624800,1.172624755859375,-8.869971791955829,1.8573919542372226,-1.1741240052469073
1782661557255696000,1.18269580078125,-10.761716682171821,0.5626829828441142,-1.8706788674421608
1782661557265767000,1.192766845703125,-9.922179582452774,-2.169377005726099,-1.4812611783131957
1782661557275838000,1.202837890625,-7.42595079549551,-4.885723292335868,-0.4666304004080593
1782661557285909000,1.212908935546875,-6.9359677226811645,-5.410259207615256,0.17008542157001794
1782661557295979800,1.222979736328125,-9.678463180547952,-4.228040304848552,0.27832433555796743
1782661557306050800,1.23305078125,-12.841789264547824,-2.5186782269135115,-0.4696273172017187
1782661557316121900,1.243121826171875,-14.226995083945988,-0.8761936364650725,-1.207340995998308
1782661557326193000,1.25319287109375,-14.550964003217219,0.4019739499717951,-1.519935192361474
1782661557336264000,1.263263916015625,-13.711438593935966,0.7809151071414351,-1.9489139075063169
1782661557346335000,1.2733349609375,-10.760346562862395,-0.011632570126652716,-2.3194231902867553
1782661557356406000,1.283406005859375,-6.903770503431558,-1.8211366917684673,-2.4647981681659816
1782661557366476800,1.293476806640625,-3.706447457283735,-3.6833036053225396,-2.5854440707191824
1782661557376547800,1.3035478515625,-1.2089619482636451,-4.533727132976055,-2.617164612367749
1782661557386619000,1.313618896484375,0.5087947407901287,-4.379072285576164,-2.482771047230065
1782661557396690000,1.32368994140625,1.4423831661254167,-3.758179398086667,-2.2660443590596318
1782661557406761000,1.333760986328125,1.60246909866333,-3.1644781766444443,-2.1128372262500226
1782661557416832000,1.34383203125,1.3463655088722706,-2.4716245070546865,-1.8839773249544203
1782661557426902800,1.35390283203125,0.9272025236904621,-1.5702159114427863,-1.5333080302841962
1782661557436974800,1.363974853515625,0.7178951718658209,-0.8471094346694648,-0.8987309008352458
1782661557447046400,1.37404638671875,0.7712830631822347,-0.4017047776415944,-0.2309351001344621
1782661557457117400,1.384117431640625,1.34250591083467,-0.1300762864604592,0.4199646569535136
1782661557467188500,1.3941884765625,2.288723516118526,0.09160407859459518,1.143615908128023
1782661557477259500,1.404259521484375,3.459619645360112,0.18062383978441357,1.7370748452469706
1782661557487330300,1.414330322265625,4.32069520767033,-0.1426024444259703,1.9997600053854285
1782661557497401300,1.4244013671875,4.696282085976004,-0.6300115750990808,1.9979189075633883
1782661557507472400,1.434472412109375,4.809202947235107,-0.9439715068574994,1.80367526935786
1782661557517543400,1.44454345703125,4.903423784199357,-0.9982165264599024,1.6554940018862485
1782661557527614500,1.454614501953125,5.16162756114006,-0.8620059019628912,1.6648346616834402
1782661557537685500,1.464685546875,5.353743539667129,-0.6051216831881553,1.7735715152561664
1782661557547756500,1.474756591796875,5.249254406666755,-0.3487657260712236,2.065100638693571
1782661557557827300,1.484827392578125,5.146335883983969,-0.17771387062184513,2.2913766609758137
1782661557567898400,1.4948984375,5.102514277914167,0.004259411010146141,2.495696872037649
1782661557577969400,1.504969482421875,5.216026675325632,0.0021204992853105066,2.534612001365423
1782661557588040400,1.51504052734375,5.3868549511522055,-0.13184534195959569,2.3692449135541915
1782661557598111500,1.525111572265625,5.665463218218088,-0.3262126065447926,2.1671385791495443
1782661557608182500,1.5351826171875,6.066923373448849,-0.5235755458146334,1.9884001147203145
1782661557618253300,1.54525341796875,6.557404458913207,-0.6878017199624329,1.7830793483138083
1782661557628324400,1.555324462890625,7.024696976491809,-0.8003498754516244,1.6395634423047303
1782661557638395400,1.5653955078125,7.399843709814548,-0.7992261321187019,1.651633673196286
1782661557648466400,1.575466552734375,7.775041296541691,-0.6406691627137363,1.793179009784758
1782661557658537500,1.585537353515625,8.236386303892731,-0.32453444419950245,1.9809671882405875
1782661557668608500,1.5956083984375,8.841662812316418,0.032399902214854955,2.2586495726332068
1782661557678679300,1.60567919921875,9.131773301127552,0.1799928484044969,2.4685376469552516
1782661557688750300,1.615750244140625,8.576424314433336,0.15305238063931464,2.383283083517849
1782661557698821400,1.6258212890625,7.366679106837511,0.42230362129509447,2.1472326861962676
1782661557708892400,1.635892333984375,5.382677373206615,0.9005440877370536,2.084343683823943
1782661557718963500,1.64596337890625,2.419654665842652,1.645263699772954,2.1823574833303687
1782661557729034500,1.656034423828125,-0.985834745401144,2.710942381739616,1.9962674870945512
1782661557739105300,1.666105224609375,-4.14753176689446,3.746062843835354,1.3668416029289363
1782661557749176300,1.67617626953125,-6.046048343202472,4.366504188165068,0.8399395430400967
1782661557759247400,1.686247314453125,-6.411247098484635,3.7506633233681317,0.25231632633730766
1782661557769318400,1.696318359375,-5.722576267537474,2.006601103451848,-0.42135406548529863
1782661557779389400,1.706389404296875,-4.808575170725584,-0.4817468671277165,-0.2756242828190327
1782661557789460500,1.71646044921875,-5.157484469985961,-3.922458106139302,1.2703779554739594
1782661557799531300,1.72653125,-5.936695988079905,-6.974624493333697,1.1658230637609959
1782661557809602300,1.736602294921875,-8.15932761413157,-7.105453351727127,-1.9205846157312392
1782661557819673300,1.74667333984375,-13.383631703937052,-5.069249137172102,-3.325617417627573
1782661557829744400,1.756744384765625,-18.593056789040563,-3.655674716901779,-4.656958960369229
1782661557839815400,1.7668154296875,-21.577387072849273,-2.381989536575973,-6.397316188287735
1782661557849886500,1.776886474609375,-22.02580888574123,-1.1698407749697566,-7.766506692430377
1782661557859957200,1.786957275390625,-20.403437985777853,-0.7631056019455194,-8.408217619282008
1782661557870028300,1.7970283203125,-15.801816297227143,-1.5634554773971439,-7.5151710476934905
1782661557880099300,1.807099365234375,-9.583544424447417,-2.736754868388176,-6.073608550301194
1782661557890170400,1.81717041015625,-4.37879025376439,-3.525437102399766,-4.902271983815729
1782661557900241400,1.827241455078125,-0.8483125268489122,-3.8398996499180793,-3.8608176425233482
1782661557910312400,1.8373125,0.9316612566649913,-4.0035383065015075,-3.273335149465501
1782661557920383200,1.84738330078125,1.3544056074649096,-4.253330521188676,-3.3201921777084467
1782661557930454300,1.857454345703125,1.578028484889865,-4.202208236716688,-3.4043551465168593
1782661557940525300,1.867525390625,1.9137223287463188,-3.8286119477063414,-3.3828006095737218
1782661557950596400,1.877596435546875,2.5869787329405542,-3.1794232323199507,-3.0179063901960848
1782661557960667400,1.88766748046875,3.3512469489246604,-2.2997347394764422,-2.366054885341227
1782661557970738400,1.897738525390625,4.090301813197136,-1.336634680713713,-1.4473916419371962
1782661557980809200,1.907809326171875,4.869541388341784,-0.417782782869786,-0.3313683818727732
1782661557990880300,1.91788037109375,5.657672125950455,0.41586774302870033,0.9713365567103027
1782661558000951300,1.927951416015625,6.239896260088682,0.8588036718554795,1.860638096551597
1782661558011022300,1.938022216796875,6.375830332666635,0.2394447159349918,1.7478768097683786
1782661558021093400,1.94809326171875,6.63703387594521,-0.6761610395945609,1.6000927249208092
1782661558031164400,1.958164306640625,7.588437943956255,-1.0536851695731282,1.8029267890781162
1782661558041235200,1.968235107421875,8.655106221482157,-0.6335590384475887,2.2073156912371514
1782661558051306200,1.97830615234375,8.979337006559968,0.15836130070239304,2.756223538967967
1782661558061377300,1.988377197265625,8.609977039945125,0.7212978199161588,3.3506983751311896
1782661558071448300,1.9984482421875,7.923259096631408,1.0087176083385945,3.779962190827727
1782661558081519400,2.008519287109375,7.141587325903773,1.1895078907310963,3.971360376474261
1782661558091590400,2.01859033203125,6.464394166782498,1.2937505016244948,4.075911468794942
1782661558101661200,2.0286611328125,5.980161620318889,1.4386660452984272,4.162761776991188
1782661558111732200,2.038732177734375,5.438451867398619,1.5323054291129112,4.176459462954104
1782661558121803300,2.04880322265625,4.507255305635929,1.5946121015526353,4.286152302077412
1782661558131874300,2.058874267578125,4.365876996177435,1.585877006433159,4.124961038646101
1782661558141945300,2.0689453125,4.186276215830445,1.6626780681714415,4.014434963569045
1782661558152017400,2.079017333984375,4.2206420112907885,1.5590452597394584,3.9036280257239935
1782661558162088400,2.08908837890625,4.4923044047415255,1.3082599423617123,3.686457977700233
1782661558172159500,2.099159423828125,4.930461428728699,0.9226145383130758,3.3725027951821684
1782661558182230300,2.109230224609375,5.410514059159159,0.4881885906130075,2.961217703768611
1782661558192301300,2.11930126953125,5.617777337935567,0.07038914886936545,2.5061957619592548
1782661558202372400,2.129372314453125,5.419450229808688,-0.2464689154833555,2.091930777952075
1782661558212443400,2.139443359375,4.9383495516300195,-0.31121319033354516,1.7378090047404169
1782661558222514400,2.149514404296875,4.245323448082805,-0.15302753845900297,1.4302049448147416
1782661558232585500,2.15958544921875,3.259087136143446,0.011278057600557804,1.2014017421424388
1782661558242656300,2.16965625,2.224558210200071,0.03955634984076023,0.8512687463060021
1782661558252727300,2.179727294921875,1.3786053982198239,0.05596504832804203,0.3309861045569181
1782661558262798300,2.18979833984375,0.31918226951658724,-0.08741787895113229,-0.20553046363443134
1782661558272869400,2.199869384765625,-1.224911797067523,-0.38785029368177054,-0.73158584356606
1782661558282940400,2.2099404296875,-3.324709070611,-0.8636432208411395,-1.2449129670888184
1782661558293011500,2.220011474609375,-6.012326690864563,-1.9495400765806434,-1.6955986332595347
1782661558303082200,2.230082275390625,-8.375856149381399,-3.3355414302706716,-1.941879624955356
1782661558313153300,2.2401533203125,-9.32586671720743,-4.426408329507709,-1.5519200840346514
1782661558323224300,2.250224365234375,-9.249827433621883,-5.3521197378575796,-1.5024404522031545
1782661558333295400,2.26029541015625,-9.326901905474067,-5.081465060144662,-2.413405542320013
1782661558343366400,2.270366455078125,-10.221398675870894,-3.619708500507474,-3.6924165938436984
1782661558353437400,2.2804375,-12.508476178348063,-2.3567530962496996,-3.8338352353125806
1782661558363508200,2.29050830078125,-15.419245551383494,-1.2626608052253723,-3.8472932673007247
1782661558373579300,2.300579345703125,-18.709933109927178,0.3229913064107299,-4.29082029388845
1782661558383650300,2.310650390625,-20.852610324776172,1.846695203655958,-4.691081594723463
1782661558393721300,2.320721435546875,-18.759580061149595,2.4679598470672963,-4.260152476163208
1782661558403792400,2.33079248046875,-13.137987548840044,1.7041916895598173,-2.99318579043746
1782661558413863400,2.340863525390625,-7.420331786569952,0.3170347360938787,-2.063873727247119
1782661558423934200,2.350934326171875,-3.49776262127161,-0.917295754443109,-1.881914108814299
1782661558434005200,2.361005126953125,-1.1336638384342193,-1.7985031274169683,-1.7230077414497733
1782661558444075300,2.3710751953125,0.1978665048778057,-2.290876310238242,-1.3318367789126933
1782661558454146300,2.381146240234375,0.5760615198552608,-2.2787188394546507,-0.8734662573277949
1782661558464217300,2.39121728515625,0.485873299407959,-1.9181743397191167,-0.6627580987945199
1782661558474288000,2.4012880859375,0.4852881929963827,-1.540884456887841,-0.6779013073906303
1782661558484359200,2.411359130859375,0.8196826446920633,-1.206781973876059,-0.706488519449532
1782661558494430200,2.42143017578125,1.5192963099360466,-0.9803972305223345,-0.725884417054057
1782661558504501200,2.431501220703125,2.441701662477851,-0.9126420834183693,-0.6122285195186734
1782661558514572300,2.441572265625,3.429011156606674,-0.8114858942329883,-0.31027269461303947
1782661558524643300,2.451643310546875,4.267897098940611,-0.5467956778824329,0.13681173219531773
1782661558534714000,2.461714111328125,5.063974411639571,-0.23764438851475714,0.6156336517870425
1782661558544785200,2.47178515625,5.777631799805164,-0.0273208453848958,1.0750982522189616
1782661558554856200,2.481856201171875,6.395974126029015,0.07713584665060043,1.4874533109515904
1782661558564927200,2.49192724609375,6.782357123637199,0.1555605640679598,1.7736328900545835
1782661558574998300,2.501998291015625,6.945200245928764,0.25896175570115443,1.936495301568508
1782661558585069300,2.5120693359375,6.93752371995151,0.44218364915475245,2.024085614477098
1782661558595140000,2.52214013671875,6.574603430995345,0.6981067678123712,2.0965438247054813
1782661558605211100,2.532211181640625,6.175264505702256,1.0867436818271874,2.178826678855717
1782661558615282200,2.5422822265625,5.912604333874583,1.4843841326393186,2.271194289168715
1782661558625353200,2.552353271484375,5.860307160404324,1.8288244697920977,2.447915130165219
1782661558635424300,2.56242431640625,6.056469783973694,2.0501573365837333,2.569123635037243
1782661558645495300,2.572495361328125,6.2251061027139425,2.1626500355586407,2.64982915686816
1782661558655566300,2.58256640625,6.233543676191568,2.167268927530944,2.6018144830226895
1782661558665637400,2.592637451171875,6.348548357987403,2.1964479680031537,2.5675603312432767
1782661558675708400,2.60270849609375,6.660484894159436,2.2316928843855854,2.4845634836047887
1782661558685779500,2.612779541015625,6.9831684497952455,2.2524597780823705,2.379373654989153
1782661558695850500,2.6228505859375,7.079847785827517,2.300406939649582,2.229974974551797
1782661558705921500,2.632921630859375,7.150949028488993,2.4377470796331764,2.0981280251570045
1782661558715992300,2.642992431640625,7.48150843206644,2.546249832189083,1.9328397016704082
1782661558726063400,2.6530634765625,7.8203703845649954,2.554679806882143,1.6965654324650763
1782661558736134400,2.663134521484375,8.265135428515077,2.5330133339971304,1.5126462043970823
1782661558746205400,2.673205322265625,8.619137667000293,2.3988243515208363,1.4328373391449452
1782661558756276500,2.6832763671875,8.37822229399085,2.2636706156656143,1.427971778935194
1782661558766347500,2.693347412109375,7.756388618519901,2.1069757868707177,1.1003316238053142
1782661558776418300,2.703418212890625,4.876058807411789,1.820202918049693,0.723601859074831
1782661558786489300,2.7134892578125,2.1559867782771587,1.5497028463765978,0.3244420166756958
1782661558796560400,2.723560302734375,-0.5127893633842467,1.0318298961177468,-0.9030001025870442
1782661558806631400,2.73363134765625,-3.6643221337378025,-0.10271101741194724,-1.5288655177921056
1782661558816702500,2.743702392578125,-4.450491215884686,-1.7525532771468162,-1.6062372190251946
1782661558826773500,2.7537734375,-3.6709126180440186,-3.3678079153642058,-0.9298477775022387
1782661558836844300,2.76384423828125,-5.139027022275329,-4.800342764431238,0.10725699027851224
1782661558846915300,2.773915283203125,-8.83022430345714,-4.59149601585567,-1.1227215886592865
1782661558856986400,2.783986328125,-13.315364223396777,-1.723524458800256,-3.5868408346503973
1782661558867057400,2.794057373046875,-17.56567305867672,0.8564385501593351,-4.544360170671344
1782661558877128400,2.80412841796875,-20.98812120350599,2.403474807675183,-4.6231005299091334
1782661558887199500,2.814199462890625,-21.271972047400475,3.1412659356221555,-4.705737896585465
1782661558897270300,2.824270263671875,-17.506788323509692,2.7005910835951563,-4.588263609805703
1782661558907341300,2.83434130859375,-12.499834606730937,1.168347906063497,-3.94446886241734
1782661558917412400,2.844412353515625,-7.455275089657306,-0.8700131942644714,-3.4886905492827296
1782661558927483400,2.8544833984375,-2.9828929444819687,-3.2177129232257604,-3.3245009808182715
1782661558937554400,2.864554443359375,-0.00906651903092861,-5.132333662116527,-3.078328125672042
1782661558947625500,2.87462548828125,1.1247919651925564,-5.573969175869226,-2.6850463084608314
1782661558957696300,2.8846962890625,0.3358592635512352,-4.549089537280798,-2.309232781792432
1782661558967767300,2.894767333984375,-1.0691881513923407,-2.9665868295863267,-1.7225750491209326
1782661558977838300,2.90483837890625,-2.8477526526302097,-1.5157896169893443,-0.974960738556832
1782661558987909400,2.914909423828125,-4.6981917189896105,-0.5372228167645633,-0.5983332651570439
1782661558997980400,2.92498046875,-5.60432339760065,-0.2738099268734455,-0.5909124675065278
1782661559008051500,2.935051513671875,-5.157327233597636,-0.5956199145451188,-0.654559302508831
1782661559018122200,2.945122314453125,-3.8973505528897046,-1.333991034337133,-0.5207695484831929
1782661559028193300,2.955193359375,-1.6564917807519435,-1.9445155264168976,-0.18822393952459096
1782661559038264300,2.965264404296875,0.8394248715162277,-2.3500671887449918,0.3164978527382016
1782661559048335400,2.97533544921875,3.008620090934634,-2.586386904527247,1.007427568528056
1782661559058406400,2.985406494140625,4.655636771854758,-2.632158767881989,1.612469099152088
1782661559068477400,2.9954775390625,5.730698199194669,-2.51526812620908,2.159564929024875
1782661559078548500,3.005548583984375,6.592285218158364,-2.2295912359312173,2.655499311459064
1782661559088619300,3.015619384765625,7.023525594624877,-1.682941980782151,3.1271237207621336
1782661559098690300,3.025690185546875,7.066393260970711,-0.9406785297267138,3.4933921511024235
1782661559108761300,3.03576123046875,6.950974153155088,-0.2676918823845684,3.8684851084113117
1782661559118832400,3.045832275390625,7.0300827611833805,0.11496047732792794,4.07099096352756
1782661559128903400,3.0559033203125,7.10548666947484,0.20649397490434349,4.070336883533001
1782661559138974500,3.065974365234375,7.242913026437163,0.09167400202564895,3.8651270301550626
1782661559149045200,3.076045166015625,7.693897967815399,-0.2881557014815509,3.5027371948137875
1782661559159116300,3.0861162109375,8.235290325349569,-0.7270368019595742,3.1197815413057803
1782661559169187300,3.096187255859375,8.741614292111992,-0.9790450121957808,2.824953960844874
1782661559179258400,3.10625830078125,8.99951236410439,-1.1558060390722007,2.5365751181319354
1782661559189329400,3.116329345703125,8.772855233550072,-1.1162636446915566,2.3609989171259103
1782661559199400400,3.126400390625,8.40953571614325,-0.9222609025698154,2.271243389007449
1782661559209471200,3.13647119140625,8.15167972972691,-0.7456017286326736,2.209558209466934
1782661559219542300,3.146542236328125,7.547197586551309,-0.43122744391970336,2.177957202544808
1782661559229613300,3.15661328125,6.521071747294068,-0.06309862653501332,2.158093102906644
1782661559239684400,3.166684326171875,5.488667558419704,0.3420732426952571,2.2756876550652088
1782661559249756400,3.17675634765625,4.195832564204931,0.7914585668571293,2.3650598829545078
1782661559259826400,3.186826416015625,2.678212078526616,1.129209197112918,2.1175078484095633
1782661559269897200,3.196897216796875,1.540155558091402,1.3513866980351508,1.6103133824229239
1782661559279968300,3.20696826171875,0.8989847294658422,1.2813223972059786,1.087275158355385
1782661559290039300,3.217039306640625,-0.20506313838362691,0.7874744656570255,0.3832539058022201
1782661559300111400,3.227111328125,-2.1935615989118813,0.020363427462428807,-0.5690503259189427
1782661559310182400,3.237182373046875,-4.411274473261833,-0.8210830130092799,-1.2255096168302
1782661559320253400,3.24725341796875,-5.609785170137882,-1.650093896408379,-1.5367673769578336
1782661559330323200,3.2573232421875,-6.554643762028217,-2.0672448111154136,-1.7548451874762772
1782661559340394200,3.267394287109375,-8.254681839039922,-1.956353117596358,-1.9667261891812085
1782661559350466300,3.27746630859375,-10.337047500789165,-1.2218030173972247,-2.474703183847666
1782661559360537300,3.287537353515625,-12.393493708384037,-0.1659375811755657,-3.038752778869867
1782661559370608400,3.2976083984375,-13.337847273361682,0.40896965407803654,-3.234008224466443
1782661559380679400,3.307679443359375,-13.346153329414129,0.2892613246358931,-3.071697017094493
1782661559390750500,3.31775048828125,-13.42733523658514,0.14473302671387792,-2.93904386588335
1782661559400821200,3.3278212890625,-13.646166203558444,0.06606675562560559,-2.994215425746143
1782661559410892300,3.337892333984375,-13.115157292872667,0.05837035590410232,-3.155550481562316
1782661559420963300,3.34796337890625,-11.494372785317896,-0.11101239728927612,-2.9575369694292544
1782661559431034400,3.358034423828125,-9.381315048184991,-0.4659535240598023,-2.504921211978793
1782661559441106000,3.36810595703125,-7.382465289512276,-0.781962424237281,-2.2396178321659566
1782661559451177000,3.378177001953125,-5.553444858756661,-1.0188102555468679,-1.9775493426211177
1782661559461248000,3.388248046875,-3.98521939047873,-1.1752984558537602,-1.6677227843403815
1782661559471318800,3.39831884765625,-2.8734172552406787,-1.1710463513672351,-1.3969867119543253
1782661559481389800,3.408389892578125,-2.024404471167922,-1.049361607285589,-1.1037526842951775
1782661559491460900,3.4184609375,-1.215828911423683,-0.8385862287349999,-0.7455503637716173
1782661559501532000,3.428531982421875,-0.3040776393651962,-0.627399931295961,-0.33912557187080383
1782661559511603000,3.43860302734375,0.711111795336008,-0.4589132501594722,0.17565365015640855
1782661559521674000,3.448674072265625,1.6270774702191353,-0.2982871463302523,0.8276718898802995
1782661559531744800,3.458744873046875,2.427870121002197,-0.11526983553804457,1.5493869122952222
1782661559541815800,3.46881591796875,3.3034353964358565,0.01444784674309194,2.141623614142835
1782661559551886800,3.478886962890625,4.108465246397256,-0.006859218244999647,2.580388833156228
1782661559561958000,3.4889580078125,4.706053538405895,-0.11571867528408765,2.7596055826216936
1782661559572029000,3.49902880859375,5.179527959489822,-0.09737024090588092,2.925004526875913
1782661559582100000,3.509099853515625,5.340419363191724,-0.25617015222124756,2.9976982994258403
1782661559592170800,3.519170654296875,5.305628620317578,-0.5162953256785869,2.8688480476289984
1782661559602241800,3.52924169921875,5.769328081840277,-0.11345832913666963,3.038264410831034
1782661559612312800,3.539312744140625,6.012334874171018,0.19619849860034883,3.3055060652300714
1782661559622383900,3.5493837890625,6.215403623867035,0.40631205224134026,3.4149516515940426
1782661559632455000,3.559454833984375,6.6774827907115215,0.6398414066527038,3.540838961932063
1782661559642526000,3.56952587890625,7.121624734327197,0.7339422704990953,3.529846735535562
1782661559652596700,3.5795966796875,7.516592604929208,0.6542476792763918,3.332092751121521
1782661559662667800,3.589667724609375,7.717702037250995,0.500816090061143,3.119326491014659
1782661559672738800,3.59973876953125,7.602461793133616,0.3504438884165138,2.8876737441301343
1782661559682809900,3.609809814453125,7.529605815759301,0.27763533038049937,2.6518095170304177
1782661559692881000,3.619880859375,7.8237512591749425,0.23136063207015395,2.3430099637098607
1782661559702952000,3.629951904296875,8.221711297330259,0.15244666983112692,1.8552203092865645
1782661559713022700,3.640022705078125,8.273208844855427,0.051663259480893606,1.3651272002264856
1782661559723093800,3.65009375,8.134332873606681,0.12957666637524962,1.1342710105471312
1782661559733164800,3.660164794921875,8.315966036564111,0.5258183563053608,1.1812110408984124
1782661559743235800,3.67023583984375,8.658602831426263,0.9012881841026246,1.1856018232032657
1782661559753307000,3.680306884765625,8.265170499828457,1.3218465691655874,1.2663191816024482
1782661559763378000,3.6903779296875,6.822478121623396,1.6342505767188966,1.1112164443045853
1782661559773448700,3.70044873046875,4.830239890044927,1.9983749807678162,1.0761686579294503
1782661559783519700,3.710519775390625,2.8291268626153467,2.3313065203040835,1.0696313651151954
1782661559793590800,3.7205908203125,1.0952215873152018,2.5853619453936814,0.7923558079577981
1782661559803661800,3.730661865234375,-0.17780454457998274,2.5244468734428285,0.2060013690818101
1782661559813732900,3.74073291015625,-0.6240344003856182,1.5015101856157183,-0.2223877826720476
1782661559823804000,3.750803955078125,-1.124477492415905,-0.27719708509370683,-0.3260752439007163
1782661559833874700,3.760874755859375,-2.6119845793813465,-2.8882331315785645,-0.5147469271928071
1782661559843945700,3.77094580078125,-4.794047463679314,-6.248607974332571,-0.06922521965652703
1782661559854016800,3.781016845703125,-6.2639914214253425,-8.89145180235803,0.5044052736595273
1782661559864087800,3.791087890625,-9.549155248111486,-7.64355952719748,-0.7072442331876605
1782661559874158800,3.801158935546875,-15.378368766593931,-2.821136448383331,-2.7902251772910356
1782661559884230000,3.81122998046875,-20.230470944356917,0.9669659404106438,-2.340653463711589
1782661559894300700,3.82130078125,-23.27758355529308,2.8194442575126883,-1.411065360058844
1782661559904371700,3.831371826171875,-23.624132555162905,4.294972737392783,-1.7787468720674513
1782661559914442800,3.84144287109375,-19.73782186720371,4.172508094979823,-2.386908434408158
1782661559924513800,3.851513671875,-13.678374528723955,1.9968864957757293,-2.72788884036541
1782661559934584800,3.861584716796875,-8.607793850687147,-0.3764315124362707,-2.842656790795922
1782661559944656000,3.87165576171875,-4.737109186404943,-1.914968675545603,-3.1278005971103906
1782661559954726700,3.8817265625,-1.6748340776503086,-2.658251532776654,-3.103088180658221
1782661559964797700,3.891797607421875,0.453202032905817,-2.6781220621556043,-2.990361965188384
1782661559974868700,3.90186865234375,0.9094587772071361,-2.065235370989144,-3.0318586354419588
1782661559984939800,3.911939697265625,-0.3509159629076719,-0.7500394188191741,-2.726226167850196
1782661559995010800,3.9220107421875,-2.0353473054647444,0.5106161109983921,-2.0495915193945167
1782661560005081900,3.932081787109375,-2.9930577801436185,1.3547206647634504,-1.1988766075789927
1782661560015153000,3.94215283203125,-2.8420699308186768,1.6290531542062758,-0.26338497897088525
1782661560025223700,3.9522236328125,-1.8171224876910448,1.3827575494632125,0.3542772560343146
1782661560035294700,3.962294677734375,-0.4853121583938598,0.6308225261557847,0.4849819035261869
1782661560045365800,3.97236572265625,0.710643593302369,-0.2919113642206415,0.3620689328238368
1782661560055436800,3.982436767578125,2.2341917154639956,-1.0370176740191877,0.31582945195734496
1782661560065507800,3.9925078125,4.193360621133446,-1.5737059455156326,0.581098637239635
1782661560075579000,4.002578857421875,6.198116973501444,-1.7277052516162394,1.1483197019048035
1782661560085649700,4.012649658203125,7.97756293374896,-1.643507649885863,1.6475097251340747
1782661560095720700,4.022720703125,9.157619105523825,-1.307566991661489,2.056929607197642
1782661560105791700,4.032791748046875,9.72279916588068,-0.7767012888386845,2.4561726709008216
1782661560115862800,4.04286279296875,9.722856449025869,-0.36296975412108,2.722627558836341
1782661560125933800,4.052933837890625,9.242168443301319,-0.18346808676701037,2.922197945022583
1782661560136004900,4.0630048828125,8.60640561119914,-0.0015258578604087233,3.0774267929181454
1782661560146075600,4.07307568359375,7.895377987015247,0.1363375388123095,3.082383538542688
1782661560156146700,4.083146728515625,7.153723753899335,0.1380151897009462,2.8604321014612912
1782661560166217700,4.0932177734375,6.517558770737051,-0.11337094311416149,2.511332832586765
1782661560176288800,4.103288818359375,6.2350885675460095,-0.6166306269351393,2.0074827085919678
1782661560186359800,4.11335986328125,6.203482299926876,-1.2020418666768817,1.5055409024365245
1782661560196430800,4.123430908203125,6.341403162407874,-1.5864938231572507,1.2549844253785907
1782661560206501600,4.133501708984375,6.406229562583565,-1.8255790581300853,1.0985644680023192
1782661560216572700,4.14357275390625,6.149105397573113,-2.0137930607825516,0.9067464495085179
1782661560226643700,4.153643798828125,5.701214915078878,-1.9514242828920483,0.8871760721199214
1782661560236714800,4.16371484375,5.171815193155408,-1.6360867061048745,1.002900300361961
1782661560246785800,4.173785888671875,4.557226666507125,-1.2356025562994182,1.0054333259709178
1782661560256856800,4.18385693359375,3.934232130563259,-0.9765751149509102,0.8581832018695771
1782661560266927600,4.193927734375,3.2296050210714338,-0.710942283987999,0.7008518287368118
1782661560276998700,4.20399853515625,2.177821008944511,-0.39234628992676734,0.5589278680942952
1782661560287069700,4.214069580078125,0.9169248753041028,-0.2675326001696288,0.3654280339933932
1782661560297140700,4.224140625,-0.19464169761240482,0.038377369189262385,0.24373992891088125
1782661560307211800,4.234211669921875,-1.2950725440084934,0.7736910011067986,0.1900618955414742
1782661560317282800,4.24428271484375,-2.428102176192403,1.1204282170251012,-0.016405848943069578
1782661560327353600,4.254353515625,-3.659107029438019,0.5959587911106645,-0.10441745600365102
1782661560337424600,4.264424560546875,-4.706318911343812,-0.6742898388952017,0.11644399388395249
1782661560347495700,4.27449560546875,-5.076842661041021,-3.1732305151596663,0.679767174327746
1782661560357566700,4.284566650390625,-4.176373245975375,-6.527182339128852,1.136072726206854
1782661560367637800,4.2946376953125,-3.9142286224544045,-7.731779077920317,0.6786036104410886
1782661560377708800,4.304708740234375,-5.547085260596871,-5.632285755759478,-1.5048282241225241
1782661560387779800,4.31477978515625,-9.907198286420106,-2.980530891525745,-2.434143356052786
1782661560397850600,4.3248505859375,-15.595950025767086,-0.9401749641187489,-2.6334917700514198
1782661560407921700,4.334921630859375,-18.90571053357124,0.6036034606449305,-4.015004580150545
1782661560417992700,4.34499267578125,-19.25618635149598,0.9319253144286572,-6.13922522407174
1782661560428063700,4.355063720703125,-16.821933251458404,0.10009060578048229,-7.36837714292705
1782661560438134800,4.365134765625,-12.472514053606986,-1.2329326064378023,-6.740369747257232
1782661560448205000,4.375205078125,-9.206652308762074,-1.310457452405989,-5.012223766136169
1782661560458276000,4.385276123046875,-9.61075041128099,0.49948509718570855,-3.3991605004832146
1782661560468347000,4.395346923828125,-11.12886189534664,2.312935143441707,-1.5897884807884692
1782661560478418000,4.40541796875,-12.005351299887895,2.891775918751955,0.0892825037792325
1782661560488489000,4.415489013671875,-11.449352909374236,2.322121781720966,0.18409224654734133
1782661560498560000,4.42556005859375,-8.781564609706402,1.1156644366893917,-0.19788111792504787
1782661560508631000,4.435631103515625,-5.0433536484152075,-0.5676904357425868,-0.32578473652154205
1782661560518702000,4.4457021484375,-1.051268463820219,-2.2273642075315117,0.13970248520076273
1782661560528772900,4.45577294921875,2.4346698641449214,-3.2198218782037493,0.5240782346397638
1782661560538844000,4.465843994140625,5.089828399342299,-3.479734212628007,0.8671919993638992
1782661560548915000,4.4759150390625,7.00319007808268,-3.4559368651941416,1.2329974883675574
1782661560558986000,4.485986083984375,8.161438322675227,-3.313035583952069,1.6798106970191
1782661560569057000,4.49605712890625,8.795175201907753,-3.048262657754123,2.2044094484016297
1782661560579128000,4.506128173828125,8.935451103082299,-2.6752438763707875,2.709747618997097
1782661560589198800,4.51619873046875,8.659664323177934,-2.2006157552070915,3.136712802362442
1782661560599270000,4.526269775390625,8.043717367658019,-1.570277432371676,3.5316865181833506
1782661560609341000,4.5363408203125,7.365478498876095,-0.9737051855377853,3.7675147971868514
1782661560619412000,4.546411865234375,6.857232039618491,-0.3901330708567053,3.818353588542342
1782661560629483000,4.55648291015625,6.438064962783455,0.13413257611393928,3.7260540750294924
1782661560639554000,4.566553955078125,6.1692842622488735,0.5241248502604663,3.43660877212882
1782661560649624800,4.576624755859375,6.555096766492724,1.0686802018702029,3.3942096000775694
1782661560659695900,4.58669580078125,7.456619490003585,1.4392667876705527,3.6127804548099633
1782661560669767000,4.596766845703125,8.39079243722856,1.5874242358751594,3.761075119528174
1782661560679838000,4.606837890625,9.028745472851394,1.6999844471283256,3.763699330551922
1782661560689909000,4.616908935546875,9.223225842422247,1.7300407088264822,3.5832390107661483
1782661560699980000,4.62697998046875,8.796363534909487,1.7629308787763118,3.352876011431217
1782661560710050800,4.63705078125,7.938560126137733,1.8205822727560996,3.18643749499619
1782661560720121900,4.647121826171875,6.974129987815022,1.868272390822321,2.916983425244689
1782661560730193000,4.65719287109375,6.086367494109273,1.8792903361819684,2.405606705137342
1782661560740264000,4.667263916015625,5.634803876060247,1.712026182577759,1.7627020384564995
1782661560750335000,4.6773349609375,5.629318138125538,1.5459791496783495,1.2678941758342086
1782661560760406000,4.687406005859375,6.319671223071217,1.6461778920084238,1.2444324900954962
1782661560770477000,4.69747705078125,6.650725716689228,1.7448609690785406,1.244411301176995
1782661560780547800,4.7075478515625,5.632264712971448,1.9370562964521347,0.8914762535318732
1782661560790619000,4.717618896484375,3.142244133004546,2.3138427598059175,0.3125486767210066
1782661560800690000,4.72768994140625,-0.03372282138168812,2.4986332177504895,-0.11165259488895535
1782661560810761000,4.737760986328125,-2.6140999641001224,2.3560148451030254,-0.7557759897097944
1782661560820832000,4.74783203125,-4.367290370106697,1.9937731860607861,-1.8924461703531443
1782661560830903000,4.757903076171875,-5.986998772862553,1.2410723660126328,-3.1223885089337826
1782661560840973800,4.767973876953125,-6.6241849157661195,-0.5388815437570214,-3.8466929633200166
1782661560851044900,4.778044921875,-5.108762232393026,-2.5030682775884867,-4.323347183483839
1782661560861116000,4.788115966796875,-4.195854191514849,-3.430531498041749,-4.209863719905913
1782661560871187000,4.79818701171875,-6.262270004460215,-3.7328272224262355,-2.814488096410036
1782661560881258000,4.808258056640625,-7.786033230677247,-2.145860813321173,-3.2320395547419785
1782661560891329000,4.8183291015625,-9.463617483818531,0.3186781193867326,-4.099606524898111
1782661560901399800,4.82839990234375,-12.122189042329788,1.6547028515085578,-4.078610790881514
1782661560911470800,4.838470947265625,-15.084660545551776,2.1515821135774256,-3.83985084234029
1782661560921542000,4.8485419921875,-16.993702023005486,2.3305554096758363,-3.8966719229757785
1782661560931613000,4.858613037109375,-15.860201850700378,2.2434052417501804,-4.065426899659633
1782661560941684000,4.86868408203125,-12.1966150454998,1.5688938690587877,-3.5511043353587386
1782661560951755000,4.878755126953125,-7.420418295809626,0.5396589578703046,-2.2401459476932883
1782661560961825800,4.88882568359375,-2.987019669023156,-0.4648600297346711,-1.6379804108969866
1782661560971896800,4.898896728515625,0.11905366492569446,-1.350182436811924,-1.4274094688773153
1782661560981968000,4.9089677734375,1.5221820945054292,-2.1430485323794186,-1.1702945100866258
1782661560992039000,4.919038818359375,1.361777013015747,-2.4857103155523537,-0.9096180594220757
1782661561002110000,4.92910986328125,0.6001549276262521,-2.197131274092197,-0.7047218020379543
1782661561012181000,4.939180908203125,-0.6392787312686443,-1.494130596758425,-0.276559810103476
1782661561022251800,4.949251708984375,-1.997386115860939,-0.5909609828233718,0.47553076909184455
1782661561032322800,4.95932275390625,-2.80506268093884,-0.03727949094995856,1.0859614454083144
1782661561042393900,4.969393798828125,-2.7270962286829947,-0.02133665640875697,1.354254362425953
1782661561052464000,4.979464111328125,-1.6465929025501012,-0.5100349501095712,1.3970993785485624
1782661561062536000,4.989535888671875,0.034337738409638406,-1.199256254546344,1.4691731195040045
1782661561072607000,4.99960693359375,2.1977812624335287,-1.786942453482747,1.8466871664799749
1782661561082677800,5.009677734375,4.277138390016556,-2.0691540057376026,2.2476919791586694
1782661561092748800,5.019748779296875,5.80000028347969,-2.066037481152266,2.51479261765182
1782661561102819800,5.02981982421875,6.747170659443736,-1.8167136146292089,2.7795483004540205
1782661561112891000,5.039890869140625,7.12760614682436,-1.5201657862469553,2.9821009173214432
1782661561122962000,5.0499619140625,7.147693241563439,-1.1495360919572413,3.1772546561092136
1782661561133032000,5.060031982421875,7.036967844521999,-0.7095018759213387,3.283403246754408
1782661561143103000,5.07010302734375,6.831471575418115,-0.3231298380985856,3.2081431308478114
1782661561153174800,5.0801748046875,6.682299835604429,-0.10685096676088869,2.9670757821470497
1782661561163245000,5.0902451171875,6.732374656850099,-0.19677388733550905,2.74380566368252
1782661561173316000,5.100316162109375,6.951224913045763,-0.3843391437556594,2.557833302477002
1782661561183387100,5.11038720703125,7.182275894644856,-0.6121250591441989,2.3086590735577044
1782661561193458000,5.1204580078125,7.395338215088844,-0.7966453949104995,2.0708137556433677
1782661561203529000,5.130529052734375,7.4477534619808194,-0.9044937021456658,1.8050789986759423
1782661561213600000,5.14060009765625,7.425295546457171,-0.9122438778810202,1.4936292231075465
1782661561223671000,5.150671142578125,7.255434654358029,-0.8104001448228955,1.2606608635798096
1782661561233742000,5.1607421875,6.905605902165174,-0.6698221919618547,1.1514110920488834
1782661561243813000,5.170813232421875,6.817810714334249,-0.632779724638164,1.0706091241061686
1782661561253884000,5.1808837890625,6.855133606034517,-0.5003961841486394,0.9974364819981157
1782661561263955000,5.190954833984375,6.598575258213281,-0.30250454482957717,1.0007876921221612
1782661561274026000,5.20102587890625,5.9569788976520295,-0.05349763530120253,1.104500433922559
1782661561284097000,5.211096923828125,4.800366145306826,0.2574088271707296,1.2644089640669525
1782661561294168000,5.22116796875,3.3738942495405673,0.6867081525720655,1.6958277658402918
1782661561304239000,5.231239013671875,1.5492986494898795,1.1881035768911241,1.625796782758832
1782661561314310000,5.241309814453125,-0.9654325933635234,1.5914358096040784,0.5443189125053585
1782661561324381000,5.251380859375,-4.079797954839468,1.5713628895208238,-0.5945751547325402
1782661561334452000,5.261451904296875,-7.273390582287311,0.6060353639669716,-1.0206619478281587
1782661561344523000,5.27152294921875,-9.298279622101782,-0.7785095073044299,-0.6705083475951105
1782661561354594000,5.281593994140625,-9.207679313722252,-1.868238050161302,-1.0764634030923246
1782661561364665000,5.2916650390625,-8.077054989114403,-2.86131122238338,-1.7100807475984094
1782661561374736000,5.30173583984375,-8.761300404834747,-3.560471883162856,-1.8901883084237574
1782661561384806000,5.311805908203125,-10.638969423425197,-3.276219180469215,-2.409339900316298
1782661561394877000,5.321876953125,-12.25786592527628,-2.2964535258486864,-3.1875217831015585
1782661561404948000,5.331947998046875,-13.358805890238285,-1.3863245942950249,-3.333373438581824
1782661561415019000,5.34201904296875,-14.195551313412189,-0.857736773276329,-2.865552220954001
1782661561425089800,5.35208984375,-16.22967463003993,0.08543342713564633,-2.859881481841206
1782661561435160800,5.362160888671875,-17.152957349938152,1.1217919065937398,-3.429582234492898
1782661561445231900,5.37223193359375,-15.225709184664487,1.6621856084793805,-3.644120472708344
1782661561455303000,5.382302978515625,-11.579668557548523,1.197941957077384,-3.345520387971401
1782661561465374000,5.3923740234375,-7.665810521972179,0.01903641664236784,-3.0991169389396904
1782661561475445000,5.402445068359375,-4.176221270284056,-0.9649462711513042,-2.8480682944506404
1782661561485515800,5.412515869140625,-1.1555395701557398,-1.4975268150679766,-2.4128962776236236
1782661561495586800,5.4225869140625,0.7171756254196167,-1.3456404094681143,-1.676074579230696
1782661561505657900,5.432657958984375,0.6827987240433693,-0.4237650721497834,-0.733522802978009
1782661561515729000,5.44272900390625,-0.22608488362431525,0.5164401409767568,-0.028352234259247776
1782661561525800000,5.452800048828125,-1.0269418318152428,0.9555449672080576,0.4183057838305831
1782661561535871000,5.46287109375,-0.5922258881926536,0.901062704783678,0.6935065805405378
1782661561545941800,5.472941650390625,1.0032488215386868,0.5597339237801731,0.8240482925556599
1782661561556012000,5.483011962890625,2.8490029449522494,0.08648615105897188,1.0202002486005426
1782661561566083800,5.493083740234375,4.388118638601899,-0.23789105675220487,1.3284040279850362
1782661561576155000,5.50315478515625,5.159487041980028,-0.16118381077721713,1.9032044418632983
1782661561586226000,5.513225830078125,5.932302721557021,-0.21207886236459014,1.9855588999450207
1782661561596296000,5.5232958984375,6.884989230594039,-0.6570905745521187,1.7851403724968433
1782661561606367000,5.533366943359375,7.727948705977201,-1.1647378988727926,1.7846289158433675
1782661561616438000,5.54343798828125,8.055925107324123,-1.3547975293919443,2.1529010872215033
1782661561626509000,5.553509033203125,8.36587660715878,-1.0852733170136808,2.7711013746261597
1782661561636580000,5.563580078125,8.79497880255282,-0.7237840837739408,3.216667213565111
1782661561646651100,5.573651123046875,8.898048131883144,-0.46462833987064656,3.2794699989587066
1782661561656722000,5.583721923828125,8.591070679423213,-0.35299065028987825,3.234571119046211
1782661561666793000,5.59379296875,8.364930266219377,-0.42962548861578104,3.083950933989882
1782661561676864000,5.603864013671875,8.264692360922695,-0.5852563414409756,2.7865961731389164
1782661561686935000,5.61393505859375,8.059477246847749,-0.7893935240861027,2.367967294833809
1782661561697006000,5.624006103515625,7.336620068660378,-0.7698537610314786,2.2582271094374358
1782661561707077000,5.6340771484375,7.694155157446861,-0.7811371523942798,1.9686936898618936
1782661561717148000,5.64414794921875,7.670090391248464,-0.9204448661237955,1.5883990722566843
1782661561727219000,5.654218994140625,7.592392819061875,-0.9626008770689368,1.568769219765812
1782661561737290000,5.6642900390625,7.216299160277843,-1.0321740333802998,1.7640394245401023
1782661561747361000,5.674361083984375,6.464792226189375,-1.0779709581110626,1.699637971778214
1782661561757432000,5.68443212890625,5.755311246925592,-0.9709395202167331,1.594101521681994
1782661561767503000,5.694503173828125,5.226183912202716,-0.6953094652440398,2.123614494721591
1782661561777575000,5.704574951171875,4.887018008321523,-0.22669307865053415,2.422213994936645
1782661561787646000,5.71464599609375,4.097191572710871,0.4261143021570518,2.435157501531392
1782661561797716700,5.724716796875,1.7588380565047264,0.6394194549135863,2.323488247768581
1782661561807787800,5.734787841796875,-2.3315584492385386,0.001887494247034192,2.2706920387350022
1782661561817858800,5.74485888671875,-5.522406161892413,-0.1569453694898635,1.7905571368485689
1782661561827929900,5.754929931640625,-7.264875267398357,0.20483364047668873,0.3621136487483978
1782661561838001000,5.7650009765625,-8.370359890052676,0.32147425291128456,-0.9514939382515847
1782661561848072000,5.775072021484375,-7.434625100338459,0.8030373609699308,-1.2498331800952553
1782661561858143000,5.78514306640625,-4.804596914744377,1.2135847857587039,-0.8724491161745042
1782661561868214000,5.795214111328125,-4.083386334720254,1.231075872655213,0.05247589103803038
1782661561878285000,5.80528515625,-6.075874157145619,1.319330056300014,0.7604980497956275
1782661561888356000,5.815356201171875,-8.109040026918054,1.9228800331920384,1.4352552139416337
1782661561898427100,5.82542724609375,-10.210877281856536,2.3686940016731617,1.5451916525624692
1782661561908498200,5.835498291015625,-12.133934425181149,2.382818242485076,0.7590010892361402
1782661561918569000,5.84556884765625,-12.50093000075221,2.1059851683981714,-0.3000605126783252
1782661561928640000,5.855639892578125,-11.896273670053482,1.653324695023149,-1.211602818161249
1782661561938711000,5.8657109375,-10.885658703660964,1.3261093411765992,-1.5033992142327128
1782661561948782000,5.875781982421875,-9.11779329109192,1.0918589790143072,-1.428483673980087
1782661561958853000,5.88585302734375,-6.824144593530893,0.505348545859009,-1.2546401419855653
1782661561968924200,5.895924072265625,-4.745793428120017,-0.7453799756407737,-1.0764191255591808
1782661561978995000,5.905994873046875,-2.8742215573608876,-2.1933190223276613,-0.9091567255206405
1782661561989066000,5.91606591796875,-1.2247843712955713,-2.9090839041665193,-0.8315043807152658
1782661561999137000,5.926136962890625,-0.5030769476652145,-3.02047974781543,-0.9824462720066308
1782661562009208000,5.9362080078125,-0.3493821774691343,-2.407637626443058,-1.1201323028184473
1782661562019279000,5.946279052734375,-0.28445640857219695,-1.4490019997432828,-1.0506742242541163
1782661562029350100,5.95635009765625,-0.0663145929068327,-0.7930538732245564,-0.9664932083323597
1782661562039421000,5.9664208984375,0.36442601734399793,-0.4347821407265961,-0.9552587706778198
1782661562049492000,5.976491943359375,0.9412912547975778,-0.25290084822699427,-0.9106019558928906
1782661562059563000,5.98656298828125,1.7540858935415744,-0.2514760761208832,-0.8847726642400026
1782661562069634000,5.996634033203125,2.486012513369322,-0.3966084774158895,-0.8687947583854198
1782661562079705000,6.006705078125,2.6043454628050324,-0.7191289514444767,-0.8819876366313546
1782661562089776000,6.016776123046875,2.053722920110822,-1.1032010417617857,-1.0307574445806442
1782661562099847000,6.026846923828125,1.3424848680466412,-1.3518822264671324,-1.3971931943118572
1782661562109918000,6.03691796875,0.7645961327642202,-1.586781554057449,-1.992859286086261
1782661562119989000,6.046989013671875,0.8543862938046455,-1.5771196994818746,-2.2939251764148474
1782661562130060000,6.05706005859375,0.30554069765508174,-1.0611351933181286,-2.093170841141045
1782661562140131000,6.067131103515625,1.409371707883477,-0.21774141817092893,-1.129219645441696
1782661562150202000,6.0772021484375,1.9758856471925972,0.647300709682703,-0.5950380595365539
1782661562160273000,6.08727294921875,2.3677514601260423,1.2403458053037524,-0.3752235979512334
1782661562170344000,6.097343994140625,2.4180676889121533,1.3008517119318246,0.11517061294727027
1782661562180415000,6.1074150390625,2.6458348265349865,1.1697712168648837,0.5476616470620036
1782661562190486000,6.117486083984375,3.414709659531712,1.0846899641677736,0.8312882537465542
1782661562200557000,6.12755712890625,3.9443262390762563,0.8911674798436462,1.080122656252235
