time,seconds_elapsed,z,y,x
1782663520770452700,0.07745263671875,-0.1012578959941864,-0.19616364648267626,-0.2119597660295665
1782663520780522800,0.087522705078125,0.01916179658770561,-0.15251023658663035,-0.12585589228644967
1782663520790591700,0.097591796875,0.10421265414655208,-0.11928338202834128,-0.03971183266341686
1782663520800661800,0.107661865234375,0.13248130177557468,-0.08289075691550969,0.07975538149923085
1782663520810731800,0.117731689453125,0.13352350430488585,-0.04001140013188124,0.10051160767152904
1782663520820800800,0.12780078125,0.11246727227270603,-0.018367869731038808,0.13240472940802572
1782663520830870800,0.137870849609375,0.08194237014949321,0.0013376783445477485,0.13035773375034332
1782663520840940800,0.14794091796875,0.025931729114055634,0.012911796282231807,0.1055231522232294
1782663520851009800,0.158009765625,-0.13819792585670948,0.027244857539236545,0.04891498368605971
1782663520861079800,0.168079833984375,-0.28525720356106754,0.04899959322959185,0.012904489758610724
1782663520871149800,0.17814990234375,-0.3094944037169218,0.07825885933116078,0.01795446662455797
1782663520881218600,0.188218505859375,-0.2373410216540098,0.03411313587352633,0.05109539646506309
1782663520891288800,0.198288818359375,-0.17965864801406858,0.04539952291101217,0.02068520676270127
1782663520901358800,0.20835888671875,-0.09119242905378341,0.13587474360615015,0.01161065055578947
1782663520911427800,0.218427734375,0.013553309056162833,0.2017313636124134,0.07746683217063546
1782663520921497900,0.228497802734375,0.11706804406642914,0.2644685364238918,0.1491547886788845
1782663520931567600,0.238567626953125,0.21812895618379113,0.38980098935812707,0.2802380602248013
1782663520941636900,0.248636962890625,0.28645430439114566,0.3336801659464836,0.30926936278939243
1782663520951707000,0.258706787109375,0.1507318287372589,0.20375293256789445,0.30487448883131146
1782663520961776600,0.268776611328125,0.16833587448894977,0.31368659470975396,0.29973449559435245
1782663520971846000,0.278845947265625,0.29368425564467904,0.24751031429506837,0.32360476213395595
1782663520981915600,0.28891552734375,0.3421715154379606,0.07506006328985095,0.2436686172403395
1782663520991986000,0.29898583984375,0.38484219790697094,0.032920199761912225,0.2499050274118781
1782663521002054700,0.3090546875,0.2636491828650236,-0.04015351201631129,0.18214783448129893
1782663521012124700,0.319124755859375,0.09057985011339187,-0.1294922029621899,0.0022610767997801305
1782663521022195000,0.32919482421875,-0.03979775738120079,-0.18200674551017582,-0.062381637372076505
1782663521032263700,0.339263671875,-0.07255728668868541,-0.18787877934873104,-0.05606047152653336
1782663521042334000,0.349333984375,-0.08981821809113025,-0.18683526164516806,0.0020991642363369463
1782663521052403700,0.35940380859375,-0.1856716246932745,-0.17052622414007781,0.07986205674409866
1782663521062472700,0.36947265625,-0.285202258503437,-0.1709541672285646,0.0660210167877376
1782663521072542700,0.379542724609375,-0.355026320835948,-0.1375256526183337,0.03892945011407137
1782663521082612700,0.38961279296875,-0.42694004892408843,-0.0908622472513467,0.035183687714487315
1782663521092682000,0.399681884765625,-0.3968967928379774,-0.05412577713690698,0.08543810331076383
1782663521102751700,0.409751708984375,-0.26963001084029675,-0.10264357819892465,0.10890358844175935
1782663521112821800,0.41982177734375,-0.17258827123641968,-0.13660539596825838,0.13054010457992554
1782663521122890800,0.429890869140625,-0.09662731358408927,-0.19889212159849703,0.11659633490145206
1782663521132960800,0.439960693359375,-0.0724228466540575,-0.224129438707605,0.08176321419030427
1782663521143030800,0.45003076171875,-0.04346972389221191,-0.2586069509141147,0.05097893047854304
1782663521153100800,0.460100830078125,-0.00018470891714096068,-0.30153423849269745,-0.004912321960926056
1782663521163169800,0.470169677734375,0.00008534019589424133,-0.3638254941675812,-0.05882365262955427
1782663521173239800,0.48023974609375,0.005797288101911545,-0.38457967451326547,-0.13549831150919198
1782663521183309800,0.490309814453125,0.0311965177744627,-0.3741610102210194,-0.14230769926309586
1782663521193378600,0.500378662109375,0.0901250920832157,-0.3830070183690637,-0.1403279236227274
1782663521203448800,0.51044873046875,0.11253741489946842,-0.35101474710702896,-0.10731690377220511
1782663521213518800,0.520518798828125,0.1249251873075962,-0.34011955134421584,-0.10086451276242732
1782663521223587800,0.530587890625,0.10557692823708056,-0.3649664808962494,-0.1336629127755761
1782663521233657900,0.540657958984375,0.039108606073260305,-0.4046097053028643,-0.17682094037011264
1782663521243727600,0.5507275390625,-0.08302724277675151,-0.4064593517575413,-0.22754019699916242
1782663521253796900,0.560796875,-0.1775181288540363,-0.3842860253289342,-0.26733225529193877
1782663521263866600,0.57086669921875,-0.22340017458498476,-0.376039298248291,-0.2898471616998315
1782663521273936600,0.5809365234375,-0.18612346011400221,-0.34893063430935145,-0.28297216136381026
1782663521284006000,0.591005859375,-0.11305471677184105,-0.2748375163555145,-0.20962606238499282
1782663521294075600,0.60107568359375,-0.045291678622364995,-0.27461211010180414,-0.1561082610785961
1782663521304146000,0.61114599609375,0.020367665246129034,-0.27236418504454196,-0.14182239996418355
1782663521314214700,0.621214599609375,0.04163724776804447,-0.23121822792477906,-0.16518091758936643
1782663521324284700,0.63128466796875,0.11867138760983943,-0.20059468773268163,-0.17204466587901115
1782663521334355000,0.64135498046875,0.1468628783494234,-0.21710472770258782,-0.15027750909850002
1782663521344423700,0.651423583984375,0.15209318021833895,-0.2628069598872214,-0.14045344969853757
1782663521354494000,0.661493896484375,0.11791501628458499,-0.2678090790234506,-0.17990210138112306
1782663521364563700,0.671563720703125,0.17316870147287844,-0.2520085755623877,-0.20357421500012277
1782663521374633000,0.681633056640625,0.2189502094388008,-0.2928447360806167,-0.22297069712653755
1782663521384702700,0.69170263671875,0.1574415555089712,-0.3637291211210191,-0.2974788256220519
1782663521394772700,0.701772705078125,0.05348492195010185,-0.41649347371160983,-0.439137121065706
1782663521404841700,0.711841796875,-0.0002706336349248886,-0.4250872606642544,-0.5191106753602623
1782663521414911700,0.721911865234375,0.03204991973340511,-0.41997561673894523,-0.5677675926320255
1782663521424981800,0.731981689453125,0.12769114488959313,-0.40770255675166844,-0.5969482405394315
1782663521435051800,0.7420517578125,0.28380642023086544,-0.4003404304858297,-0.5863426753729581
1782663521445120800,0.752120849609375,0.41860067512392996,-0.3716344143528491,-0.5629505477391183
1782663521455190800,0.762190673828125,0.43982992563545703,-0.25255115800648925,-0.5391296732991934
1782663521465260800,0.7722607421875,0.4137883064061403,-0.16432503141239285,-0.5201902872905135
1782663521475329800,0.782329833984375,0.3122732207804918,-0.10503273835778236,-0.5263251367837191
1782663521485399800,0.79239990234375,0.18649696960151194,-0.08224785590209066,-0.5720259807288647
1782663521495469800,0.8024697265625,0.09335632908940315,-0.04824373336099088,-0.6144584705278276
1782663521505538800,0.812538818359375,0.05688917743563652,-0.046396936450526116,-0.6032207449376583
1782663521515608600,0.822608642578125,-0.025568156498670575,0.008593129365518688,-0.6288010302655398
1782663521525678300,0.83267822265625,-0.11896131046712398,0.0573278611138463,-0.659044631229341
1782663521535747600,0.84274755859375,-0.1814759265691042,0.0391524452149868,-0.6763527627743781
1782663521545817300,0.8528173828125,-0.18600421764850616,-0.0017613836493343114,-0.6818091284841299
1782663521555887400,0.862887451171875,-0.13794541240036487,-0.09259937324225902,-0.698519148005545
1782663521565956400,0.872956298828125,-0.054069443839788435,-0.172234197101742,-0.7015463868722319
1782663521576026400,0.8830263671875,0.02259527816772461,-0.268173820682615,-0.6358854355685413
1782663521586096600,0.8930966796875,0.019275778356194494,-0.31633827826231714,-0.5739785761013627
1782663521596165400,0.903165283203125,0.045810734060406685,-0.3571833527393639,-0.4843614335402846
1782663521606235400,0.9132353515625,0.1992559134095907,-0.42733094793781634,-0.44502924784421916
1782663521616305400,0.923305419921875,0.3479319786608219,-0.5015846632808446,-0.3852091315232217
1782663521626374400,0.93337451171875,0.45259062300920483,-0.5568135062888264,-0.3054258391037583
1782663521636444400,0.9434443359375,0.49770285341143605,-0.6579889116313308,-0.21448007828742263
1782663521646514400,0.953514404296875,0.5174766444176435,-0.7431244517989456,-0.12638371555283665
1782663521656583400,0.96358349609375,0.4698234973609447,-0.8642603298261761,-0.14902444029748438
1782663521666653400,0.9736533203125,0.4156143527895212,-0.9359407606150955,-0.1223565058633685
1782663521676723500,0.983723388671875,0.35715748764574523,-0.9741242877326906,-0.06861088715046644
1782663521686793200,0.993793212890625,0.24630057317912576,-0.9724735979162156,0.015122019677609204
1782663521696862500,1.003862548828125,0.12604279316067696,-0.9753655930306762,0.08072539557516574
1782663521706932500,1.013932373046875,0.021018238109350204,-0.9360225936796516,0.11897548512294888
1782663521717002500,1.02400244140625,-0.08180033133029938,-0.8722940717432648,0.16514789210259914
1782663521727071500,1.034071533203125,-0.2663286312073469,-0.7922455525163561,0.21636983755677938
1782663521737141200,1.044141357421875,-0.41278526684343814,-0.752715944552049,0.23967238721102474
1782663521747211500,1.05421142578125,-0.5525111329197884,-0.7552272697858512,0.24708748577311634
1782663521757280300,1.0642802734375,-0.5679571238547563,-0.7388795807708054,0.2483927231527865
1782663521767350500,1.0743505859375,-0.5252344189375638,-0.7713655538339167,0.3037270723618567
1782663521777420500,1.084420654296875,-0.3172200295329094,-0.7912514999777078,0.37105683366060255
1782663521787489500,1.094489501953125,-0.14443418989777565,-0.7784126958664507,0.4165365822009742
1782663521797559600,1.1045595703125,-0.07499883462190628,-0.8163844799295067,0.3754528766624629
1782663521807629300,1.11462939453125,-0.11565993083417415,-0.8542209471751004,0.3074813103288412
1782663521817698600,1.124698486328125,-0.20333996785283087,-0.8548395174648612,0.18385741487815976
1782663521827768300,1.134768310546875,-0.18913725497722625,-0.9444256073005497,0.1045415938399732
1782663521837838300,1.14483837890625,-0.22635025656223295,-1.0752903407249599,-0.049168373925238845
1782663521847907600,1.154907470703125,-0.18104630298018454,-1.0634710158545524,-0.11651420957595109
1782663521857977300,1.164977294921875,-0.08781856870651245,-1.0462229439336805,-0.09139028971344232
1782663521868047400,1.17504736328125,0.024216157367825508,-1.0412269622772932,-0.0449440342284739
1782663521878116400,1.185116455078125,0.1335825410157442,-1.0174454699996858,0.017336042465269565
1782663521888186400,1.195186279296875,0.2112386121481657,-1.0080095331344754,0.08114829716235399
1782663521898256600,1.205256591796875,0.3590595218747854,-0.9990672980703413,0.11351166675910353
1782663521908325400,1.215325439453125,0.6287701967358589,-1.0671760078523307,0.13429229672029613
1782663521918395400,1.2253955078125,0.8395107962340116,-1.0998550192695111,0.20467837684974075
1782663521928465400,1.23546533203125,0.9678379009395838,-1.099184791857749,0.32219957151114936
1782663521938534400,1.245534423828125,0.9669716394990682,-1.0611320515129714,0.40780601712614295
1782663521948604400,1.2556044921875,0.8837363069295883,-1.0827826692417264,0.4658808972150087
1782663521958674400,1.26567431640625,0.7191524784505366,-1.0648160007227212,0.5278086533397436
1782663521968744400,1.275744384765625,0.5434358460605144,-1.0477917276203632,0.5195505280822516
1782663521978813400,1.2858134765625,0.37985330357849595,-1.0033455599114298,0.5132461672410369
1782663521988883500,1.295883544921875,0.2621896317064762,-0.9639686582908034,0.5327341270431876
1782663521998953200,1.305953125,0.2027595376163721,-0.9649056468799709,0.5425792292311787
1782663522009022500,1.3160224609375,0.2102928557306528,-0.9913706060878932,0.5421601270362735
1782663522019092200,1.32609228515625,0.27673545893132684,-1.0221711833473295,0.5344843317113817
1782663522029162500,1.33616259765625,0.35914603111445903,-1.0831285600699483,0.5037339502692222
1782663522039231500,1.3462314453125,0.5329074377834797,-1.151294918323308,0.4604422132924199
1782663522049301500,1.356301513671875,0.7059533896595239,-1.1630946617104112,0.4695999177381396
1782663522059371500,1.36637158203125,0.8030605957150458,-1.1649878550458699,0.499256512594223
1782663522069440300,1.376440185546875,0.776230456456542,-1.175212823396921,0.4861696520060301
1782663522079510500,1.386510498046875,0.7407990775912999,-1.152285025339201,0.4623815107919276
1782663522089580500,1.39658056640625,0.6838035171717405,-1.129394344421476,0.4611671665661037
1782663522099649500,1.4066494140625,0.5997925240546464,-1.1256208902973681,0.4930032974183559
1782663522109719600,1.416719482421875,0.4967635267347097,-1.1148973247744143,0.5138869493626058
1782663522119789300,1.426789306640625,0.41825405364334584,-1.1009781780805439,0.5043550047770142
1782663522129858600,1.436858642578125,0.29340426965951916,-1.1324486174255608,0.46521015834659335
1782663522139928300,1.44692822265625,0.14423252984583376,-1.164084038073942,0.44466187583655115
1782663522149998300,1.456998291015625,-0.026067922714352605,-1.1907608134016394,0.39159401025474067
1782663522160067300,1.4670673828125,-0.19820903470516205,-1.1532323161266744,0.37722719285860656
1782663522170137300,1.477137451171875,-0.3427858479440212,-1.1255346733186393,0.35512232855632897
1782663522180207600,1.48720751953125,-0.47791737196743483,-1.072188940643519,0.3865269361235201
1782663522190276400,1.4972763671875,-0.6164549050420522,-1.0413047767538577,0.38656493004634973
1782663522200346400,1.507346435546875,-0.7146259409368038,-1.0184469021271914,0.38385771691426634
1782663522210416400,1.51741650390625,-0.7792553572356701,-1.0037206768341362,0.3899705007061362
1782663522220485400,1.5274853515625,-0.8099719825387001,-0.9691592126712203,0.4073682102307677
1782663522230555600,1.5375556640625,-0.8609335234910249,-0.9354938205651938,0.4250732321389019
1782663522240625400,1.54762548828125,-0.9721206928253173,-0.8788530649326741,0.4286752021536231
1782663522250694400,1.5576943359375,-1.0951099436342715,-0.8074393953211605,0.4123611962124705
1782663522260764400,1.567764404296875,-1.2307856575369833,-0.7338116298567503,0.3592944996744394
1782663522270834400,1.57783447265625,-1.2930828314960001,-0.7080027234047651,0.26830826071724295
1782663522280903400,1.5879033203125,-1.2914040846288204,-0.7141206948284059,0.1618416901640594
1782663522290973400,1.597973388671875,-1.2004694297283887,-0.7282987847194076,-0.013136252687871455
1782663522301043500,1.60804345703125,-1.1102671807557343,-0.7843481503300368,-0.20119915643185377
1782663522311112400,1.618112548828125,-1.0424228940635918,-0.8379473463095725,-0.343926688542217
1782663522321182500,1.628182373046875,-0.9570330138087272,-0.8884496722523123,-0.39936946656182404
1782663522331252200,1.638252197265625,-0.9602823709934949,-0.9111491414468735,-0.33561595631465313
1782663522341322500,1.648322509765625,-1.0265694913715124,-0.846756018121913,-0.24469971385374664
1782663522351391500,1.6583916015625,-0.9566139116138219,-0.6706241559945046,-0.15119257811680437
1782663522361461500,1.66846142578125,-0.8077519684016704,-0.49200234021488576,-0.0787133251003921
1782663522371531500,1.678531494140625,-0.6723135703861713,-0.34298736186549067,0.023436405166983604
1782663522381600300,1.688600341796875,-0.5119020591557025,-0.216368668513,0.10937675891146063
1782663522391670500,1.69867041015625,-0.2511392453819513,-0.18632161303460598,0.11940744679942726
1782663522401740500,1.708740478515625,0.008664367970824241,-0.2145068566964939,0.08756371716260909
1782663522411809500,1.7188095703125,0.10292904407680034,-0.3324401027575135,0.018281798882782457
1782663522421879600,1.728879638671875,0.1421966401040554,-0.4478865735040977,-0.04588263025283813
1782663522431949300,1.73894921875,0.07484335179924964,-0.5403554157018661,-0.08158420436158775
1782663522442018600,1.7490185546875,-0.11697042891085146,-0.5493122638132423,-0.15968977282717822
1782663522452088300,1.75908837890625,-0.3266507057011127,-0.45562907738965003,-0.21634046533182263
1782663522462158300,1.769158447265625,-0.432638552826643,-0.3654799468437209,-0.2909882945589721
1782663522472227300,1.779227294921875,-0.4869207626342773,-0.20849756981171666,-0.29609906170144673
1782663522482297300,1.78929736328125,-0.5024205295830965,-0.03284333513341844,-0.2944398963175714
1782663522492367600,1.79936767578125,-0.4627472753643989,0.0970940177803859,-0.3086009620085358
1782663522502436400,1.809436279296875,-0.44035073463916774,0.16336491767596453,-0.34895518422871824
1782663522512506400,1.81950634765625,-0.4290186087638139,0.18219667859170585,-0.341744668328017
1782663522522576400,1.829576416015625,-0.3529518526494503,0.1487180412294343,-0.3521877364091575
1782663522532645000,1.83964501953125,-0.17793138583004472,0.1711466210607439,-0.3708506435640156
1782663522542715400,1.84971533203125,0.027801030117273327,0.2027507697880268,-0.3302434694960713
1782663522552785200,1.85978515625,0.1844283466339111,0.19265841484069823,-0.29581293823644517
1782663522562854400,1.8698544921875,0.35668227134943004,0.15745529177337883,-0.19795272185653448
1782663522572924400,1.87992431640625,0.5985024842441081,0.10861322719305753,-0.1103898814767599
1782663522582994200,1.889994140625,0.7482149068057536,0.09307393195144832,0.011479863782972097
1782663522593063400,1.9000634765625,0.8121534182310104,0.1148502218864858,0.10356164289191365
1782663522603133200,1.91013330078125,0.9041057257413864,0.1353532039500773,0.1900827191337943
1782663522613203200,1.920203125,0.9635714756667614,0.12908566798791288,0.29116087464690205
1782663522623272200,1.930272216796875,0.9611936406195163,0.10997172912992537,0.3388613679766655
1782663522633342200,1.94034228515625,0.9431640629321336,0.06775237062498926,0.27423005198165773
1782663522643412200,1.950412109375,0.9112561820179224,-0.017864304123073816,0.16873539520055056
1782663522653481200,1.960481201171875,0.8992799130201339,-0.14141834920793772,0.11124372182711958
1782663522663551200,1.97055126953125,0.838103852045536,-0.31815621440447867,0.039920799238979815
1782663522673621200,1.980621337890625,0.8007371212035417,-0.49817770438157016,-0.07083411615788936
1782663522683690200,1.990690185546875,0.7750520603269339,-0.6116381524100899,-0.2035305219888687
1782663522693760300,2.00076025390625,0.9018149844557046,-0.731855454287678,-0.2887215186707675
1782663522703830300,2.010830322265625,1.0438502965182066,-0.8864889666385948,-0.34397432707622644
1782663522713899300,2.020899169921875,1.2103677234083414,-0.9694226128477602,-0.33457375378534193
1782663522723969300,2.03096923828125,1.4416782327264546,-1.0119328440580517,-0.2860296492382884
1782663522734039300,2.041039306640625,1.625604475057125,-1.0596667282007635,-0.2495068218745291
1782663522744108300,2.0511083984375,1.708777848306298,-1.1443382310532033,-0.2100140387892723
1782663522754178300,2.06117822265625,1.6750994505882262,-1.1738542483948171,-0.2162310136079788
1782663522764248300,2.071248291015625,1.6214999623477457,-1.1874506659403443,-0.200048963483423
1782663522774317300,2.0813173828125,1.5018430708318948,-1.247490562491864,-0.20975465720072387
1782663522784387300,2.09138720703125,1.2821212924987078,-1.2718591339424252,-0.20475874860957263
1782663522794457000,2.10145703125,0.9700351187229156,-1.265701195834577,-0.2338061255261302
1782663522804527400,2.11152734375,0.6263847629040479,-1.3016269340880215,-0.2683078223258257
1782663522814596000,2.12159619140625,0.3187567375808954,-1.3017226495474576,-0.318825565033406
1782663522824666400,2.131666259765625,0.0167658413618803,-1.242766164318472,-0.3880202434211969
1782663522834736400,2.141736328125,-0.18467969104647636,-1.2021138359345496,-0.4260723261788487
1782663522844805000,2.15180517578125,-0.3053659256100654,-1.2047756024897098,-0.4295474549435079
1782663522854875400,2.16187548828125,-0.3512526475161314,-1.2028557403430342,-0.41268019903376696
1782663522864945200,2.171945068359375,-0.3068482731223106,-1.2047056059934198,-0.400886739256978
1782663522875014400,2.182014404296875,-0.1365448979526758,-1.201749094275385,-0.37084918225929137
1782663522885084200,2.192084228515625,0.11917232286930084,-1.195045358853042,-0.31590368623733517
1782663522895154200,2.202154296875,0.4046861315399408,-1.2152085875682532,-0.2523680565245449
1782663522905223400,2.212223388671875,0.7581938645064831,-1.246361120070517,-0.17698153775930403
1782663522915293200,2.222293212890625,1.0475374605983494,-1.2905349005788564,-0.131898825712502
1782663522925363200,2.23236328125,1.2109458155572415,-1.3421113585591316,-0.12709317899644373
1782663522935432200,2.24243212890625,1.3374638250142334,-1.355931355727464,-0.10920213299691676
1782663522945502200,2.252502197265625,1.3789338995218277,-1.3324082951903342,-0.06939414648264645
1782663522955572500,2.262572509765625,1.2279665084630251,-1.3109122104361652,-0.028183891955018043
1782663522965641200,2.27264111328125,0.8961252483814954,-1.2134902393430471,0.014049129749089478
1782663522975711200,2.282711181640625,0.3763496793717146,-1.1585264770120383,-0.08592690974101423
1782663522985781200,2.29278125,-0.23782091412544248,-1.2001429742529988,-0.1657147322051227
1782663522995850200,2.302850341796875,-0.6742670425415038,-1.172851939484477,-0.22618819786831734
1782663523005920300,2.312920166015625,-1.0158511134803294,-1.1143545961998402,-0.22850246616005895
1782663523015990300,2.322990234375,-1.1428501844525336,-1.1006380594059824,-0.18284268487766384
1782663523026059300,2.333059326171875,-1.1282470740824937,-1.1410812750838697,-0.007172668108344078
1782663523036129300,2.34312939453125,-1.0991174257099627,-1.2402395684503018,0.2487951664738357
1782663523046199300,2.35319921875,-1.14707160153985,-1.3144763326585291,0.4987041394084692
1782663523056268300,2.363268310546875,-1.539084713989496,-1.2475401007220148,0.6991679673030972
1782663523066338300,2.37333837890625,-2.138382732525468,-0.926463980282843,0.8385955810852348
1782663523076408300,2.383408203125,-2.87037481880486,-0.5205740259110927,0.9045296502418816
1782663523086477300,2.393477294921875,-3.6085669287681577,-0.09254428205415606,0.9666511753730476
1782663523096547300,2.40354736328125,-4.23380602876842,0.3243735545493662,1.0195167963810265
1782663523106617000,2.4136171875,-4.698533664295077,0.687494334513694,1.021359063246846
1782663523116686300,2.423686279296875,-4.746436986720561,1.001031876141578,0.9830098972387611
1782663523126756000,2.433756103515625,-4.278337828934192,1.201454495242983,0.9330471580654383
1782663523136826400,2.443826416015625,-3.417532315737009,1.261724255027622,0.8251058387845754
1782663523146896400,2.453896484375,-2.2691630756020547,1.2854282250896096,0.6636635232016443
1782663523156965400,2.46396533203125,-0.9481231466442346,1.2126914901807904,0.5613083334900438
1782663523167035400,2.474035400390625,0.21265257059931753,1.088016770502925,0.5049639304555952
1782663523177105200,2.484105224609375,1.26926707162261,0.9270070011183619,0.4950279351137578
1782663523187174400,2.49417431640625,2.1527695697963236,0.7047757241822779,0.5202968164049089
1782663523197244200,2.504244140625,2.797710564610362,0.4818836452499032,0.6058981474533677
1782663523207314200,2.514314208984375,3.129491034415364,0.35493820416107774,0.6898181012861431
1782663523217383400,2.524383544921875,3.19266674477458,0.35163857809379695,0.6953278046183288
1782663523227453200,2.534453125,2.9799919623434543,0.3865685833081603,0.6599918489515781
1782663523237523200,2.544523193359375,2.590682263633609,0.45252135716527697,0.5875871224761009
1782663523247592200,2.55459228515625,2.025637227833271,0.48522141137048597,0.510001632361859
1782663523257662200,2.564662109375,1.3741034106254577,0.45812648369595405,0.4217784283772111
1782663523267732500,2.574732421875,0.6271148307442664,0.4664344394445419,0.38417160516902804
1782663523277801200,2.58480126953125,-0.26209143202900886,0.5499680243082344,0.32165128997862336
1782663523287871500,2.59487158203125,-1.1048363878786562,0.6238176888950169,0.27351956562474367
1782663523297941200,2.604941162109375,-1.692205483689904,0.6522814207047224,0.20401611354872584
1782663523308010200,2.61501025390625,-1.88887781034708,0.6950922422967851,0.171456490727514
1782663523318080300,2.625080322265625,-1.756102494060993,0.7222711949929594,0.202384859085083
1782663523328150300,2.635150390625,-1.3665227462381124,0.7053061777971684,0.2558865860395133
1782663523338219300,2.64521923828125,-0.7455331203758716,0.7222809857346117,0.34398820947110653
1782663523348289300,2.655289306640625,0.013110241463780403,0.7211807694077491,0.4706786528855562
1782663523358359300,2.665359375,0.7546183441072702,0.6347847808502615,0.5569496998891235
1782663523368428300,2.67542822265625,1.3462304843157529,0.5356478225328027,0.5480813337787985
1782663523378498300,2.685498291015625,1.8189502876400947,0.4586680432267487,0.4745530101008713
1782663523388568000,2.695568115234375,2.181450305357575,0.3647451662957668,0.3720952367976308
1782663523398637300,2.70563720703125,2.371498245438933,0.246150935575366,0.23380203387290238
1782663523408707300,2.715707275390625,2.3989690206885337,0.1465934137582779,0.09541676875054836
1782663523418777300,2.72577734375,2.2851439040660857,0.047804538226127624,-0.07701733483746648
1782663523428847400,2.735847412109375,2.07450208876729,-0.05055515210852027,-0.24338614703714845
1782663523438916000,2.745916015625,1.8603811991810797,-0.059653381451964374,-0.3503162434488535
1782663523448986400,2.755986328125,1.739877335447073,-0.035857933714240786,-0.41069954661056396
1782663523459056400,2.766056396484375,1.650644223767519,0.014157120168209076,-0.35576691007018085
1782663523469125400,2.77612548828125,1.4990332741081713,0.06381152404472232,-0.27336671315059063
1782663523479195400,2.7861953125,1.314150169444084,0.1295879184216261,-0.18273907837271688
1782663523489265200,2.79626513671875,1.0686164889842271,0.21280001624599099,-0.13426657775714992
1782663523499334400,2.80633447265625,0.764756876283884,0.2999558832600713,-0.05815539797917008
1782663523509404200,2.816404052734375,0.5412082331389189,0.3529977376177907,0.009326339010894299
1782663523519474700,2.826474609375,0.395584541195631,0.4171178892202675,0.11002981599271297
1782663523529544000,2.8365439453125,0.24047581254839895,0.45002442578300833,0.1533275443188846
1782663523539613700,2.84661376953125,0.10113339283168316,0.47166970974951977,0.11965996025577187
1782663523549683700,2.85668359375,-0.023478490743041036,0.4334878631323576,0.04612038453146815
1782663523559752700,2.866752685546875,0.061601592910289764,0.45250104502961036,0.08022884422987699
1782663523569822700,2.87682275390625,-0.02206102516055107,0.2510147422194481,0.0672422291457653
1782663523579893000,2.88689306640625,-0.09617138651013374,0.20512992000952363,-0.03803571614474058
1782663523589961700,2.896961669921875,-0.26297172199487684,0.22225231972411275,-0.04673822416886687
1782663523600031700,2.90703173828125,-0.45433600537180896,0.13255780107788742,-0.07660042459964751
1782663523610101800,2.917101806640625,-0.600201689377427,-0.014031374896690249,-0.12178148245438933
1782663523620171800,2.927171875,-0.7501198636442422,-0.19365107913985846,-0.18886267581954597
1782663523630240800,2.93724072265625,-1.0222165568590165,-0.35259573268815875,-0.2611640880510211
1782663523640310800,2.947310791015625,-1.343100954118371,-0.4204729718018323,-0.4248575435616076
1782663523650380800,2.957380859375,-1.6090443854004144,-0.44233694002032276,-0.6400668129064142
1782663523660449800,2.96744970703125,-1.8206202666789293,-0.48398507450856265,-0.8731482774198055
1782663523670519800,2.977519775390625,-1.9771224955111741,-0.6298204364411533,-1.0347561588279903
1782663523680589600,2.987589599609375,-2.056263836765289,-0.8948029868017882,-1.087439116745442
1782663523690658800,2.997658935546875,-2.186145185175538,-1.0292587304554879,-1.0724383853599428
1782663523700728600,3.007728515625,-2.3034622355669736,-0.9575797609712928,-1.020196595338732
1782663523710798800,3.017798828125,-2.3694185165554282,-0.8367024608150124,-0.9416051430523394
1782663523720867800,3.027867919921875,-2.4178017314523457,-0.6941947089351713,-0.8171218542933464
1782663523730937600,3.0379375,-2.4782599995464083,-0.5400218728985637,-0.6702553226821124
1782663523741008000,3.0480078125,-2.422200258672237,-0.35623394306004047,-0.562547373765707
1782663523751076600,3.05807666015625,-2.1131237881064413,-0.25530133349746464,-0.5126068464241922
1782663523761147000,3.06814697265625,-1.684316776266694,-0.26440928051732476,-0.47179918134808535
1782663523771217000,3.078216796875,-1.2760013483136892,-0.3877224295184016,-0.4533443639859557
1782663523781286700,3.08828662109375,-0.8990916969716548,-0.48262628031075,-0.501126251988858
1782663523791356000,3.09835595703125,-0.5948024606823921,-0.47767552603557706,-0.546775950268656
1782663523801425700,3.10842578125,-0.3039771016001701,-0.5285011656485498,-0.5483047672711312
1782663523811495700,3.11849560546875,0.014582652103900908,-0.5605422444883734,-0.48128670227006076
1782663523821564700,3.128564697265625,0.2661684722095728,-0.519675104309991,-0.4081403636470437
1782663523831634700,3.138634765625,0.4135772940039634,-0.4229787440776825,-0.36823549262955785
1782663523841705000,3.148705078125,0.5214104767352342,-0.3101440267320722,-0.4446143834330141
1782663523851773700,3.158773681640625,0.587685906675458,-0.22343035052753984,-0.5456394935846328
1782663523861843700,3.16884375,0.5678256064295768,-0.20356639701984822,-0.5875527818150817
1782663523871913700,3.178913818359375,0.543660302466154,-0.17791063530296086,-0.6133306355416774
1782663523881982700,3.188982666015625,0.466896796259284,-0.175832294658944,-0.5887181723326445
1782663523892052700,3.199052734375,0.364280471393466,-0.13805990562550724,-0.5881992630250752
1782663523902122800,3.209122802734375,0.18672785574793815,-0.05091134513504803,-0.5776980350159109
1782663523912192800,3.21919287109375,-0.06461071159839629,0.06061411624290049,-0.5561255240246653
1782663523922261800,3.22926171875,-0.20679040056765077,0.1719203088469803,-0.5512004887126386
1782663523932331800,3.239331787109375,-0.1155009408801794,0.23589915228262542,-0.47111514460667964
1782663523942401800,3.24940185546875,0.29494682292640206,0.3506524896658957,-0.34189635175839067
1782663523952470800,3.259470703125,0.7833680532515048,0.5928533724412322,-0.178049313121289
1782663523962540800,3.269540771484375,1.2388888844937085,0.8202395479224622,0.05716302594095468
1782663523972610800,3.27961083984375,1.6580542077630758,0.9604019057199359,0.2644524620719254
1782663523982679800,3.2896796875,1.9817507398337124,1.0092724657423793,0.4314002432033419
1782663523992749600,3.29974951171875,2.2052058594763277,0.9548941020838916,0.4700158050626516
1782663524002819800,3.30981982421875,2.384890810975432,0.8154634195618331,0.44667160822376606
1782663524012888600,3.319888671875,2.48799228900969,0.6830326789297163,0.3817107680134475
1782663524022958800,3.329958740234375,2.5130805530369282,0.524618625126779,0.3135619454167783
1782663524033028900,3.34002880859375,2.452410688018799,0.33294936745390297,0.23150135571509597
1782663524043098600,3.3500986328125,2.343762681773305,0.11823723397627472,0.09950023867189883
1782663524053167900,3.36016796875,2.147574923762679,-0.09635156538262962,-0.08229030680432915
1782663524063237600,3.370237548828125,1.8943372447967528,-0.19728695142418146,-0.21318302421420812
1782663524073307600,3.3803076171875,1.7758049733966588,-0.1980352855734527,-0.2440479719467461
1782663524083377000,3.390376953125,1.801097820085287,-0.11665858648270368,-0.13913257635831833
1782663524093446700,3.40044677734375,1.8247475757420062,-0.029993571725487708,-0.007113193006068468
1782663524103517000,3.410516845703125,1.702511773648858,-0.025809417908638714,0.026598522459715602
1782663524113585700,3.420585693359375,1.5326257471084594,-0.0785419140562415,-0.06806625887975096
1782663524123655700,3.43065576171875,1.3819558776915073,-0.12261544906049966,-0.17961641630753875
1782663524133726000,3.440725830078125,1.1452344492405653,-0.2612223941095173,-0.31104543255120515
1782663524143795700,3.450795654296875,0.8259598252654076,-0.49001960543245077,-0.48155397490411994
1782663524153865000,3.460864990234375,0.4624772262513637,-0.7114500873796641,-0.6848904356256127
1782663524163934700,3.470934814453125,0.1093313123345375,-0.8882501310922205,-0.8877072563871741
1782663524174004700,3.481004638671875,-0.10470891323089598,-1.0008196946956216,-1.0013295439139007
1782663524184073700,3.49107373046875,-0.15325871686637402,-1.0621487542748451,-1.0330281659916043
1782663524194143700,3.501143798828125,-0.1746165621936321,-1.1653966550424695,-0.9306935806766152
1782663524204213800,3.5112138671875,-0.20012626650333404,-1.2319359966158867,-0.7813894466549157
1782663524214282800,3.52128271484375,-0.2978817073345184,-1.2763318954423069,-0.6746686090797186
1782663524224352800,3.531352783203125,-0.5566361038953066,-1.2681389443755149,-0.5898682191506028
1782663524234422800,3.5414228515625,-0.9075415454089641,-1.1801131626591086,-0.5910612283274531
1782663524244492800,3.551492919921875,-1.271426880005002,-1.1166631654031574,-0.5773009985223412
1782663524254561500,3.5615615234375,-1.6025702209502457,-1.1112729967974126,-0.6166974816262721
1782663524264631800,3.5716318359375,-1.728610676023364,-1.1901083408422768,-0.6949187854260206
1782663524274701800,3.581701904296875,-1.556200099441409,-1.3244792557567358,-0.8051794875651598
1782663524284770800,3.591770751953125,-1.3353677295178175,-1.4656737330809235,-0.895567468368262
1782663524294840800,3.6018408203125,-1.299620124310255,-1.5503864447265863,-0.9070765582457184
1782663524304910600,3.61191064453125,-1.324644675451517,-1.621202002314478,-0.9115941818006336
1782663524314979800,3.621979736328125,-1.2347510540366171,-1.7013307471707462,-0.9212687497273087
1782663524325049900,3.6320498046875,-1.1677578312158583,-1.7138463837422429,-0.8978916735321283
1782663524335119600,3.64211962890625,-1.3267735041737556,-1.529398309494555,-0.8106076500937343
1782663524345190000,3.65218994140625,-1.8854145181506872,-1.1431034285612405,-0.6324784036040306
1782663524355258600,3.662258544921875,-2.5720307546555996,-0.6550299887605011,-0.4580032957077026
1782663524365329000,3.672328857421875,-3.1866227884352205,-0.19526523633822798,-0.3034484015509486
1782663524375399000,3.68239892578125,-3.4105075316667555,0.2961655510663986,-0.038813130258023736
1782663524385467600,3.692467529296875,-3.2169051139742133,0.7538223714239894,0.40159196491688487
1782663524395538000,3.702537841796875,-2.871839046138525,1.0505256826288998,0.8356246024504304
1782663524405607700,3.712607666015625,-2.5499586235791445,1.185644639431685,1.0156401010781526
1782663524415677000,3.722677001953125,-2.0793851846337317,1.2875079539731145,0.9925542629145085
1782663524425746700,3.73274658203125,-1.3709686197310684,1.308779728452116,0.9281921192497015
1782663524435816700,3.742816650390625,-0.47910570496916766,1.2112332541964947,0.8724344300620257
1782663524445887000,3.752886962890625,0.4347966076433658,1.0576612335972488,0.9131884652547537
1782663524455955700,3.762955810546875,1.1863801140993833,0.8977462737120687,0.9641748483873903
1782663524466025700,3.773025634765625,1.7705688263088464,0.7641875519633293,1.011325452749431
1782663524476095700,3.783095703125,2.1862825478196144,0.6376620898522436,1.0499128114275633
1782663524486164700,3.793164794921875,2.393777297264337,0.5415010786056518,1.0226328825749456
1782663524496234800,3.80323486328125,2.4245272403150797,0.5113574308849871,0.9431126250058413
1782663524506304800,3.8133046875,2.257942593407631,0.5116733649663627,0.8110416575968266
1782663524516373800,3.823373779296875,1.9842793815284967,0.49576340978145594,0.6650180065505206
1782663524526443800,3.83344384765625,1.6833663436740636,0.38196620407924053,0.44836803687810894
1782663524536513500,3.843513427734375,1.244757484266162,0.23554916980117557,0.25321196000277996
1782663524546583600,3.85358349609375,0.7029536233216523,0.1598530005648732,0.07173807926028966
1782663524556652500,3.863652587890625,0.2205354328036308,0.18182415548488495,-0.03935147491842508
1782663524566722600,3.87372265625,-0.2175041022837162,0.23584859113916753,-0.09989654451310634
1782663524576792800,3.883792724609375,-0.5941045415461063,0.348852162245661,-0.07458820799440145
1782663524586861600,3.893861572265625,-0.8256003443032502,0.4655290150374174,-0.03799012343734503
1782663524596931600,3.903931640625,-0.8677589855968951,0.5760396002843976,0.02606996854096651
1782663524607001600,3.914001708984375,-0.6587514935016632,0.6904062764376402,0.1497305427402258
1782663524617070600,3.924070556640625,-0.21700842772126197,0.7576211791850626,0.2829983187183738
1782663524627140900,3.934140869140625,0.3241980518519878,0.7150700314424931,0.38780864649713037
1782663524637210600,3.944210693359375,0.8320277470022439,0.6640601213037968,0.46182928373664617
1782663524647280600,3.95428076171875,1.2826947084724902,0.5668645063124597,0.47637072704732414
1782663524657349600,3.964349609375,1.628836881107092,0.46341231514438985,0.4913815414354205
1782663524667419600,3.974419677734375,1.887158731469512,0.3340352629944682,0.48031449623703953
1782663524677489700,3.98448974609375,2.127550957387686,0.16619652437269686,0.4701439614869654
1782663524687558700,3.99455859375,2.2825059567779302,0.0001258183367550373,0.46801264854669566
1782663524697628700,4.004628662109375,2.247826273062825,-0.15201763076409697,0.41516456319540734
1782663524707698700,4.01469873046875,2.0434598847717047,-0.2301581244125962,0.394355583922565
1782663524717767700,4.024767578125,1.8276093949139116,-0.21937734880968926,0.4236261020705104
1782663524727837400,4.03483740234375,1.73553726041615,-0.23840353631898759,0.4518924116119742
1782663524737907700,4.04490771484375,1.660714951404929,-0.3197498402714729,0.48531478874236345
1782663524747977700,4.054977783203125,1.5343009868443012,-0.34693799918740986,0.5655730051971972
1782663524758046700,4.065046630859375,1.3612515278369188,-0.28717633505538104,0.7097704637296497
1782663524768116700,4.07511669921875,1.1505372318238019,-0.16863821843639015,0.8823774396665394
1782663524778186500,4.0851865234375,0.8854407727599144,-0.10484291487410664,1.0632216442033648
1782663524788255700,4.095255859375,0.5935509993165731,-0.11485928197577595,1.173444936941564
1782663524798325500,4.105325439453125,0.285787949436903,-0.059351622026413677,1.2634864423945544
1782663524808395500,4.1153955078125,-0.04693301608860492,0.052978287602216005,1.292948975983262
1782663524818464800,4.12546484375,-0.3802724057734012,0.13804580403491853,1.262090311861038
1782663524828534500,4.135534423828125,-0.6596914047002792,0.17202932217940686,1.2481994414135813
1782663524838604800,4.145604736328125,-0.7988350869745016,0.18711217889040707,1.2011653030380607
1782663524848674600,4.155674560546875,-0.859527163824439,0.15667860831245778,1.0968991651386022
1782663524858743600,4.16574365234375,-0.8695873700678348,0.048938218431174754,0.9369763142079114
1782663524868813800,4.175813720703125,-0.9101660486936569,-0.05250672456771135,0.7860437022015452
1782663524878883600,4.185883544921875,-0.9621201078146695,-0.12734291597381234,0.6251438229322434
1782663524888952800,4.195952880859375,-1.0381728354036808,-0.2108538506142795,0.41713352518081664
1782663524899022600,4.206022705078125,-1.179302723059058,-0.3297641615465283,0.23115736458301542
1782663524909092600,4.216092529296875,-1.3783482085883616,-0.44935514821931716,-0.08607961608469486
1782663524919161600,4.22616162109375,-1.5684487556397915,-0.5800820075429975,-0.4455129397079348
1782663524929231600,4.236231689453125,-1.6751234159857034,-0.7009678563319146,-0.8715686070129275
1782663524939301600,4.246301513671875,-1.7987328445196151,-0.8638044027522206,-1.2573206132411956
1782663524949371600,4.25637158203125,-1.8996569785147903,-1.0009136565893888,-1.5066834966003895
1782663524959440600,4.266440673828125,-2.0216016887068746,-1.0377801828242839,-1.6040899778634308
1782663524969510700,4.2765107421875,-2.0472084236502646,-0.9310140448026358,-1.6399389976188539
1782663524979580700,4.28658056640625,-1.9690321280360221,-0.7487932181503624,-1.6089184209331868
1782663524989649400,4.2966494140625,-1.8421546376168727,-0.4728625727958977,-1.460663503703475
1782663524999719700,4.3067197265625,-1.6338228528261183,-0.16134133942648768,-1.2103376205310226
1782663525009789700,4.316789794921875,-1.4311977552443742,0.11595401840992271,-0.94162267870903
1782663525019859500,4.326859375,-1.313272217565775,0.3596143792785704,-0.7476435366585851
1782663525029928700,4.3369287109375,-1.207197861200571,0.5185075949005782,-0.6415110203653573
1782663525039998500,4.34699853515625,-1.1016297007918356,0.5481203506149351,-0.6237275263935327
1782663525050068700,4.35706884765625,-1.0600170029431581,0.5714618440400808,-0.6611433570742606
1782663525060137700,4.3671376953125,-1.0413543880492449,0.6223541922137141,-0.6996297395959497
1782663525070207500,4.37720751953125,-0.7880757925510407,0.5922865323387086,-0.7453720845952629
1782663525080277800,4.38727783203125,-0.42628421536386013,0.5066273336231708,-0.748393185982108
1782663525090346500,4.397346435546875,-0.1334171213209629,0.44960875765420494,-0.7018778107836842
1782663525100416800,4.407416748046875,0.16855448567569256,0.4439639567002654,-0.7011883672147989
1782663525110486800,4.41748681640625,0.46428047628104685,0.4229723143368959,-0.7322066058129072
1782663525120556500,4.427556640625,0.732132371532917,0.38360344989225265,-0.7710416556417942
1782663525130625800,4.437625732421875,0.9340127882272005,0.33255992974489923,-0.7569213603526354
1782663525140695600,4.447695556640625,0.9497446103662252,0.32380320731550455,-0.7450207869395613
1782663525150765600,4.457765625,0.8672253171116113,0.30406156501322984,-0.7829433980986475
1782663525160834600,4.46783447265625,0.7254150459766388,0.26020459536910057,-0.8352896714076399
1782663525170904600,4.477904541015625,0.5428127457261085,0.1863346186466515,-0.8834031294524669
1782663525180974800,4.487974853515625,0.36615386404991146,0.171008016307652,-0.8563482415273785
1782663525191043600,4.498043701171875,0.23198446305692194,0.1907861912280321,-0.8060428263962268
1782663525201113600,4.508113525390625,0.16351590698659418,0.2170551894724369,-0.6962474036812782
1782663525211183600,4.51818359375,0.174025610563159,0.2920765281870961,-0.583780423669517
1782663525221253600,4.528253662109375,0.3555477143615484,0.338169440189749,-0.5119669410854578
1782663525231322600,4.538322509765625,0.6698959878504276,0.42322818879410623,-0.4022850617475807
1782663525241392600,4.548392578125,1.053558620584011,0.44159547400325533,-0.2723005452238023
1782663525251462700,4.558462646484375,1.393545777720213,0.3829965700402856,-0.16009411584436892
1782663525261531600,4.56853173828125,1.6978671627134083,0.2504145843692124,-0.14930764115303755
1782663525271601700,4.5786015625,2.0366706630229947,0.162226597828418,-0.13487535730525851
1782663525281671700,4.588671630859375,2.3522476015239953,0.06618482904732227,-0.10244052990749478
1782663525291740700,4.59874072265625,2.56014917820394,-0.06091901747360825,-0.06321545784771442
1782663525301810700,4.608810791015625,2.608276372513175,-0.19994491858705876,-0.06278188873603939
1782663525311880700,4.618880615234375,2.5578303798675535,-0.3076360624991357,-0.04242679071053862
1782663525321950700,4.62895068359375,2.4797896933317185,-0.43050782440826296,-0.07515592487975954
1782663525332019500,4.63901953125,2.3519950880676506,-0.6194556942932308,-0.1430453658878803
1782663525342089700,4.64908984375,2.1904110259264704,-0.6861481806017458,-0.1979069830186665
1782663525352159700,4.65915966796875,2.022034234905243,-0.7219386020377278,-0.23222850094586608
1782663525362228700,4.669228759765625,1.7905588904142378,-0.766692812782526,-0.2503309977389872
1782663525372298800,4.679298828125,1.5115268449783323,-0.871054812271893,-0.3456488361597061
1782663525382368500,4.689368408203125,1.2272849559396504,-0.9633556409589946,-0.4759883036009967
1782663525392437800,4.699437744140625,0.9293816212952136,-1.0554971874311565,-0.6340140887387097
1782663525402507500,4.709507568359375,0.6592915917277336,-1.1556396695293485,-0.7467319747716188
1782663525412577500,4.71957763671875,0.433020830142498,-1.250291591387242,-0.8713624169163405
1782663525422647800,4.729647705078125,0.094565120357275,-1.2789359404608607,-0.9254752615064382
1782663525432716500,4.739716552734375,-0.07164017184376716,-1.334329910902679,-0.9848726223707198
1782663525442786800,4.749786865234375,-0.12887889336943625,-1.3554036785915493,-0.9709608552657067
1782663525452856600,4.759856689453125,-0.090495678961277,-1.3783204437986016,-0.8539755210466683
1782663525462925600,4.769925537109375,-0.05375906271636486,-1.392165721538663,-0.7005513844855129
1782663525472995800,4.779995849609375,-0.2336731467962265,-1.4150374785602091,-0.5092207111172378
1782663525483065600,4.790065673828125,-0.569942160192132,-1.3628322211571038,-0.3878444484628737
1782663525493134800,4.800134765625,-0.8312900803774594,-1.2365012587048112,-0.33174276814311743
1782663525503204600,4.81020458984375,-1.0464467427521944,-1.1211255516394971,-0.2841220620512962
1782663525513274600,4.820274658203125,-1.2157774734973907,-0.9754960144773125,-0.18144874630123375
1782663525523344600,4.8303447265625,-1.4067507117301226,-0.9265877527929842,-0.09290522432103752
1782663525533414000,4.840413818359375,-1.4847317770332098,-0.8619422621421515,-0.061369976111501454
1782663525543483600,4.850483642578125,-1.1665209828972816,-0.8222653546616434,-0.08832549531534313
1782663525553554000,4.860553955078125,-0.8094529271006584,-0.924060864663869,-0.1355045951195061
1782663525563622700,4.87062255859375,-0.8471177641063928,-0.992815398068726,-0.16473463512659073
1782663525573692700,4.880692626953125,-1.1263812802106141,-1.0085464895553886,-0.2585920456059277
1782663525583763000,4.890762939453125,-1.3592320047080515,-0.9749980018272996,-0.35138065780997274
1782663525593832700,4.900832763671875,-1.4142664941877126,-0.887324248418957,-0.4136937599904835
1782663525603902000,4.91090185546875,-1.5376257473528385,-0.7033883614771068,-0.36552374945282934
1782663525613971700,4.9209716796875,-1.951396518102288,-0.4619545175515115,-0.32338395899012684
1782663525624041700,4.931041748046875,-2.550520349115133,-0.1108367484614253,-0.3131238462604582
1782663525634110700,4.94111083984375,-3.018892478623986,0.31044395952671766,-0.3232407511271536
1782663525644180700,4.9511806640625,-3.1336101601719855,0.7113705924026668,-0.2823626511633396
1782663525654250800,4.961250732421875,-2.861474888512492,0.9639281801499425,-0.15259616130441425
1782663525664320800,4.97132080078125,-2.2896821320176124,1.0620816803880035,0.09015008039399981
1782663525674389800,4.9813896484375,-1.5305769978851078,1.0653102870456874,0.3451113682821393
1782663525684459800,4.991459716796875,-0.9392880982816219,1.0491849355444312,0.5172457582712173
1782663525694529800,5.00152978515625,-0.2431055765300989,1.090537082760781,0.6314337168566883
1782663525704598800,5.011598876953125,0.4056505926579237,1.133966620773077,0.7960472098216413
1782663525714668800,5.021668701171875,0.8662854059129953,1.1155405911140144,1.067028781401366
1782663525724738800,5.03173876953125,1.339512574237585,1.0410749865859745,1.231503596547991
1782663525734807800,5.041807861328125,1.742098518627882,0.9511248126782477,1.3050116080902516
1782663525744877800,5.0518779296875,1.9200427639394997,0.8453571841746568,1.2710462101243436
1782663525754947600,5.061947509765625,1.8648095370173454,0.7651862076118588,1.1726423883870243
1782663525765017900,5.072017822265625,1.6798060208439827,0.7132035069182515,0.9957758553095162
1782663525775086800,5.0820869140625,1.4229273550271988,0.6674487408287822,0.8080344386048615
1782663525785156600,5.092156494140625,1.045996076375246,0.6926207376167178,0.6709604022115468
1782663525795227000,5.102226806640625,0.5184931279838085,0.7690478514760732,0.5703894655682146
1782663525805295600,5.112295654296875,-0.08232464746534823,0.8231038513123988,0.4363742322236299
1782663525815366000,5.122365966796875,-0.6467290472745895,0.7838233958035707,0.20603768250420687
1782663525825436000,5.132435791015625,-1.0530150152266025,0.7024725618064404,-0.04572890099585056
1782663525835505000,5.1425048828125,-1.257789984318614,0.6192766844645142,-0.12606997342854737
1782663525845575000,5.152574951171875,-1.294739366531372,0.5387343903712928,-0.10592939493656157
1782663525855644700,5.162644775390625,-1.1147767671346664,0.4969133104689419,0.03752162914276123
1782663525865714700,5.172714599609375,-0.6179460203826427,0.3678125910423696,0.16790800446569917
1782663525875783700,5.18278369140625,0.14460603933334348,0.31051351763159035,0.38079409155994653
1782663525885853700,5.192853759765625,0.7483943550258875,0.306738529137522,0.6158883572004735
1782663525895924000,5.202924072265625,1.1159148312538862,0.30977921200767156,0.8092566738761962
1782663525905992700,5.21299267578125,1.4104922363460064,0.3479724568016827,0.9305757995158433
1782663525916062700,5.223062744140625,1.6571201417833565,0.33387758821472524,0.9837076702445745
1782663525926132700,5.2331328125,1.9152590367943048,0.3083580931633711,1.0548787632718681
1782663525936202800,5.24320263671875,2.0653642580658196,0.19187837037891148,1.0793924422815442
1782663525946271700,5.253271728515625,2.0832202327519656,0.013764759849756955,1.0202595775723458
1782663525956341800,5.263341796875,2.0015888282477854,-0.06754676505029202,0.9929613824106752
1782663525966411800,5.273411865234375,1.7899276067733763,-0.10866539577171205,0.9417296462148428
1782663525976480800,5.283480712890625,1.4099796106487512,-0.1362267719142139,0.8815227225333452
1782663525986550800,5.29355078125,1.1078986980587244,-0.07856003423482179,0.765403942015767
1782663525996620500,5.30362060546875,0.8629273276567458,-0.09375774949714541,0.6609156857982278
1782663526006689800,5.313689697265625,0.6354197177529335,-0.14935089577287436,0.5507713035151363
1782663526016759800,5.323759765625,0.6022516076445579,-0.17700038859024642,0.5114955241814255
1782663526026828800,5.333828857421875,0.661474780985713,-0.15582096856981514,0.5768658219754695
1782663526036898800,5.34389892578125,0.6684387747794389,-0.0711449356727302,0.7279135847941041
1782663526046968600,5.353968505859375,0.5086918649375438,0.02382876548543572,0.8553878720626235
1782663526057037800,5.364037841796875,0.27697511290609833,0.09626651744768024,0.8718655441328883
1782663526067107600,5.374107666015625,0.08026596136987209,0.08864873592033981,0.6819423994749784
1782663526077177900,5.384177734375,-0.1429413209915161,0.028084815494716166,0.41282676789760586
1782663526087246600,5.39424658203125,-0.40968087108731266,-0.1491844531647861,0.12934855670779943
1782663526097316900,5.40431689453125,-0.6305769538968801,-0.2680345583423972,-0.04878478143513203
1782663526107387000,5.414386962890625,-0.7256675594329833,-0.24335823611691593,-0.15098375767171382
1782663526117456600,5.42445654296875,-0.7168757656902074,-0.14488500240519642,-0.13789865064918994
1782663526127526000,5.43452587890625,-0.7074380752593279,-0.0887228240698576,-0.09034136518239974
1782663526137595600,5.444595703125,-0.7204758360087871,0.01058978307545185,-0.021985329575836658
1782663526147665700,5.454665771484375,-0.9404495432764292,0.08491612526327372,-0.01161591125279665
1782663526157735000,5.46473486328125,-1.211703355926275,0.04831555648818612,-0.14536357970237732
1782663526167804700,5.4748046875,-1.2296341494143008,-0.03359758756682277,-0.4485053995221853
1782663526177874700,5.484874755859375,-1.1315934619009493,-0.18562749329060316,-0.770928258395195
1782663526187944700,5.49494482421875,-1.0978519358187913,-0.3273739054091275,-1.0273676560118794
1782663526198013700,5.505013671875,-1.118354625621438,-0.3736886434689164,-1.1885133267357946
1782663526208084000,5.515083984375,-1.114794302791357,-0.2777148253574967,-1.246404082429409
1782663526218153700,5.52515380859375,-1.1368559124737978,-0.18814488293901085,-1.266717679400742
1782663526228222700,5.53522265625,-1.0753852524667977,-0.15154489868581295,-1.2847732683122157
1782663526238292700,5.545292724609375,-0.9910030879497528,-0.06967968542575836,-1.2276973361328243
1782663526248362800,5.55536279296875,-0.8982084843963384,0.11276070226132869,-1.0929913440451025
1782663526258432800,5.565432861328125,-0.7950824564427137,0.34051395748928187,-0.9527364856585859
1782663526268501800,5.575501708984375,-0.6847013427942991,0.7118520923092961,-0.7432616683125496
1782663526278571800,5.58557177734375,-0.6399795730143785,0.8733158890716731,-0.5796060605943203
1782663526288641800,5.595641845703125,-0.58434361051023,0.7861385408781468,-0.5926777236133813
1782663526298710800,5.605710693359375,-0.5460843147426844,0.6665012308456003,-0.7398717336133122
1782663526308780500,5.615780517578125,-0.5898521447986363,0.5499675859168172,-0.8837009433552623
1782663526318850800,5.625850830078125,-0.6928834802061319,0.41440015469416974,-0.9705755092099309
1782663526328920800,5.6359208984375,-0.8498083183646201,0.31553266096785665,-1.0970423730015755
1782663526338989800,5.64598974609375,-0.9699182143449783,0.42519525108337397,-1.1636094793647527
1782663526349059800,5.656059814453125,-1.1292173804193735,0.5953470889531075,-1.1264064146518706
1782663526359129600,5.666129638671875,-1.1958347556650637,0.7320445471189916,-1.0718754907801746
1782663526369198800,5.67619873046875,-1.1144991192370652,0.8242655885681509,-1.0260419603660702
1782663526379268900,5.686268798828125,-0.88681030754745,0.8602027249984443,-1.0269856709569691
1782663526389338600,5.696338623046875,-0.6507184091717004,0.8853954723134636,-0.9820663327783345
1782663526399409000,5.706408935546875,-0.46221360687911506,0.9145461634740233,-0.7985546625979244
1782663526409478700,5.716478759765625,-0.012765373548865318,0.9715767952069639,-0.563158053009957
1782663526419548700,5.726548583984375,0.4733937570631504,1.0440862972311675,-0.28903423788174987
1782663526429618000,5.736617919921875,1.3422493057250975,0.7212282618112862,-0.12329904741048812
1782663526439687700,5.746687744140625,2.364531329035759,0.15674173667654395,0.0541515691652894
1782663526449757700,5.7567578125,2.2005717699348923,0.08833367862179875,0.03432370988428592
1782663526459827700,5.76682763671875,1.2840578135192393,0.49619069528281684,-0.009582505729049444
1782663526469896700,5.776896728515625,0.5190887557893992,0.5551647161684929,-0.20940321341454982
1782663526479967000,5.786967041015625,0.39626258658766744,0.21850158888846635,-0.44805341797098514
1782663526490036700,5.79703662109375,0.7373328627854585,0.15156184982061385,-0.4086798773512244
1782663526500106000,5.80710595703125,1.0835878481447696,0.25019787287861106,-0.13948343562260268
1782663526510175700,5.81717578125,1.2812637988865374,0.2829907199338078,0.07380962483733892
1782663526520246300,5.827246337890625,1.5092548083931208,0.22328137051090596,0.1638420702010393
