time,seconds_elapsed,z,y,x
1782811655230623000,0.080623046875,-0.6485710144042969,-0.70497065782547,0.4230698049068451
1782811655240695000,0.090695068359375,-0.7318050861358643,-0.8285121321678162,0.4503452181816101
1782811655250767000,0.10076708984375,-0.7710853815078735,-0.7757319808006287,0.4571669101715088
1782811655260839000,0.1108388671875,-0.7821147441864014,-0.5815393328666687,0.47515663504600525
1782811655270910000,0.120909912109375,-0.757194995880127,-0.4023730456829071,0.49110764265060425
1782811655280982000,0.13098193359375,-0.6498561501502991,-0.3676183223724365,0.5055155158042908
1782811655291054000,0.14105419921875,-0.4717963933944702,-0.4135786294937134,0.5459675788879395
1782811655301126000,0.1511259765625,-0.2648560404777527,-0.40502047538757324,0.640869677066803
1782811655311197000,0.161197021484375,-0.07038643211126328,-0.33214518427848816,0.7872801423072815
1782811655321269000,0.17126904296875,0.06935977935791016,-0.19108691811561584,0.9179326295852661
1782811655331341000,0.181341064453125,0.12997598946094513,-0.0065479702316224575,0.9676477313041687
1782811655341413000,0.1914130859375,0.18104128539562225,0.1883380264043808,0.9328763484954834
1782811655351485000,0.20148486328125,0.32471296191215515,0.458365261554718,0.875667929649353
1782811655361556000,0.211555908203125,0.5371062755584717,0.7991415858268738,0.8478186130523682
1782811655371628000,0.2216279296875,0.7416682243347168,1.1251386404037476,0.7636515498161316
1782811655381700000,0.2317001953125,0.7656466960906982,1.4432263374328613,0.6092509627342224
1782811655391772000,0.24177197265625,0.6017581820487976,1.7113416194915771,0.4563594460487366
1782811655401843000,0.251843017578125,0.32842186093330383,1.8468027114868164,0.34484991431236267
1782811655411915300,0.261915283203125,0.03448157384991646,1.7771708965301514,0.2767643332481384
1782811655421987300,0.2719873046875,-0.18851156532764435,1.5724124908447266,0.27724894881248474
1782811655432059400,0.282059326171875,-0.3193766474723816,1.3923252820968628,0.3504810929298401
1782811655442130400,0.29213037109375,-0.39131492376327515,1.259879231452942,0.47300928831100464
1782811655452202200,0.3022021484375,-0.4406251907348633,1.1439549922943115,0.6096451878547668
1782811655462274300,0.3122744140625,-0.48255497217178345,0.997990071773529,0.7370884418487549
1782811655472346400,0.322346435546875,-0.5044341683387756,0.9018148183822632,0.8492714166641235
1782811655482418200,0.332418212890625,-0.46486902236938477,1.6218830347061157,0.7241496443748474
1782811655492489200,0.3424892578125,-0.291993647813797,1.632271409034729,0.6207923293113708
1782811655502561300,0.352561279296875,0.008022256195545197,1.498113751411438,0.5369330048561096
1782811655512633300,0.36263330078125,0.21168670058250427,1.4264247417449951,0.4324057996273041
1782811655522705400,0.372705322265625,0.3214735984802246,1.1654614210128784,0.3896130323410034
1782811655532776400,0.3827763671875,0.35909339785575867,0.7218097448348999,0.38472744822502136
1782811655542848300,0.39284814453125,0.2698890268802643,0.3183163106441498,0.3954109847545624
1782811655552920300,0.40292041015625,0.13586893677711487,0.18909786641597748,0.4539472758769989
1782811655562992400,0.412992431640625,0.02658054605126381,0.39468732476234436,0.4927443563938141
1782811655573063400,0.4230634765625,-0.06469877064228058,0.696835458278656,0.45821860432624817
1782811655583135500,0.433135498046875,-0.16473627090454102,0.9013354182243347,0.32036587595939636
1782811655593207300,0.443207275390625,-0.2147086262702942,0.9730002880096436,0.08887247741222382
1782811655603279400,0.453279296875,-0.16125130653381348,1.0750302076339722,-0.1443749964237213
1782811655613351400,0.463351318359375,-0.058587245643138885,1.2472981214523315,-0.2408408224582672
1782811655623422500,0.47342236328125,0.012290554121136665,1.2241475582122803,-0.2738465666770935
1782811655633494300,0.483494384765625,-0.008368117734789848,0.953650176525116,-0.34350234270095825
1782811655643566300,0.49356640625,-0.05909854173660278,0.6134952902793884,-0.4012235999107361
1782811655653638400,0.503638427734375,-0.0937260314822197,0.3084494173526764,-0.4539904296398163
1782811655663709400,0.51370947265625,-0.10729219019412994,0.09963486343622208,-0.5231472253799438
1782811655673781500,0.523781494140625,0.05737398937344551,0.033568497747182846,-0.8893347978591919
1782811655683853300,0.533853271484375,0.050006091594696045,-0.6543835997581482,-1.2176982164382935
1782811655693925400,0.54392529296875,-0.2606804072856903,-0.9093133211135864,-1.6569706201553345
1782811655703996400,0.553996337890625,-0.6387776732444763,-1.3956748247146606,-2.376002550125122
1782811655714068500,0.564068359375,-0.7794647812843323,-1.8893340826034546,-3.0231778621673584
1782811655724140300,0.574140380859375,-0.7591131329536438,-2.2915122509002686,-3.3566300868988037
1782811655734212400,0.58421240234375,-0.6508455276489258,-2.6749789714813232,-3.3729162216186523
1782811655744284400,0.594284423828125,-0.48543426394462585,-2.933074712753296,-3.2078471183776855
1782811655754355500,0.60435546875,-0.38935646414756775,-2.840902328491211,-2.8923492431640625
1782811655764427500,0.614427490234375,-0.4176689386367798,-2.507023334503174,-2.521587371826172
1782811655774499300,0.624499267578125,-0.5325596332550049,-2.0922093391418457,-2.194009304046631
1782811655784571400,0.6345712890625,-0.6428160667419434,-1.6853595972061157,-1.9189584255218506
1782811655794642400,0.644642333984375,-0.7408584356307983,-1.3533177375793457,-1.6460784673690796
1782811655804714500,0.654714599609375,-0.8398244976997375,-1.1148202419281006,-1.3210670948028564
1782811655814786600,0.66478662109375,-0.8775513768196106,-0.9686087369918823,-0.9968322515487671
1782811655824858400,0.6748583984375,-0.9152014255523682,-0.7991673946380615,-0.7416548728942871
1782811655834929400,0.684929443359375,-0.9813205003738403,-0.6005693674087524,-0.6096872687339783
1782811655845001500,0.69500146484375,-1.0560171604156494,-0.30952686071395874,-0.6072164177894592
1782811655855073500,0.705073486328125,-1.080352544784546,0.12240058928728104,-0.6488299369812012
1782811655865145300,0.715145263671875,-1.0195648670196533,0.5837455987930298,-0.64577716588974
1782811655875217400,0.725217529296875,-0.9067108631134033,0.9284148216247559,-0.5864813923835754
1782811655885288400,0.735288330078125,-0.7484245300292969,1.0741589069366455,-0.4565039873123169
1782811655895360500,0.745360595703125,-0.5693181753158569,1.0507638454437256,-0.2671854794025421
1782811655905432600,0.7554326171875,-0.35659071803092957,0.8887901902198792,-0.04106174036860466
1782811655915504400,0.76550439453125,-0.040940623730421066,0.44599682092666626,0.19745735824108124
1782811655925575200,0.7755751953125,0.19775302708148956,-0.021465299651026726,0.47576141357421875
1782811655935647500,0.7856474609375,0.32737016677856445,-0.2806345522403717,0.8092755079269409
1782811655945719600,0.795719482421875,0.4747536778450012,-0.4031140208244324,1.1126536130905151
1782811655955791400,0.805791259765625,0.6507734060287476,-0.4843984842300415,1.3168247938156128
1782811655965862400,0.8158623046875,0.8384842276573181,-0.5242024064064026,1.4040940999984741
1782811655975934200,0.825934326171875,1.020548939704895,-0.47802799940109253,1.3944257497787476
1782811655986006300,0.83600634765625,1.1706167459487915,-0.21613234281539917,1.3409641981124878
1782811655996078300,0.846078369140625,1.2619693279266357,0.285099059343338,1.2649248838424683
1782811656006149400,0.8561494140625,1.2779420614242554,0.4404929578304291,1.200913667678833
1782811656016221200,0.86622119140625,1.252063274383545,0.4541528522968292,1.1991088390350342
1782811656026293200,0.876293212890625,1.2607730627059937,0.4694204330444336,1.2959872484207153
1782811656036365300,0.886365234375,1.3696702718734741,0.4770173728466034,1.5058248043060303
1782811656046437400,0.896437255859375,1.567457914352417,0.5575700998306274,1.843351125717163
1782811656056508400,0.90650830078125,1.80730402469635,0.5891610383987427,2.245095729827881
1782811656066580200,0.916580322265625,2.0116217136383057,0.45084527134895325,2.616513252258301
1782811656076652300,0.92665234375,2.111752986907959,0.2815963327884674,2.9044156074523926
1782811656086724400,0.936724365234375,2.1302616596221924,0.28221821784973145,3.0798065662384033
1782811656096795400,0.94679541015625,2.123518943786621,0.4340258538722992,3.077597141265869
1782811656106867200,0.9568671875,2.07793927192688,0.5666742324829102,2.860761880874634
1782811656116939300,0.966939208984375,1.887726068496704,0.40277954936027527,2.4350597858428955
1782811656127011300,0.97701123046875,1.4377169609069824,-0.005949809215962887,1.8432319164276123
1782811656137082400,0.987082275390625,0.8077781796455383,-0.28967979550361633,1.1687685251235962
1782811656147154400,0.997154541015625,0.16434374451637268,-0.451410710811615,0.5058791041374207
1782811656157226200,1.007226318359375,-0.4084250032901764,-0.6542791724205017,-0.0945550724864006
1782811656167298300,1.01729833984375,-0.9108681082725525,-0.8304283022880554,-0.5801765322685242
1782811656177369300,1.027369384765625,-1.3351753950119019,-0.7576497197151184,-0.9641146063804626
1782811656187441400,1.03744140625,-1.6990506649017334,-0.594406247138977,-1.3350794315338135
1782811656197513200,1.04751318359375,-2.01875901222229,-0.4653771221637726,-1.733342170715332
1782811656207585300,1.057585205078125,-2.2736575603485107,-0.4472026526927948,-2.137500047683716
1782811656217657300,1.0676572265625,-2.458942174911499,-0.6658769845962524,-2.55534029006958
1782811656227728400,1.077728271484375,-2.55661678314209,-1.1109890937805176,-2.928173780441284
1782811656237800400,1.087800537109375,-2.4509520530700684,-1.6621168851852417,-3.192659854888916
1782811656247872300,1.097872314453125,-2.074150562286377,-2.3348793983459473,-3.344134569168091
1782811656257944300,1.1079443359375,-1.498773455619812,-2.952935218811035,-3.4200031757354736
1782811656268015400,1.118015380859375,-0.9303513765335083,-3.286325693130493,-3.432673215866089
1782811656278087400,1.12808740234375,-0.5686110258102417,-3.1107585430145264,-3.3369181156158447
1782811656288159500,1.138159423828125,-0.4982236921787262,-2.4221534729003906,-3.148998498916626
1782811656298231300,1.148231201171875,-0.6524137854576111,-1.5128053426742554,-2.939965009689331
1782811656308302300,1.15830224609375,-0.909966766834259,-0.8868348002433777,-2.740064859390259
1782811656318374400,1.16837451171875,-1.1508851051330566,-0.6660134792327881,-2.5164549350738525
1782811656328446500,1.178446533203125,-1.2737760543823242,-0.632959246635437,-2.201646327972412
1782811656338518300,1.188518310546875,-1.223947286605835,-0.6349185109138489,-1.800384521484375
1782811656348589300,1.19858935546875,-1.0475081205368042,-0.5703811645507812,-1.3115503787994385
1782811656358661400,1.208661376953125,-0.8443139791488647,-0.5227500200271606,-0.7598261833190918
1782811656368733400,1.2187333984375,-0.6389225125312805,-0.6045268177986145,-0.2559036910533905
1782811656378805500,1.228805419921875,-0.46285486221313477,-0.8625868558883667,0.15243293344974518
1782811656388876500,1.23887646484375,-0.3830019235610962,-1.28850519657135,0.4516162872314453
1782811656398948400,1.2489482421875,-0.4071996510028839,-1.765515923500061,0.6902222037315369
1782811656409020400,1.2590205078125,-0.4986722767353058,-2.1651415824890137,0.9119143486022949
1782811656419091700,1.269091796875,-0.6230062246322632,-2.2566092014312744,1.1488547325134277
1782811656429162800,1.279162841796875,-0.749658465385437,-1.9578232765197754,1.483312964439392
1782811656439234800,1.28923486328125,-0.8333062529563904,-1.407569169998169,2.005155086517334
1782811656449306600,1.299306640625,-0.8304880261421204,-0.671040415763855,2.572789192199707
1782811656459378700,1.309378662109375,-0.6941986083984375,0.2202783226966858,2.916984796524048
1782811656469450800,1.31945068359375,-0.4758474826812744,0.8596703410148621,3.023719072341919
1782811656479521800,1.329521728515625,-0.20749618113040924,1.004007339477539,2.9075093269348145
1782811656489593900,1.33959375,0.18172211945056915,1.084970235824585,2.588196277618408
1782811656499665700,1.349665771484375,0.6074590682983398,1.5914174318313599,2.3096506595611572
1782811656509737700,1.35973779296875,1.079757809638977,2.32961368560791,2.1189661026000977
1782811656519808800,1.369808837890625,1.6584198474884033,2.856414794921875,1.8202416896820068
1782811656529880800,1.379880859375,2.20025634765625,3.038872003555298,1.41241455078125
1782811656539952600,1.38995263671875,2.5281615257263184,3.073667287826538,0.9925392270088196
1782811656550024700,1.400024658203125,2.49847149848938,2.951437473297119,0.6669580340385437
1782811656560095700,1.410095703125,2.1685380935668945,2.570972204208374,0.5498002767562866
1782811656570167800,1.420167724609375,1.7003275156021118,2.035820484161377,0.6198090314865112
1782811656580240000,1.430239990234375,1.2441469430923462,1.5104308128356934,0.8251131772994995
1782811656590311700,1.440311767578125,0.8824233412742615,1.0910117626190186,1.1233389377593994
1782811656600382700,1.4503828125,0.6817885041236877,0.9530813694000244,1.4953937530517578
1782811656610454800,1.460454833984375,0.6903964877128601,1.0033093690872192,1.9545320272445679
1782811656620526800,1.47052685546875,0.8072844743728638,1.008322834968567,2.3722100257873535
1782811656630598700,1.4805986328125,0.8641192317008972,0.8076373338699341,2.569786787033081
1782811656640669700,1.490669677734375,0.6972010731697083,0.4152679443359375,2.4476161003112793
1782811656650741800,1.50074169921875,0.33879271149635315,0.029647231101989746,2.008913993835449
1782811656660813800,1.510813720703125,-0.007705838419497013,-0.16683121025562286,1.364627718925476
1782811656670886000,1.520885986328125,-0.20748892426490784,-0.33683982491493225,0.6223187446594238
1782811656680957000,1.53095703125,-0.34996190667152405,-0.5955076217651367,-0.14306893944740295
1782811656691028700,1.54102880859375,-0.5307874083518982,-0.8251305818557739,-0.8617175221443176
1782811656701100800,1.551100830078125,-0.7525989413261414,-0.8706442713737488,-1.4568613767623901
1782811656711172900,1.5611728515625,-0.9171270728111267,-0.803848922252655,-1.8985302448272705
1782811656721244000,1.571243896484375,-0.9904295206069946,-0.6730653047561646,-2.2743289470672607
1782811656731316000,1.58131591796875,-0.9574632048606873,-0.40870538353919983,-2.6554064750671387
1782811656741387800,1.5913876953125,-0.8387964963912964,-0.2985844910144806,-3.0737311840057373
1782811656751459800,1.6014599609375,-0.6810881495475769,-0.5910927057266235,-3.509669780731201
1782811656761530600,1.611530517578125,-0.4665750563144684,-1.057063102722168,-3.809751272201538
1782811656771602700,1.621602783203125,-0.2037343680858612,-1.2023295164108276,-3.8165857791900635
1782811656781674800,1.6316748046875,0.05419209972023964,-1.4155480861663818,-3.628889799118042
1782811656791746800,1.641746826171875,0.2519966661930084,-2.1373794078826904,-3.3757522106170654
1782811656801817600,1.651817626953125,0.3368462920188904,-2.9746570587158203,-3.097614288330078
1782811656811889700,1.6618896484375,0.293097585439682,-3.2959136962890625,-2.845258951187134
1782811656821961700,1.671961669921875,0.21438997983932495,-3.1789960861206055,-2.663231134414673
1782811656832033500,1.682033447265625,0.16550201177597046,-2.773214817047119,-2.5790822505950928
1782811656842104600,1.6921044921875,0.13715693354606628,-2.0423035621643066,-2.5193028450012207
1782811656852176600,1.7021767578125,0.1156470850110054,-1.2595161199569702,-2.316481351852417
1782811656862248700,1.712248779296875,0.12032786011695862,-0.506936252117157,-1.917704463005066
1782811656872320800,1.72232080078125,0.1348668783903122,0.12692737579345703,-1.3713407516479492
1782811656882392600,1.732392578125,0.1211734488606453,0.5985694527626038,-0.7829871773719788
1782811656892463600,1.742463623046875,0.06866312026977539,0.9216083884239197,-0.19834120571613312
1782811656902535700,1.75253564453125,-0.019762352108955383,1.0538274049758911,0.30489054322242737
1782811656912607700,1.762607666015625,-0.1314709633588791,1.0327106714248657,0.6973714828491211
1782811656922679600,1.772679443359375,-0.2570403218269348,0.9226294755935669,0.9437823295593262
1782811656932750600,1.78275048828125,-0.3638438582420349,0.8255351781845093,1.059458613395691
1782811656942822700,1.79282275390625,-0.44402340054512024,0.7750123143196106,1.0929316282272339
1782811656952894700,1.802894775390625,-0.4954354763031006,0.8046899437904358,1.0826348066329956
1782811656962966800,1.812966796875,-0.513712465763092,0.8899891376495361,1.0391038656234741
1782811656973037800,1.823037841796875,-0.5200762152671814,1.0553754568099976,0.9810061454772949
1782811656983109600,1.833109619140625,-0.5148990154266357,1.2763177156448364,0.9472343325614929
1782811656993181700,1.843181640625,-0.48636168241500854,1.5179665088653564,0.9331715106964111
1782811657003253800,1.853253662109375,-0.44612184166908264,1.778767704963684,0.8954891562461853
1782811657013324800,1.86332470703125,-0.40591293573379517,2.045339584350586,0.8762949705123901
1782811657023396600,1.873396728515625,-0.3506302535533905,2.2300057411193848,0.8902579545974731
1782811657033468700,1.88346875,-0.27257660031318665,2.3265275955200195,0.9587606191635132
1782811657043540700,1.893540771484375,-0.17729853093624115,2.284013271331787,1.113495111465454
1782811657053611800,1.90361181640625,-0.08579562604427338,2.084970474243164,1.3536219596862793
1782811657063683800,1.913683837890625,-0.00726939644664526,1.8211561441421509,1.6498291492462158
1782811657073755600,1.923755615234375,0.07548074424266815,1.62881338596344,1.993714451789856
1782811657083827700,1.93382763671875,0.18113473057746887,1.541823148727417,2.3229427337646484
1782811657093898800,1.943898681640625,0.3364071249961853,1.506851315498352,2.5987086296081543
1782811657103970800,1.953970703125,0.5120140910148621,1.3661797046661377,2.713064432144165
1782811657114043000,1.96404296875,0.6439727544784546,1.1600654125213623,2.6991171836853027
1782811657124114700,1.97411474609375,0.7560561299324036,1.1184183359146118,2.6585652828216553
1782811657134185700,1.984185791015625,0.9025288224220276,1.1841742992401123,2.614737033843994
1782811657144257800,1.9942578125,1.061105728149414,1.0863382816314697,2.5354793071746826
1782811657154329900,2.004329833984375,1.1233710050582886,0.682441771030426,2.3012382984161377
1782811657164401700,2.014401611328125,0.9505201578140259,0.030800357460975647,1.8330812454223633
1782811657174473700,2.0244736328125,0.6046870350837708,-0.6751359105110168,1.2162729501724243
1782811657184544800,2.034544677734375,0.32453930377960205,-1.3235485553741455,0.6400953531265259
1782811657194616800,2.044616943359375,0.260087788105011,-1.849075436592102,0.24834001064300537
1782811657204689000,2.05468896484375,0.3706313669681549,-2.056840658187866,0.06473555415868759
1782811657214760700,2.0647607421875,0.5347208976745605,-1.8823541402816772,0.025766396895051003
1782811657224831700,2.074831787109375,0.6445972919464111,-1.3723089694976807,0.027957113459706306
1782811657234903800,2.08490380859375,0.6381832361221313,-0.6585584878921509,-0.03960876539349556
1782811657244975900,2.094975830078125,0.5358986854553223,0.0557205006480217,-0.26253026723861694
1782811657255047700,2.105047607421875,0.38545581698417664,0.44009989500045776,-0.6541029810905457
1782811657265118700,2.11511865234375,0.21448619663715363,0.36333906650543213,-1.144385576248169
1782811657275190800,2.125190673828125,0.05968322232365608,-0.008966558612883091,-1.6128056049346924
1782811657285262800,2.135262939453125,-0.02945597469806671,-0.4512619376182556,-1.9480613470077515
1782811657295335000,2.1453349609375,-0.04849493131041527,-0.8505045175552368,-2.103466272354126
1782811657305406000,2.155406005859375,-0.036552783101797104,-1.1711571216583252,-2.0748813152313232
1782811657315477800,2.165477783203125,-0.03919317573308945,-1.4032158851623535,-1.9011958837509155
1782811657325549800,2.1755498046875,-0.022704213857650757,-1.4726730585098267,-1.6152334213256836
1782811657335622000,2.185621826171875,0.0233785267919302,-1.3563965559005737,-1.2673312425613403
1782811657345692700,2.195692626953125,0.11869999021291733,-1.1730198860168457,-0.9174951910972595
1782811657355764700,2.2057646484375,0.2574220299720764,-1.0318433046340942,-0.5968402624130249
1782811657365836800,2.2158369140625,0.4337451457977295,-0.9372954964637756,-0.32423487305641174
1782811657375908900,2.225908935546875,0.6103501319885254,-0.809668779373169,-0.07879410684108734
1782811657385979600,2.235979736328125,0.7156419157981873,-0.6229021549224854,0.1637120097875595
1782811657396051700,2.2460517578125,0.7134043574333191,-0.35985898971557617,0.3975670337677002
1782811657406123500,2.25612353515625,0.6138393878936768,-0.0480014942586422,0.6032922267913818
1782811657416196000,2.266196044921875,0.4426274597644806,0.2557532787322998,0.7931775450706482
1782811657426267100,2.27626708984375,0.2531736493110657,0.5126422643661499,0.965644121170044
1782811657436339200,2.286339111328125,0.08390339463949203,0.7468657493591309,1.1145564317703247
1782811657446411000,2.296410888671875,-0.043976280838251114,0.9535800218582153,1.2389148473739624
1782811657456483000,2.306483154296875,-0.11920031160116196,1.116711974143982,1.3482218980789185
1782811657466554000,2.31655419921875,-0.14752276241779327,1.2243503332138062,1.4316842555999756
1782811657476626200,2.326626220703125,-0.15121106803417206,1.2541964054107666,1.4766180515289307
1782811657486698200,2.3366982421875,-0.13299505412578583,1.2572110891342163,1.4840104579925537
1782811657496770000,2.34677001953125,-0.0865178108215332,1.249747633934021,1.4666160345077515
1782811657506841000,2.356841064453125,-0.023226192221045494,1.2334920167922974,1.430422306060791
1782811657516913200,2.3669130859375,0.042976029217243195,1.194106936454773,1.3761075735092163
1782811657526985200,2.376985107421875,0.0886087641119957,1.1459271907806396,1.309566855430603
1782811657537057300,2.387057373046875,0.09717869758605957,1.075117826461792,1.2103208303451538
1782811657547128300,2.39712841796875,0.06758777797222137,0.9599840044975281,1.0556989908218384
1782811657557200100,2.4072001953125,0.015238425694406033,0.8505656719207764,0.9498355984687805
1782811657567272200,2.417272216796875,0.024064408615231514,0.893341600894928,1.0380916595458984
1782811657577344300,2.42734423828125,0.02017076499760151,1.0074374675750732,1.1624971628189087
1782811657587415300,2.437415283203125,0.00456117931753397,0.9527420401573181,1.271139144897461
1782811657597487000,2.447487060546875,-0.058556072413921356,0.7722210884094238,1.324265956878662
1782811657607559200,2.45755908203125,-0.11989054083824158,0.6543331146240234,1.2700152397155762
1782811657617631200,2.46763134765625,-0.14625953137874603,0.632057249546051,1.086592197418213
1782811657627702300,2.477702392578125,-0.14010974764823914,0.7735496759414673,0.847009539604187
1782811657637774300,2.4877744140625,-0.1677299290895462,0.9313350319862366,0.5597769618034363
1782811657647846100,2.49784619140625,-0.2697066366672516,1.0745688676834106,0.2620086669921875
1782811657657918200,2.507918212890625,-0.3874039649963379,1.3110508918762207,0.013239990919828415
1782811657667989000,2.517989013671875,-0.4367920160293579,1.399704098701477,-0.17679652571678162
1782811657678061000,2.52806103515625,-0.48157286643981934,1.1318446397781372,-0.3849031925201416
1782811657688133000,2.538133056640625,-0.6356899738311768,0.6933689713478088,-0.7417020797729492
1782811657698205200,2.548205078125,-0.9086916446685791,0.32313257455825806,-1.1476261615753174
1782811657708276000,2.55827587890625,-1.1724157333374023,0.05756588280200958,-1.4120351076126099
1782811657718348000,2.56834814453125,-1.3220429420471191,-0.1668260246515274,-1.496744155883789
1782811657728420000,2.578420166015625,-1.357032060623169,-0.35293200612068176,-1.4202208518981934
1782811657738492000,2.588491943359375,-1.3844918012619019,-0.4473411440849304,-1.2558811902999878
1782811657748563000,2.59856298828125,-1.4354133605957031,-0.44209179282188416,-1.0604150295257568
1782811657758635000,2.608635009765625,-1.4363325834274292,-0.4508495032787323,-0.9207067489624023
1782811657768707000,2.61870703125,-1.3455086946487427,-0.6465386152267456,-0.8799769282341003
1782811657778779100,2.628779052734375,-1.1926617622375488,-1.175310492515564,-0.9136353731155396
1782811657788850200,2.63885009765625,-1.0591505765914917,-1.9298758506774902,-0.9547082781791687
1782811657798922000,2.648921875,-0.9241802096366882,-2.6578943729400635,-0.9342579245567322
1782811657808994000,2.658994140625,-0.7271957993507385,-3.1067099571228027,-0.8599610328674316
1782811657819066000,2.669066162109375,-0.4713239073753357,-3.2094480991363525,-0.794339656829834
1782811657829137200,2.67913720703125,-0.21096660196781158,-3.1711981296539307,-0.8017589449882507
1782811657839209000,2.689208984375,-0.00662572868168354,-3.064512014389038,-0.8817838430404663
1782811657849281000,2.699281005859375,0.10041496902704239,-2.745572566986084,-1.03219473361969
1782811657859353000,2.70935302734375,0.11175980418920517,-2.2281148433685303,-1.2244988679885864
1782811657869424000,2.719424072265625,0.06771964579820633,-1.6151753664016724,-1.3871365785598755
1782811657879496200,2.72949609375,0.07425957918167114,-1.0330218076705933,-1.4681508541107178
1782811657889568000,2.739568115234375,0.1551525592803955,-0.5949787497520447,-1.4630777835845947
1782811657899640000,2.74964013671875,0.3083473742008209,-0.36400583386421204,-1.3544169664382935
1782811657909711000,2.759711181640625,0.5122142434120178,-0.33841872215270996,-1.1448986530303955
1782811657919783200,2.769783203125,0.6887210011482239,-0.42612454295158386,-0.8490649461746216
1782811657929855200,2.779855224609375,0.7650469541549683,-0.527694046497345,-0.5359770655632019
1782811657939927000,2.789927001953125,0.737089991569519,-0.6162705421447754,-0.25984102487564087
1782811657949998000,2.799998046875,0.6576327085494995,-0.6443341374397278,-0.029217416420578957
1782811657960070100,2.810070068359375,0.5998238921165466,-0.5832430720329285,0.16510193049907684
1782811657970142200,2.82014208984375,0.5968539118766785,-0.39649662375450134,0.34188151359558105
1782811657980214000,2.830214111328125,0.6350455284118652,-0.10561639815568924,0.502558171749115
1782811657990285000,2.84028515625,0.7046592235565186,0.21064569056034088,0.6613755226135254
1782811658000357000,2.850357177734375,0.7905905246734619,0.49845990538597107,0.8168537616729736
1782811658010429200,2.86042919921875,0.8405184149742126,0.7019994854927063,0.9457315802574158
1782811658020501200,2.870501220703125,0.8073638081550598,0.803831934928894,1.036888599395752
1782811658030572300,2.880572265625,0.6892768144607544,0.8358306288719177,1.0995644330978394
1782811658040644000,2.89064404296875,0.5220478773117065,0.8679318428039551,1.1354639530181885
1782811658050716200,2.900716064453125,0.34402143955230713,0.9456247687339783,1.1540858745574951
1782811658060788200,2.910788330078125,0.17048007249832153,1.0288218259811401,1.1621036529541016
1782811658070859300,2.920859375,0.02827472612261772,1.0697458982467651,1.158582329750061
1782811658080931000,2.93093115234375,-0.04256655275821686,1.0688369274139404,1.1218281984329224
1782811658091003100,2.941003173828125,-0.05450683832168579,1.0207288265228271,1.0608484745025635
1782811658101075200,2.9510751953125,-0.07125186175107956,0.8963046669960022,1.0196231603622437
1782811658111146200,2.961146240234375,-0.13662634789943695,0.7157095670700073,0.9822432994842529
1782811658121218300,2.97121826171875,-0.27718204259872437,0.5471428036689758,0.9539250731468201
1782811658131290000,2.9812900390625,-0.5063005089759827,0.2903951406478882,0.9146056175231934
1782811658141362200,2.991362060546875,-0.7550265789031982,0.055015042424201965,0.8675224781036377
1782811658151433200,3.00143310546875,-0.9307422041893005,-0.11118831485509872,0.7987948060035706
1782811658161505300,3.01150537109375,-0.9696323275566101,-0.25012290477752686,0.6947250962257385
1782811658171577000,3.0215771484375,-0.8359435200691223,-0.4034799635410309,0.6050655245780945
1782811658181649200,3.031649169921875,-0.638285756111145,-0.5987963676452637,0.5520330667495728
1782811658191720000,3.041719970703125,-0.5369122624397278,-0.8731189966201782,0.5298537015914917
1782811658201792000,3.0517919921875,-0.6126108765602112,-0.9864848852157593,0.4624243676662445
1782811658211864300,3.0618642578125,-0.8063880801200867,-0.7943095564842224,0.329463392496109
1782811658221936000,3.07193603515625,-1.0266666412353516,-0.5723515748977661,0.1698039025068283
1782811658232007000,3.0820068359375,-1.189873456954956,-0.5945457816123962,-0.01798863708972931
1782811658242079000,3.092078857421875,-1.250034213066101,-0.6646823883056641,-0.22678720951080322
1782811658252151000,3.102151123046875,-1.169508457183838,-0.5263609886169434,-0.4741953909397125
1782811658262223000,3.11222314453125,-0.955121636390686,-0.1657763570547104,-0.8001249432563782
1782811658272294100,3.122294189453125,-0.7093999981880188,0.2010599672794342,-1.2576974630355835
1782811658282366000,3.132365966796875,-0.5322784185409546,0.21107347309589386,-1.782498836517334
1782811658292438000,3.14243798828125,-0.38577261567115784,-0.0830921158194542,-2.206526517868042
1782811658302510000,3.152510009765625,-0.19808875024318695,-0.5655054450035095,-2.410017251968384
1782811658312581000,3.1625810546875,0.008821284398436546,-1.022516131401062,-2.358823776245117
1782811658322653000,3.17265283203125,0.18231555819511414,-1.3580085039138794,-2.101336717605591
1782811658332725000,3.18272509765625,0.2621488869190216,-1.473741054534912,-1.6577553749084473
1782811658342796000,3.192796142578125,0.23669138550758362,-1.2661335468292236,-1.1070747375488281
1782811658352868000,3.2028681640625,0.12706157565116882,-0.9009243249893188,-0.5914986729621887
1782811658362940200,3.212940185546875,0.000003291410394012928,-0.5521177649497986,-0.20652763545513153
1782811658373012000,3.223011962890625,-0.07417427003383636,-0.29372480511665344,0.03462345898151398
1782811658383084000,3.233083984375,-0.03873501718044281,-0.07870391756296158,0.17943306267261505
1782811658393155000,3.243155029296875,0.1379241794347763,0.2392900288105011,0.3167603015899658
1782811658403227100,3.25322705078125,0.33630451560020447,0.6381515860557556,0.43494343757629395
1782811658413299200,3.26329931640625,0.47195369005203247,0.9183658957481384,0.5061408877372742
1782811658423370200,3.273370361328125,0.5117318034172058,1.0012396574020386,0.5275154709815979
1782811658433442000,3.283442138671875,0.47732511162757874,0.9316451549530029,0.5023022890090942
1782811658443514000,3.29351416015625,0.3660086393356323,0.7681573033332825,0.44632184505462646
1782811658453586200,3.303586181640625,0.21719467639923096,0.588939905166626,0.3636826276779175
1782811658463657200,3.3136572265625,0.09588978439569473,0.4889660179615021,0.2796874940395355
1782811658473729000,3.32372900390625,0.006350587122142315,0.511047899723053,0.21093158423900604
1782811658483801000,3.333801025390625,-0.036761485040187836,0.6903312802314758,0.16805113852024078
1782811658493873200,3.343873046875,-0.04809589684009552,0.9902852177619934,0.18686290085315704
1782811658503944200,3.353944091796875,-0.06289679557085037,1.3330602645874023,0.2598736882209778
1782811658514016300,3.364016357421875,-0.09892963618040085,1.5601493120193481,0.33776503801345825
1782811658524088000,3.374088134765625,-0.14242252707481384,1.5433531999588013,0.40292900800704956
1782811658534160100,3.38416015625,-0.20225442945957184,1.3345022201538086,0.46966037154197693
1782811658544231200,3.394231201171875,-0.25307992100715637,1.0727455615997314,0.5849815011024475
1782811658554303200,3.40430322265625,-0.2964111268520355,0.9067521691322327,0.7715002298355103
1782811658564375000,3.414375,-0.33757829666137695,0.8510370850563049,0.9801400303840637
1782811658574447000,3.424447021484375,-0.3812996745109558,0.8265634179115295,1.1413034200668335
1782811658584518100,3.43451806640625,-0.4043861925601959,0.7694407105445862,1.2050188779830933
1782811658594590200,3.444590087890625,-0.3454991579055786,0.7088072299957275,1.1913331747055054
1782811658604662300,3.454662353515625,-0.1574985533952713,0.7090445160865784,1.1262128353118896
1782811658614734000,3.464734130859375,0.18627506494522095,0.7799458503723145,1.0560718774795532
1782811658624805000,3.47480517578125,0.5988741517066956,0.869994044303894,1.0469930171966553
1782811658634877200,3.484877197265625,0.92311692237854,0.8415064811706543,1.109721064567566
1782811658644949200,3.49494921875,1.0546904802322388,0.693707287311554,1.1944596767425537
1782811658655021300,3.505021240234375,1.0019081830978394,0.49502214789390564,1.3060882091522217
1782811658665092400,3.51509228515625,0.8554257750511169,0.3570995628833771,1.4514299631118774
1782811658675164200,3.5251640625,0.7461395263671875,0.14309512078762054,1.5914320945739746
1782811658685236200,3.535236328125,0.7343012690544128,-0.2557132840156555,1.6743227243423462
1782811658695307000,3.54530712890625,0.7031899690628052,-0.6559097170829773,1.6477512121200562
1782811658705379000,3.555379150390625,0.5581216216087341,-0.8060925006866455,1.5034798383712769
1782811658715451000,3.565450927734375,0.3451499342918396,-0.7007977366447449,1.227932095527649
1782811658725523200,3.575523193359375,0.18156294524669647,-0.4917128384113312,0.7739946246147156
1782811658735594000,3.585593994140625,0.09232228249311447,-0.48139306902885437,0.12946225702762604
1782811658745666000,3.595666015625,0.057320307940244675,-0.6920291781425476,-0.5730727910995483
1782811658755738000,3.605738037109375,-0.04934621602296829,-1.0079892873764038,-1.2117992639541626
1782811658765810000,3.615809814453125,-0.30012279748916626,-1.333349585533142,-1.7658356428146362
1782811658775881000,3.625880859375,-0.5311208367347717,-1.3947136402130127,-2.1848812103271484
1782811658785953000,3.635953125,-0.6726729273796082,-1.0977648496627808,-2.451953411102295
1782811658796025000,3.646025146484375,-0.7880024313926697,-0.7052286863327026,-2.603062391281128
1782811658806097200,3.65609716796875,-0.9028959274291992,-0.4626852869987488,-2.602595329284668
1782811658816168200,3.666168212890625,-0.9424393177032471,-0.19416038691997528,-2.4191701412200928
1782811658826240000,3.676239990234375,-0.8820024132728577,0.07409820705652237,-2.0721046924591064
1782811658836312000,3.68631201171875,-0.7379850149154663,0.21542604267597198,-1.6361178159713745
1782811658846384000,3.696384033203125,-0.5449556708335876,0.1603182852268219,-1.1705381870269775
1782811658856455200,3.706455078125,-0.3758505582809448,-0.018676238134503365,-0.7426198720932007
1782811658866527000,3.71652685546875,-0.27381765842437744,-0.2156793177127838,-0.4080565571784973
1782811658876599000,3.72659912109375,-0.2481764703989029,-0.3939499855041504,-0.18812845647335052
1782811658886670000,3.736670166015625,-0.24747566878795624,-0.5267543792724609,-0.07267284393310547
1782811658896742100,3.7467421875,-0.22651872038841248,-0.5501033663749695,-0.013635359704494476
1782811658906814200,3.756814208984375,-0.1633547693490982,-0.4520421028137207,0.003265171078965068
1782811658916886000,3.766885986328125,-0.08951516449451447,-0.24789857864379883,-0.00010772244422696531
1782811658926957000,3.77695703125,-0.03801809623837471,-0.007276876829564571,-0.026424456387758255
1782811658937029000,3.787029052734375,-0.00902559608221054,0.21107302606105804,-0.05333756282925606
1782811658947101200,3.79710107421875,-0.019654259085655212,0.3758660852909088,-0.08841739594936371
1782811658957173000,3.807173095703125,-0.05388892814517021,0.47828248143196106,-0.12041474133729935
1782811658967244000,3.817244140625,-0.08813982456922531,0.4991401731967926,-0.12812288105487823
1782811658977316000,3.827316162109375,-0.11956139653921127,0.46281492710113525,-0.10244202613830566
1782811658987388200,3.83738818359375,-0.12315049022436142,0.41342875361442566,-0.03258882090449333
1782811658997460200,3.847460205078125,-0.08202462643384933,0.41976282000541687,0.09123271703720093
1782811659007531300,3.85753125,-0.028078151866793633,0.4722258746623993,0.23335309326648712
1782811659017603000,3.86760302734375,0.009221816435456276,0.5131199955940247,0.36696308851242065
1782811659027675100,3.877675048828125,0.019657377153635025,0.5170080661773682,0.4697989523410797
1782811659037747200,3.887747314453125,0.014749972149729729,0.4931650459766388,0.5414105653762817
1782811659047818200,3.897818359375,0.004266124218702316,0.46679866313934326,0.5936047434806824
1782811659057890300,3.907890380859375,-0.010113080963492393,0.43006807565689087,0.6485366821289062
1782811659067962000,3.917962158203125,-0.03640354424715042,0.39074328541755676,0.6891381740570068
1782811659078033200,3.928033203125,-0.07723512500524521,0.32721012830734253,0.69951331615448
1782811659088105200,3.938105224609375,-0.1242847889661789,0.2376292198896408,0.6820027232170105
1782811659098177300,3.94817724609375,-0.13630948960781097,0.1652442365884781,0.6568406224250793
1782811659108249000,3.9582490234375,-0.08820968866348267,0.14601756632328033,0.6417322158813477
1782811659118320000,3.968320068359375,-0.0023304657079279423,0.13012994825839996,0.6431900262832642
1782811659128392200,3.97839208984375,0.07371091097593307,0.07534845918416977,0.6521424055099487
1782811659138464300,3.98846435546875,0.07798395305871964,-0.011186163872480392,0.6812624335289001
1782811659148536300,3.998536376953125,-0.06502525508403778,-0.1001439020037651,0.7503184676170349
1782811659158607000,4.008607177734375,-0.332853764295578,-0.07536265254020691,0.8716230988502502
1782811659168679200,4.01867919921875,-0.5672127604484558,0.23882073163986206,1.012226939201355
1782811659178751200,4.028751220703125,-0.6464343070983887,0.5661069750785828,1.0513525009155273
1782811659188823300,4.0388232421875,-0.5500447750091553,0.575197696685791,0.886424720287323
1782811659198894000,4.04889404296875,-0.33949312567710876,0.2708764374256134,0.5319790244102478
1782811659208966100,4.058966064453125,-0.2028215080499649,-0.29774531722068787,-0.024547921493649483
1782811659219038000,4.069037841796875,-0.17577150464057922,-1.065639853477478,-0.6634764671325684
1782811659229109000,4.07910888671875,-0.11513189226388931,-1.8238534927368164,-1.1752707958221436
1782811659239181000,4.08918115234375,0.015535036101937294,-2.3334503173828125,-1.429963231086731
1782811659249253000,4.099253173828125,0.18230558931827545,-2.4295730590820312,-1.3696240186691284
1782811659259325000,4.109324951171875,0.3167315721511841,-2.125190019607544,-1.0877596139907837
1782811659269396000,4.11939599609375,0.3655258119106293,-1.6212654113769531,-0.768068253993988
1782811659279468000,4.129468017578125,0.31862515211105347,-1.099166750907898,-0.553249180316925
1782811659289540000,4.1395400390625,0.24081824719905853,-0.7157588005065918,-0.5144563913345337
1782811659299612200,4.149612060546875,0.1627010852098465,-0.5340595841407776,-0.6318698525428772
1782811659309683200,4.15968310546875,0.06340015679597855,-0.5678444504737854,-0.8146718144416809
1782811659319755000,4.169755126953125,-0.0921068787574768,-0.784020721912384,-0.9740883708000183
1782811659329827000,4.1798271484375,-0.2791869640350342,-1.0743273496627808,-1.0497872829437256
1782811659339899100,4.189899169921875,-0.4270307719707489,-1.2581089735031128,-1.0300577878952026
1782811659349970200,4.19997021484375,-0.5163734555244446,-1.239783763885498,-0.984149158000946
1782811659360042000,4.2100419921875,-0.5752280354499817,-1.0406668186187744,-0.9697007536888123
1782811659370114000,4.220114013671875,-0.5861605405807495,-0.7461138963699341,-1.005243182182312
1782811659380185000,4.23018505859375,-0.5249576568603516,-0.41964152455329895,-1.0520235300064087
1782811659390257200,4.240257080078125,-0.3920995593070984,-0.12634703516960144,-1.0822011232376099
1782811659400329200,4.2503291015625,-0.2029900997877121,0.08560409396886826,-1.0511071681976318
1782811659410401000,4.260401123046875,0.0036225547082722187,0.22226257622241974,-0.9390146732330322
1782811659420471800,4.270471923828125,0.21591590344905853,0.30001622438430786,-0.7428571581840515
1782811659430544000,4.2805439453125,0.40305185317993164,0.33175748586654663,-0.45766481757164
1782811659440616000,4.290615966796875,0.5070549845695496,0.3028786778450012,-0.1359000951051712
1782811659450688000,4.30068798828125,0.4989204704761505,0.1863151639699936,0.13672557473182678
1782811659460759000,4.310759033203125,0.4032224416732788,0.03703539818525314,0.31370779871940613
1782811659470830800,4.320830810546875,0.2744864523410797,-0.0691005289554596,0.4279331564903259
1782811659480903000,4.33090283203125,0.15070991218090057,-0.10646387934684753,0.5019536018371582
1782811659490975000,4.34097509765625,0.07157845795154572,-0.06951075047254562,0.5638241767883301
1782811659501046000,4.3510458984375,0.024223197251558304,0.028720475733280182,0.6077266335487366
1782811659511117800,4.361117919921875,0.014635988511145115,0.13671211898326874,0.6157335042953491
1782811659521190000,4.37118994140625,0.03484272211790085,0.20486001670360565,0.5843654870986938
1782811659531260700,4.3812607421875,0.08295741677284241,0.20394089818000793,0.5318208932876587
1782811659541332700,4.391332763671875,0.12618398666381836,0.18696723878383636,0.4600937068462372
1782811659551404800,4.40140478515625,0.15535078942775726,0.22657404839992523,0.42808613181114197
1782811659561476900,4.411476806640625,0.1636396050453186,0.35255166888237,0.4477042853832245
1782811659571547600,4.421547607421875,0.15040862560272217,0.5569168329238892,0.5068995356559753
1782811659581619700,4.43161962890625,0.11222795397043228,0.7586203813552856,0.5862606763839722
1782811659591691800,4.44169189453125,0.06931330263614655,0.8491212725639343,0.6685357093811035
1782811659601762800,4.4517626953125,0.05706861615180969,0.766891360282898,0.751297652721405
1782811659611835000,4.4618349609375,0.10564135760068893,0.5878775119781494,0.8437985777854919
1782811659621906700,4.47190673828125,0.18647627532482147,0.44475629925727844,0.9710076451301575
1782811659631978800,4.481978759765625,0.21389584243297577,0.34625905752182007,1.1660466194152832
1782811659642049800,4.4920498046875,0.12162822484970093,0.29174894094467163,1.368912696838379
1782811659652121900,4.502121826171875,-0.05723516643047333,0.31364765763282776,1.5273457765579224
1782811659662193700,4.512193603515625,-0.18355236947536469,0.4346667528152466,1.6010746955871582
1782811659672265700,4.522265625,-0.13558930158615112,0.5529894828796387,1.580500602722168
1782811659682336800,4.532336669921875,0.04989028722047806,0.47300681471824646,1.4882428646087646
1782811659692408800,4.542408935546875,0.21556632220745087,0.0517130084335804,1.3996425867080688
1782811659702481000,4.55248095703125,0.25689274072647095,-0.5339965224266052,1.4315887689590454
1782811659712552700,4.562552734375,0.10642332583665848,-1.0757040977478027,1.6232852935791016
1782811659722623700,4.572623779296875,-0.19762098789215088,-1.6270129680633545,1.8628493547439575
1782811659732695800,4.58269580078125,-0.5759848356246948,-2.3451268672943115,1.934045433998108
1782811659742767900,4.592767822265625,-0.9031850695610046,-3.0569510459899902,1.7271268367767334
1782811659752839000,4.6028388671875,-1.046966552734375,-3.5739285945892334,1.256475567817688
1782811659762910700,4.61291064453125,-0.975100576877594,-3.7099342346191406,0.6001020669937134
1782811659772982800,4.622982666015625,-0.7699493765830994,-3.3365025520324707,-0.14701113104820251
1782811659783054800,4.633054931640625,-0.4969569742679596,-2.396113157272339,-0.9230823516845703
1782811659793126000,4.6431259765625,-0.22722722589969635,-1.0311318635940552,-1.6880189180374146
1782811659803198000,4.653197998046875,-0.011170828714966774,0.3176806569099426,-2.393287420272827
1782811659813269800,4.663269775390625,0.11942516267299652,1.2417434453964233,-2.9608511924743652
1782811659823341800,4.673341796875,0.1595185101032257,1.6209897994995117,-3.3167364597320557
1782811659833412900,4.683412841796875,0.11385554075241089,1.4327876567840576,-3.435579538345337
1782811659843485000,4.69348486328125,-0.024200599640607834,0.8379801511764526,-3.3413772583007812
1782811659853557000,4.703556884765625,-0.2419002652168274,0.054987043142318726,-3.01271653175354
1782811659863628000,4.7136279296875,-0.4403558373451233,-0.6067818403244019,-2.4774928092956543
1782811659873699800,4.723699951171875,-0.5319679379463196,-0.8125486969947815,-1.8285877704620361
1782811659883772000,4.73377197265625,-0.5022691488265991,-0.6191747188568115,-1.175873041152954
1782811659893844000,4.743843994140625,-0.362468421459198,-0.2593434751033783,-0.6155242919921875
1782811659903915000,4.7539150390625,-0.16268526017665863,0.10977968573570251,-0.19508036971092224
1782811659913986800,4.76398681640625,0.01160713005810976,0.43052253127098083,0.07094483822584152
1782811659924059000,4.774058837890625,0.09506074339151382,0.7041745185852051,0.18815161287784576
1782811659934131000,4.784130859375,0.07508649677038193,0.9444810748100281,0.17192032933235168
1782811659944202000,4.794201904296875,0.002780869835987687,1.1490594148635864,0.07547101378440857
1782811659954274000,4.804274169921875,-0.09070891886949539,1.2813639640808105,-0.06990808993577957
1782811659964345900,4.814345947265625,-0.17038272321224213,1.3298615217208862,-0.23808404803276062
1782811659974416600,4.824416748046875,-0.22819675505161285,1.2973320484161377,-0.3769727051258087
1782811659984488700,4.83448876953125,-0.22131620347499847,1.1937015056610107,-0.4425032436847687
1782811659994560800,4.844560791015625,-0.1372094750404358,1.0843102931976318,-0.4079384207725525
1782811660004632800,4.8546328125,0.00754158291965723,1.0267093181610107,-0.27891600131988525
1782811660014703900,4.864703857421875,0.16976018249988556,1.03045654296875,-0.0784783735871315
1782811660024775700,4.874775634765625,0.2989743649959564,1.0170339345932007,0.1679804027080536
1782811660034847700,4.88484765625,0.37074926495552063,0.9790993928909302,0.4639992117881775
1782811660044919800,4.894919921875,0.3897296190261841,0.9687924385070801,0.7733626365661621
1782811660054990800,4.904990966796875,0.35842350125312805,0.9706628918647766,1.0604867935180664
1782811660065062700,4.915062744140625,0.29577210545539856,0.9594493508338928,1.288042664527893
1782811660075134700,4.925134765625,0.20536021888256073,0.9519864916801453,1.4443334341049194
1782811660085205800,4.935205810546875,0.09737996011972427,0.9563878774642944,1.5303369760513306
1782811660095277800,4.94527783203125,0.0005277313757687807,0.9669053554534912,1.5552970170974731
1782811660105350000,4.955349853515625,-0.06493330001831055,0.9687991738319397,1.5079063177108765
1782811660115421700,4.965421630859375,-0.06273715198040009,0.9794467687606812,1.421439528465271
1782811660125492700,4.97549267578125,-0.005104750394821167,0.9731931686401367,1.3245726823806763
1782811660135564800,4.985564697265625,0.060022030025720596,0.9281768202781677,1.228617787361145
1782811660145636900,4.995636962890625,0.10777517408132553,0.8642865419387817,1.1258310079574585
1782811660155708700,5.005708740234375,0.1179487481713295,0.8141177892684937,0.9879694581031799
1782811660165779700,5.01577978515625,0.1105736568570137,0.828064501285553,0.8405206203460693
1782811660175851800,5.025851806640625,0.13793422281742096,0.8605749607086182,0.7382450699806213
1782811660185923800,5.035923828125,0.20589862763881683,0.8190522789955139,0.7047187685966492
1782811660195995000,5.045994873046875,0.31270071864128113,0.6527277827262878,0.7875771522521973
1782811660206067000,5.05606689453125,0.4325341582298279,0.41702231764793396,1.053144931793213
1782811660216138800,5.066138671875,0.4818858802318573,0.2390175610780716,1.4062269926071167
1782811660226210800,5.0762109375,0.4090236723423004,0.13308259844779968,1.6606550216674805
1782811660236281900,5.08628173828125,0.22401359677314758,-0.013136545196175575,1.6974213123321533
1782811660246354000,5.09635400390625,-0.04412597790360451,-0.12861520051956177,1.5386396646499634
1782811660256426000,5.106426025390625,-0.2981035113334656,-0.24007584154605865,1.2217581272125244
1782811660266497000,5.1164970703125,-0.4906436800956726,-0.3936805725097656,0.7609152793884277
1782811660276568800,5.12656884765625,-0.5721865296363831,-0.5255199074745178,0.21443964540958405
1782811660286641000,5.136640869140625,-0.528031051158905,-0.5331202745437622,-0.30417555570602417
1782811660296713000,5.146712890625,-0.40022894740104675,-0.5149213075637817,-0.7125852108001709
1782811660306784000,5.156783935546875,-0.239625945687294,-0.5600664019584656,-0.9775177836418152
1782811660316855800,5.166855712890625,-0.08912495523691177,-0.616428554058075,-1.0827456712722778
1782811660326928000,5.176927978515625,0.06735226511955261,-0.7065733671188354,-1.0635037422180176
1782811660337000000,5.187,0.19020439684391022,-0.8548429012298584,-0.9670684933662415
1782811660347071000,5.197071044921875,0.22390110790729523,-1.1320918798446655,-0.8262373805046082
1782811660357143000,5.20714306640625,0.1681644469499588,-1.5028669834136963,-0.7022045850753784
1782811660367214800,5.21721484375,0.08873886615037918,-1.7885328531265259,-0.6633738279342651
1782811660377285600,5.22728564453125,0.004742310382425785,-1.8556491136550903,-0.7741700410842896
1782811660387357700,5.237357666015625,-0.09067662060260773,-1.7119145393371582,-1.061475396156311
1782811660397430000,5.247429931640625,-0.1631217747926712,-1.4243239164352417,-1.4257885217666626
1782811660407501800,5.257501708984375,-0.11712605506181717,-0.9938125014305115,-1.701755404472351
1782811660417572900,5.26757275390625,0.08969604969024658,-0.4750780165195465,-1.7951815128326416
1782811660427644700,5.277644775390625,0.37148913741111755,-0.04472798481583595,-1.6663191318511963
1782811660437716700,5.287716796875,0.5750933289527893,0.13600286841392517,-1.3376896381378174
1782811660447787500,5.29778759765625,0.6472439765930176,0.10973771661520004,-0.850036084651947
1782811660457859600,5.307859619140625,0.5979564189910889,0.0008843665709719062,-0.2901078164577484
1782811660467928600,5.317928466796875,0.4508998692035675,-0.0926293432712555,0.2503831088542938
1782811660478000600,5.328000732421875,0.2401355654001236,-0.15376007556915283,0.6348901987075806
1782811660488071700,5.33807177734375,0.04561109095811844,-0.18722696602344513,0.8137621879577637
1782811660498143700,5.348143798828125,-0.0900701954960823,-0.21030469238758087,0.7776060700416565
1782811660508215600,5.358215576171875,-0.15395143628120422,-0.15145787596702576,0.5923280715942383
1782811660518287600,5.36828759765625,-0.13887421786785126,0.04428472742438316,0.33516979217529297
1782811660528358700,5.378358642578125,-0.07776186615228653,0.30319273471832275,0.09592684358358383
1782811660538430700,5.3884306640625,-0.011586119420826435,0.524487316608429,-0.04965250939130783
1782811660548502800,5.398502685546875,0.03625623881816864,0.6697821617126465,-0.07085499912500381
1782811660558574600,5.40857470703125,0.03192025050520897,0.7621369361877441,0.036454636603593826
1782811660568645600,5.418645751953125,-0.028466925024986267,0.8105074167251587,0.2441074401140213
1782811660578717700,5.4287177734375,-0.15335020422935486,0.7765911221504211,0.4868241250514984
1782811660588789800,5.438789794921875,-0.32754969596862793,0.5927289128303528,0.7349687218666077
1782811660598860500,5.448860595703125,-0.5026869177818298,0.2953529357910156,0.9470615386962891
1782811660608932600,5.4589326171875,-0.6095371842384338,0.11666812747716904,1.1115484237670898
1782811660619004700,5.469004638671875,-0.6493821144104004,0.17918173968791962,1.2136025428771973
1782811660629076700,5.47907666015625,-0.6649232506752014,0.37203267216682434,1.2689374685287476
1782811660639147500,5.4891474609375,-0.714707612991333,0.5918399095535278,1.272788643836975
1782811660649219600,5.499219482421875,-0.8045176863670349,0.7476580142974854,1.2215209007263184
1782811660659291400,5.50929150390625,-0.871890127658844,0.8331080675125122,1.1380468606948853
1782811660669362400,5.519362548828125,-0.8301532864570618,0.8660619854927063,1.0862315893173218
1782811660679434500,5.5294345703125,-0.7141373157501221,0.8969261050224304,1.1143184900283813
1782811660689506600,5.539506591796875,-0.6243680119514465,0.8644493818283081,1.1866225004196167
1782811660699578600,5.54957861328125,-0.612884521484375,0.8168918490409851,1.2480906248092651
1782811660709649700,5.559649658203125,-0.7079979777336121,0.7224668264389038,1.2565988302230835
1782811660719721500,5.569721435546875,-0.8862494826316833,0.5609805583953857,1.1701511144638062
1782811660729793500,5.57979345703125,-0.999556839466095,0.46782082319259644,1.0428024530410767
1782811660739864600,5.589864501953125,-0.9586932063102722,0.46452051401138306,0.9180179238319397
1782811660749936600,5.5999365234375,-0.8158940076828003,0.4579313397407532,0.8466734886169434
1782811660760008400,5.610008544921875,-0.6968655586242676,0.47521865367889404,0.8462702035903931
1782811660770080500,5.62008056640625,-0.7150840163230896,0.612389326095581,0.8165165781974792
1782811660780151600,5.630151611328125,-0.8262836933135986,0.8453150391578674,0.6127306222915649
1782811660790223600,5.6402236328125,-0.8637301325798035,0.862827718257904,0.15214674174785614
1782811660800295700,5.650295654296875,-0.7451834082603455,0.6470428109169006,-0.4355325400829315
1782811660810366700,5.66036669921875,-0.48244181275367737,0.3552495837211609,-0.9251443147659302
1782811660820438500,5.6704384765625,-0.16261136531829834,-0.08991464227437973,-1.1890647411346436
1782811660830510600,5.680510498046875,0.08654040843248367,-0.7517687678337097,-1.2830584049224854
1782811660840582700,5.690582763671875,0.17264564335346222,-1.3602170944213867,-1.2937726974487305
1782811660850653700,5.70065380859375,0.17918850481510162,-1.6096502542495728,-1.2541685104370117
1782811660860727600,5.7107275390625,0.20800039172172546,-1.5116230249404907,-1.2050279378890991
1782811660870799600,5.720799560546875,0.21300794184207916,-1.3079135417938232,-1.1909294128417969
1782811660880870700,5.73087060546875,0.17430081963539124,-1.1310174465179443,-1.18590247631073
1782811660890942500,5.7409423828125,0.1328127682209015,-0.9251915812492371,-1.1363499164581299
1782811660901014500,5.7510146484375,0.05929429084062576,-0.7410585284233093,-1.0367176532745361
1782811660911086600,5.761086669921875,-0.11193764954805374,-0.6462739109992981,-1.007214069366455
1782811660921157600,5.77115771484375,-0.3239518105983734,-0.5719116926193237,-1.1539828777313232
1782811660931229700,5.781229736328125,-0.4095631241798401,-0.3352658450603485,-1.412696361541748
1782811660941301500,5.791301513671875,-0.40636542439460754,0.06838090717792511,-1.4941391944885254
1782811660951372500,5.80137255859375,-0.2214173823595047,-0.06974713504314423,-1.5953941345214844
1782811660961444600,5.811444580078125,0.16260114312171936,0.03520919010043144,-1.4987276792526245
1782811660971516700,5.8215166015625,0.4745321571826935,0.15187081694602966,-1.2298506498336792
1782811660981588500,5.83158837890625,0.6242339015007019,0.10054633021354675,-0.8605644702911377
1782811660991659500,5.841659423828125,0.6601255536079407,-0.10684787482023239,-0.5173852443695068
1782811661001731600,5.851731689453125,0.6507724523544312,-0.33752918243408203,-0.2520279288291931
1782811661011803600,5.8618037109375,0.5835398435592651,-0.4833548367023468,0.010601839050650597
1782811661021874700,5.871874755859375,0.5419333577156067,-0.48713693022727966,0.4094425439834595
1782811661031946800,5.88194677734375,0.563287079334259,-0.4411289393901825,0.8614870309829712
1782811661042018600,5.8920185546875,0.5860556960105896,-0.5406560897827148,1.2008106708526611
