time,seconds_elapsed,z,y,x
1782812137336593400,0.073593505859375,0.0013527044793590903,0.0017179008573293686,0.00005352275911718607
1782812137346664400,0.08366455078125,-0.0034400359727442265,-0.0016347314231097698,0.0009978238958865404
1782812137356735500,0.093735595703125,-0.0002727388637140393,-0.000027513597160577774,-0.002725807949900627
1782812137366806500,0.103806640625,0.001208560774102807,-0.0013985070399940014,-0.001401984947733581
1782812137376876300,0.113876220703125,0.0004234608495607972,0.0017895631026476622,-0.0007513747550547123
1782812137386947300,0.123947265625,0.00004592409823089838,-0.0027227457612752914,-0.0014181899605318904
1782812137397018400,0.134018310546875,-0.001254497328773141,-0.00031817774288356304,0.0005474891513586044
1782812137407089400,0.14408935546875,0.0002617047866806388,0.0003185895038768649,-0.0004173042834736407
1782812137417160400,0.154160400390625,-0.0008187397615984082,0.00012417882680892944,-0.00036723684752359986
1782812137427231200,0.164231201171875,-0.0009839575504884124,0.001462753745727241,0.0009662369266152382
1782812137437302300,0.17430224609375,0.0017383256927132607,0.0014837926719337702,0.0006338744424283504
1782812137447373300,0.184373291015625,-0.0005717428866773844,0.0010991559829562902,-0.001317532267421484
1782812137457443600,0.194443603515625,-0.001213831128552556,0.0005276416195556521,-0.0009215202881023288
1782812137467514600,0.2045146484375,0.00009536452125757933,0.001670788275077939,-0.0010937083279713988
1782812137477585400,0.21458544921875,0.0018786170985549688,-0.0009233970195055008,-0.0001440251071471721
1782812137487656400,0.224656494140625,-0.0012165580410510302,-0.0005910890176892281,-0.001238422468304634
1782812137497727500,0.2347275390625,0.00037761026760563254,-0.00006671273149549961,0.00005640651215799153
1782812137507798300,0.24479833984375,-0.0003064085030928254,0.0002147965133190155,-0.0001271868823096156
1782812137517868300,0.254868408203125,0.000016100355423986912,0.0011008301516994834,0.0005942635471001267
1782812137527939300,0.264939208984375,-0.0013327432097867131,-0.0016779114957898855,-0.0017025810666382313
1782812137538010400,0.27501025390625,-0.001135935657657683,-0.0012307669967412949,-0.00021041202126070857
1782812137548081400,0.285081298828125,0.0017694722628220916,0.0004732770612463355,0.0035567807499319315
1782812137558152200,0.295152099609375,-0.0014817147748544812,-0.0011429954320192337,-0.0004241124843247235
1782812137568223200,0.30522314453125,-0.00445736525580287,0.001584235462360084,0.0006652715383097529
1782812137578294300,0.315294189453125,-0.0010826076613739133,-0.0019929225090891123,0.0011659457813948393
1782812137588364300,0.3253642578125,0.0007169614546000957,-0.0011594702955335379,0.0010976579505950212
1782812137598435300,0.335435302734375,-0.0001837196759879589,-0.001130708260461688,-0.0005183480679988861
1782812137608506000,0.345506103515625,-0.0008466809522360563,0.0018164973007515073,-0.00011366180842742324
1782812137618577200,0.3555771484375,0.0003607962280511856,0.0006207379046827555,0.00024080491857603192
1782812137628648200,0.365648193359375,0.0005059151444584131,-0.0012064932379871607,0.0006745471619069576
1782812137638719200,0.37571923828125,0.0006531879771500826,0.0014385583344846964,-0.0008591673104092479
1782812137648790300,0.385790283203125,-0.00008312799036502838,-0.001155894948169589,-0.002038814825937152
1782812137658860300,0.3958603515625,-0.0005126958712935448,0.002241233130916953,-0.00008219049777835608
1782812137668931300,0.405931396484375,0.001182157313451171,-0.001275699120014906,0.004177707247436047
1782812137679002400,0.41600244140625,0.0006402040598914027,0.000949904671870172,0.0006495515117421746
1782812137689073400,0.426073486328125,-0.00037579191848635674,0.002606390742585063,-0.0008551344508305192
1782812137699144400,0.43614453125,0.00007135281339287758,0.0001232593785971403,-0.0011949538020417094
1782812137709215500,0.446215576171875,0.0011186911724507809,-0.0005439380183815956,0.000748145510442555
1782812137719286300,0.456286376953125,0.0004832610138691962,-0.00014792615547776222,-0.001509682391770184
1782812137729357300,0.466357421875,0.0031486828811466694,-0.0016898189205676317,0.0007117345230653882
1782812137739427300,0.47642724609375,-0.00022261275444179773,0.001197846489958465,0.0010837781010195613
1782812137749498400,0.486498291015625,-0.0003951643593609333,-0.0014360214117914438,-0.0007413249695673585
1782812137759569400,0.4965693359375,-0.00025268516037613153,-0.0010770272929221392,0.0008144937455654144
1782812137769640200,0.50664013671875,0.000615516968537122,-0.0020195054821670055,-0.0030510209035128355
1782812137779711200,0.516711181640625,0.0002621154999360442,0.0013153045438230038,-0.0001391206751577556
1782812137789782300,0.5267822265625,-0.0010810003150254488,0.0003927935613319278,0.0014763103099539876
1782812137799852300,0.536852294921875,-0.0010964467655867338,-0.00031880312599241734,-0.00023397173208650202
1782812137809923000,0.546923095703125,-0.00214729318395257,0.003744716290384531,-0.00010446185478940606
1782812137819994000,0.556994140625,-0.0003445995971560478,-0.00021726847626268864,0.001799431978724897
1782812137830065200,0.567065185546875,-0.00015646161045879126,0.0006334935314953327,0.0008737384341657162
1782812137840136200,0.57713623046875,0.0016009584069252014,-0.0011556181125342846,-0.0005526507156901062
1782812137850207200,0.587207275390625,0.000707782746758312,-0.0006390153430402279,-0.000513761187903583
1782812137860278300,0.5972783203125,0.0019251136109232903,-0.00007282732985913754,0.0003448419156484306
1782812137870349300,0.607349365234375,0.0013734721578657627,-0.00044498289935290813,0.0018467495683580637
1782812137880419300,0.61741943359375,0.0001090032747015357,0.0008112301584333181,0.00144834048114717
1782812137890490400,0.627490478515625,0.0005080163246020675,0.0009658396011218429,0.00018562612240202725
1782812137900561400,0.6375615234375,0.0013298678677529097,0.0027528204955160618,-0.0008876278297975659
1782812137910632400,0.647632568359375,0.0008661760948598385,0.0006784091237932444,0.001141357235610485
1782812137920703200,0.657703125,-0.0013050992274656892,0.0003037024289369583,0.0003783615247812122
1782812137930774300,0.667774169921875,0.0007536199409514666,0.0008781999349594116,-0.002209550468251109
1782812137940845300,0.67784521484375,-0.0011827645357698202,0.001471552299335599,0.001304490608163178
1782812137950915300,0.687915283203125,0.0012178500182926655,-0.0006642034277319908,-0.0005111958016641438
1782812137960986400,0.697986328125,0.001002400298602879,0.00013181520625948906,-0.0004534051986411214
1782812137971057200,0.70805712890625,0.0024629314430058002,-0.0013474361039698124,0.0012183792423456907
1782812137981128200,0.718128173828125,-0.0010340652661398053,-0.0023242835886776447,-0.0007515610195696354
1782812137991199200,0.72819921875,-0.0012789078755304217,-0.00036879489198327065,0.0018519649747759104
1782812138001270300,0.738270263671875,-0.0012914246181026101,-0.00024256110191345215,0.0003675189218483865
1782812138011341300,0.74834130859375,-0.00023177615366876125,-0.0012859483249485493,-0.0009574503637850285
1782812138021411000,0.7584111328125,0.003274275455623865,-0.0009320140816271305,0.0007456411840394139
1782812138031482000,0.768482177734375,0.001394237158820033,0.0024235679302364588,-0.0003266489948146045
1782812138041553200,0.77855322265625,0.0025356679689139128,0.00045682338532060385,0.0006930754170753062
1782812138051624200,0.788624267578125,-0.0004931802395731211,-0.00020279479213058949,0.0014542759163305163
1782812138061695200,0.7986953125,0.00012014573439955711,0.001661151647567749,0.0011541377753019333
1782812138071766300,0.808766357421875,0.000607007765211165,0.0015497421845793724,-0.0013530879514291883
1782812138081837000,0.818837158203125,-0.0008891560137271881,0.001262919744476676,-0.0026372643187642097
1782812138091907300,0.8289072265625,-0.0013869580579921603,-0.0008586456533521414,-0.00033465935848653316
1782812138101978400,0.838978271484375,0.0006279897061176598,0.0004987675929442048,-0.0009138968889601529
1782812138112049400,0.84904931640625,-0.0000043621985241770744,0.0016625283751636744,0.00004499868373386562
1782812138122120400,0.859120361328125,0.001349588972516358,-0.0008533599320799112,0.0012665906688198447
1782812138132191200,0.869191162109375,0.0011791435535997152,0.00043270818423479795,-0.00016305435565300286
1782812138142262300,0.87926220703125,0.0007189493626356125,-0.0017580082640051842,-0.0009060762822628021
1782812138152333300,0.889333251953125,-0.0010158739751204848,0.001671267207711935,-0.0004777261638082564
1782812138162403300,0.8994033203125,-0.0008238599402830005,-0.00006964127533137798,0.000049846043111756444
1782812138172474400,0.909474365234375,0.0026189452037215233,-0.000550469383597374,-0.0003888013889081776
1782812138182545200,0.919545166015625,0.0000575169688090682,0.0009073449764400721,0.0011409182334318757
1782812138192616200,0.9296162109375,0.0004068051930516958,0.0006081216270104051,0.0007315700640901923
1782812138202687200,0.939687255859375,0.0010401048930361867,0.0004794909618794918,-0.0026383940130472183
1782812138212758300,0.94975830078125,0.0003194534801878035,-0.0012696732301265001,-0.0022913841530680656
1782812138222829300,0.959829345703125,0.001091237529180944,0.0007287628250196576,-0.0009251824812963605
1782812138232899000,0.969899169921875,-0.0015821929555386305,0.0002640958409756422,0.0009637365001253784
1782812138242970000,0.97997021484375,-0.00009961123578250408,0.0011756960302591324,0.0003834337112493813
1782812138253041200,0.990041259765625,-0.0025452948175370693,-0.0004224230069667101,-0.0012547268997877836
1782812138263112200,1.0001123046875,0.001501644728705287,-0.0004956601187586784,0.0004710014909505844
1782812138273183200,1.010183349609375,0.00002812640741467476,0.0005977019900456071,0.000986704253591597
1782812138283254300,1.020254150390625,-0.001134343445301056,0.001963637303560972,-0.0007560683880001307
1782812138293324300,1.03032421875,-0.00040760799311101437,0.000593522796407342,0.00024165096692740917
1782812138303395300,1.040395263671875,0.000055782031267881393,0.00072428397834301,0.00028665835270658135
1782812138313466400,1.05046630859375,-0.001171829178929329,-0.0000050175003707408905,0.0006328501040115952
1782812138323537400,1.060537353515625,0.0019738967530429363,-0.0021139748860150576,-0.00012215602328069508
1782812138333608400,1.0706083984375,-0.0013200717512518167,-0.0014096421655267477,-0.0018856556853279471
1782812138343679200,1.08067919921875,0.0007654496002942324,0.002145145321264863,0.00024700365611352026
1782812138353750300,1.090750244140625,-0.0007302284939214587,-0.00022470741532742977,-0.0017606191104277968
1782812138363821300,1.1008212890625,-0.00007562339305877686,-0.0012345779687166214,0.00025938861654140055
1782812138373891300,1.110891357421875,0.0017000557854771614,0.0013152899919077754,0.0006419552955776453
1782812138383962400,1.12096240234375,0.0007410513935610652,-0.0003411963116377592,-0.00043396177352406085
1782812138394033200,1.131033203125,0.001542635029181838,-0.0028428963851183653,0.0016244328580796719
1782812138404104200,1.141104248046875,0.0008669911185279489,0.0006943142507225275,0.0015986000653356314
1782812138414175200,1.15117529296875,0.000333728501573205,0.0006995964795351028,-0.000930948241148144
1782812138424246300,1.161246337890625,-0.0010929269483312964,0.00032888446003198624,-0.0012784907594323158
1782812138434316300,1.17131640625,-0.0012921474408358335,-0.001861735014244914,-0.0009380712872371078
1782812138444387000,1.181386962890625,0.000056477379985153675,0.000030707335099577904,-0.002920528408139944
1782812138454458000,1.1914580078125,0.00009978085290640593,-0.00038862135261297226,-0.001124455826357007
1782812138464529200,1.201529052734375,-0.0004767935024574399,0.0005687851225957274,0.0002880848478525877
1782812138474600200,1.21160009765625,0.0011930258478969336,0.001778540899977088,-0.000692038971465081
1782812138484671200,1.221671142578125,0.0009448192431591451,0.0003012854140251875,-0.00015408045146614313
1782812138494742800,1.23174267578125,-0.00006668223068118095,-0.001039094291627407,-0.0007140035158954561
1782812138504812800,1.241812744140625,0.0023024659603834152,0.00010553235188126564,0.0030929853674024343
1782812138514883800,1.2518837890625,-0.0019792034290730953,0.0002856955397874117,0.0011404257966205478
1782812138524955000,1.261954833984375,0.0003659763024188578,-0.00010499008931219578,0.000757196918129921
1782812138535026000,1.27202587890625,0.000006352318450808525,0.00006579002365469933,0.00048344250535592437
1782812138545097000,1.282096923828125,-0.0021715806797146797,0.001492978073656559,0.0021146286744624376
1782812138555167700,1.292167724609375,-0.004481707699596882,0.0016896319575607777,-0.0010062855435535312
1782812138565238800,1.30223876953125,0.0012664594687521458,-0.0016664834693074226,0.0005804258398711681
1782812138575308800,1.312308837890625,0.002482498297467828,0.0001725279726088047,-0.002916337689384818
1782812138585379800,1.3223798828125,0.00038605788722634315,0.0010854596039280295,-0.0006265518022701144
1782812138595451000,1.332450927734375,0.002333199605345726,-0.0014620323199778795,0.0005129936034791172
1782812138605521700,1.342521728515625,4.0745362639427185e-9,-0.0002939698752015829,-0.0010124649852514267
1782812138615592700,1.3525927734375,-0.00010575307533144951,0.0002394088078290224,0.0009509726078249514
1782812138625663700,1.362663818359375,-0.0015625021187588573,-0.0010072169825434685,0.00008491263724863529
1782812138635734800,1.37273486328125,0.000180085189640522,0.0003708921140059829,-0.0016499871853739023
1782812138645804800,1.3828046875,0.0014578698901459575,0.000597527134232223,0.000012890552170574665
1782812138655875600,1.39287548828125,0.001031373394653201,-0.0010766913183033466,-0.0018502268940210342
1782812138665946600,1.402946533203125,-0.0011891702888533473,-0.0013613833580166101,-0.0016579466173425317
1782812138676017700,1.413017578125,-0.002036052756011486,0.000049175694584846497,0.0003818560508079827
1782812138686088700,1.423088623046875,0.0010577414650470018,0.0013360150624066591,0.0021190359257161617
1782812138696159700,1.43315966796875,0.0008693786803632975,-0.0008184730540961027,-0.0014912068145349622
1782812138706230800,1.443230712890625,0.0026395819149911404,-0.002681620419025421,0.003719534259289503
1782812138716300800,1.45330078125,-0.00137268693652004,-0.0008273816201835871,0.0024237295147031546
1782812138726371800,1.463371826171875,-0.0015623039798811078,-0.0006739834789186716,-0.0006836468237452209
1782812138736443000,1.47344287109375,0.0003568294341675937,0.000601285370066762,-0.0001363944902550429
1782812138746514000,1.483513916015625,-0.0013454629806801677,0.0008833141764625907,-0.003586253384128213
1782812138756585000,1.4935849609375,0.000193091225810349,-0.0004350198432803154,-0.0006065635825507343
1782812138766655700,1.50365576171875,0.00202268292196095,-0.0007322286255657673,0.00040277448715642095
1782812138776726800,1.513726806640625,0.0022026654332876205,-0.003377545392140746,0.0005140971043147147
1782812138786796800,1.523796875,-0.0010788815561681986,0.0016025658696889877,0.0008211596286855638
1782812138796867800,1.533867919921875,0.00235910271294415,-0.0004540858790278435,0.00027259287890046835
1782812138806939000,1.54393896484375,-0.00034134264569729567,-0.001463956432417035,-0.0013950786087661982
1782812138817009700,1.554009765625,-0.0019431677646934986,0.0036987033672630787,0.0005056538502685726
1782812138827080700,1.564080810546875,-0.00044327531941235065,0.0005122312577441335,0.0007663773722015321
1782812138837151700,1.57415185546875,0.00013570149894803762,-0.00030973926186561584,0.0017980739939957857
1782812138847222800,1.584222900390625,-0.0013082644436508417,0.000599996536038816,0.000779148715082556
1782812138857292800,1.594292724609375,-0.002005162416025996,0.0013879529433324933,0.0014337894972413778
1782812138867363600,1.604363525390625,-0.0008008809527382255,0.00024066318292170763,-0.0005444065318442881
1782812138877434600,1.6144345703125,0.002506043529137969,-0.00021083280444145203,0.0008654476259835064
1782812138887505700,1.624505615234375,-0.0019310490461066365,0.0015271459706127644,-0.0016051668208092451
1782812138897576700,1.63457666015625,0.0010268513578921556,0.0003217848716303706,0.0015901480801403522
1782812138907647700,1.644647705078125,-0.0006336295045912266,-0.0001969989389181137,-0.0022085849195718765
1782812138917718800,1.65471875,-0.0017135808011516929,0.0022370661608874798,0.0008059512474574149
1782812138927788800,1.664788818359375,-0.000506369979120791,0.00005540461279451847,-0.00031231006141752005
1782812138937859800,1.67485986328125,-0.00004349916707724333,0.0011575461830943823,-0.0002104571321979165
1782812138947931000,1.684930908203125,0.0021248464472591877,0.00010186899453401566,0.000930441019590944
1782812138958002000,1.695001953125,-0.00043580797500908375,0.0007117014611139894,0.0009957801084965467
1782812138968073000,1.705072998046875,0.0003804509178735316,0.0001905208919197321,-0.0011115792440250516
1782812138978143700,1.715143798828125,-0.001221868908032775,0.0003230766160413623,-0.0004376169526949525
1782812138988214800,1.72521484375,0.0007406146032735705,0.00015423214063048363,0.0010119415819644928
1782812138998284800,1.735284912109375,-0.0009065695339813828,0.0002471294719725847,-0.0005576923140324652
1782812139008355800,1.74535595703125,-0.0022389490623027086,0.00007082824595272541,-0.002063177293166518
1782812139018427000,1.755427001953125,0.00001991988392546773,-0.0017970504704862833,-0.0021301843225955963
1782812139028497700,1.76549755859375,0.0008372440352104604,-0.0011914477217942476,-0.0019911671988666058
1782812139038568700,1.775568603515625,-0.0005912268534302711,0.0002492056228220463,-0.0008968288311734796
1782812139048639700,1.7856396484375,0.0008064000867307186,0.0023594945669174194,-0.0017855257028713822
1782812139058709800,1.795709716796875,0.00021592387929558754,-0.0008658005390316248,0.0003966668155044317
1782812139068780800,1.80578076171875,-0.0016317772679030895,0.00135607470292598,-0.0014707418158650398
1782812139078851600,1.8158515625,0.0009566090884618461,0.0005371529841795564,-0.0011133244261145592
1782812139088922600,1.825922607421875,0.0018977702129632235,-0.0005986851174384356,-0.0002443350094836205
1782812139098993700,1.83599365234375,-0.0010541778756305575,0.0018987938528880477,-0.0004237412940710783
1782812139109064700,1.846064697265625,0.0018044592579826713,-0.001173961441963911,0.0007749474607408047
1782812139119135700,1.8561357421875,0.0005689418176189065,-0.001323841279372573,0.0010074423626065254
1782812139129205800,1.866205810546875,-0.0015133838169276714,0.0026551876217126846,-0.0017372113652527332
1782812139139276800,1.87627685546875,-0.0011466206051409245,0.0005598413990810513,0.001062112278304994
1782812139149347800,1.886347900390625,-0.00043342605931684375,0.0010424061911180615,0.0002634302945807576
1782812139159419000,1.8964189453125,0.000288521870970726,0.0008093334035947919,0.00001769507071003318
1782812139169490000,1.906489990234375,-0.0016899405745789409,0.0022519677877426147,-0.002294195117428899
1782812139179561000,1.91656103515625,0.0008548244368284941,-0.00046007661148905754,0.0017319639446213841
1782812139189631700,1.9266318359375,-0.0013036676682531834,-0.0004403693601489067,-0.0010571647435426712
1782812139199701800,1.93670166015625,-0.003447286318987608,0.0023494609631597996,-0.0004986061248928308
1782812139209772800,1.946772705078125,0.00018633075524121523,-0.0006591121200472116,0.0013054192531853914
1782812139219843800,1.95684375,-0.0021003729198127985,0.0011520234402269125,-0.002234176965430379
1782812139229915000,1.966914794921875,-0.001414076192304492,0.0010686665773391724,-0.0011777009349316359
1782812139239985700,1.976985595703125,-0.0006216042675077915,-0.0021599140018224716,0.0012879720889031887
1782812139250056700,1.987056640625,0.00031476322328671813,0.0013448060490190983,0.0012405680026859045
1782812139260127700,1.997127685546875,0.00021167797967791557,-0.0008186427876353264,0.00042739411583170295
1782812139270197800,2.00719775390625,0.00025934859877452254,-0.00026790122501552105,0.0003850497887469828
1782812139280268800,2.017268798828125,-0.0008803057135082781,0.0008726847590878606,0.0015083028702065349
1782812139290339600,2.027339599609375,0.00019481242634356022,-0.0023172495421022177,0.0006571566918864846
1782812139300410600,2.03741064453125,0.0006139858160167933,0.0001805666834115982,-0.000995374983176589
1782812139310481700,2.047481689453125,0.0012060065055266023,0.0017576905665919185,-0.0025253610219806433
1782812139320552700,2.057552734375,0.0005207526846788824,0.00016521895304322243,0.0018008415354415774
1782812139330623700,2.067623779296875,-0.0014033811166882515,-0.001234538620337844,0.0003811104688793421
1782812139340693800,2.07769384765625,-0.00021143228514119983,0.00014116615056991577,-0.002027945127338171
1782812139350764800,2.087764892578125,0.0007773994002491236,0.00031693477649241686,0.0007105835247784853
1782812139360835800,2.0978359375,0.002612330950796604,-0.0015186285600066185,0.0026463023386895657
1782812139370907000,2.107906982421875,-0.00020742393098771572,0.003213542280718684,-0.0002640003222040832
1782812139380978000,2.11797802734375,0.00029698741855099797,0.0013970350846648216,0.00017125491285696626
1782812139391048700,2.128048583984375,-0.0007347211940214038,0.00044122664257884026,-0.0004098468634765595
1782812139401119700,2.13811962890625,-0.0016601831885054708,0.00013477960601449013,-0.00041983884875662625
1782812139411189800,2.148189697265625,-0.0003589626867324114,-0.0011344829108566046,-0.00030585555941797793
1782812139421260800,2.1582607421875,-0.0002901559928432107,0.00032568967435508966,-0.0012281875824555755
1782812139431331800,2.168331787109375,0.0026268044020980597,-0.0018716845661401749,-0.000598882616031915
1782812139441402600,2.178402587890625,0.0011582906590774655,0.00018356251530349255,-0.0011452831095084548
1782812139451473700,2.1884736328125,0.00011007045395672321,-0.0013163299299776554,-0.0032888613641262054
1782812139461544700,2.198544677734375,-0.0005991508951410651,0.00020287965890020132,0.0005921006668359041
1782812139471615700,2.20861572265625,-0.0009669333230704069,0.0003709250595420599,0.0005809153662994504
1782812139481685800,2.218685791015625,0.000011652125976979733,0.001129236537963152,0.001280088908970356
1782812139491756800,2.2287568359375,-0.00019021553453058004,0.00010658265091478825,0.0006174945156089962
1782812139501828000,2.238828125,-0.00006108102388679981,-0.0003764678258448839,0.0003226916305720806
1782812139511899100,2.248899169921875,-0.001406776369549334,-0.0008984473533928394,0.0006228298880159855
1782812139521970200,2.25897021484375,0.0011554426746442914,0.0008038014639168978,-0.0011433509644120932
1782812139532041000,2.269041015625,-0.0013340802397578955,-0.0011786557734012604,0.0001378957531414926
1782812139542112000,2.279112060546875,0.0013881144113838673,-0.0012132388073951006,-0.002252295147627592
1782812139552182300,2.289182373046875,0.0002520098350942135,0.001968439668416977,-0.002797444351017475
1782812139562253300,2.29925341796875,-0.0008664226625114679,-0.0012878631241619587,-0.0012056919513270259
1782812139572324400,2.309324462890625,-0.000911430106498301,0.00048340531066060066,-0.0010014275321736932
1782812139582395100,2.31939501953125,-0.002085932297632098,-0.0008658540900796652,0.0012493999674916267
1782812139592466200,2.329466064453125,-0.0023128336761146784,0.0031126420944929123,0.0011980009730905294
1782812139602537200,2.339537109375,-0.00032948527950793505,0.0004202033160254359,-0.0023255690466612577
1782812139612607200,2.349607177734375,-0.0007444057846441865,-0.001120701665058732,-0.0005532352952286601
1782812139622678300,2.35967822265625,-0.002438991330564022,-0.0018630975391715765,-0.003169470466673374
1782812139632749000,2.3697490234375,-0.0008522799471393228,0.00022961455397307873,-0.0022386955097317696
1782812139642820000,2.379820068359375,-0.0031554833985865116,0.002283289097249508,-0.00016437750309705734
1782812139652891100,2.38989111328125,-0.0015770279569551349,0.0011471845209598541,-0.0022000977769494057
1782812139662962200,2.399962158203125,-0.0005422080866992474,-0.0013234145008027554,0.0007983214454725385
1782812139673033200,2.410033203125,0.0010570201557129622,-0.0021822841372340918,-0.0008357942570000887
1782812139683103000,2.42010302734375,0.00003509747330099344,0.0004253521328791976,-0.00008167535997927189
1782812139693174000,2.430174072265625,-0.0016291119391098619,0.0006932661635801196,-0.0021309778094291687
1782812139703245000,2.4402451171875,-0.001566900871694088,0.0006435249233618379,-0.002239084802567959
1782812139713316000,2.450316162109375,-0.0025040670298039913,0.0015388797037303448,0.0005138246342539787
1782812139723387100,2.46038720703125,0.0002564106252975762,0.0017315223813056946,0.0006062081083655357
1782812139733458200,2.470458251953125,-0.0022536185570061207,-0.00156094366684556,-0.0008247082587331533
1782812139743529000,2.480529052734375,-0.0005832278402522206,-0.001217119861394167,0.0009090462699532509
1782812139753599200,2.49059912109375,-0.0003225044347345829,0.00025161344092339277,-0.0023410755675286055
1782812139763670300,2.500670166015625,-0.0012153853895142674,0.0009267905261367559,-0.0028071145061403513
1782812139773741300,2.5107412109375,0.001389186130836606,-0.0013587342109531164,0.0005117168184369802
1782812139783812000,2.52081201171875,0.0010275568347424269,-0.002733476459980011,0.0005715430015698075
1782812139793883100,2.530883056640625,-0.0012044383911415935,0.002757695037871599,-0.005459717940539122
1782812139803954200,2.5409541015625,-0.0007849120302125812,-0.00034811836667358875,-0.0001505690161138773
1782812139814025200,2.551025146484375,-0.0005233895499259233,0.00046174891758710146,0.000308559974655509
1782812139824095200,2.56109521484375,0.0012242182856425643,-0.000013805460184812546,-0.00006497895810753107
1782812139834166000,2.571166015625,0.0004907837137579918,-0.0016673621721565723,0.00039974262472242117
1782812139844237000,2.581237060546875,-0.0005917189409956336,0.00042744132224470377,0.0010626628063619137
1782812139854308000,2.59130810546875,0.0005587666528299451,0.00023382948711514473,-0.0007714561652392149
1782812139864379100,2.601379150390625,0.0003217330086044967,-0.0000731924083083868,0.0009106696816161275
1782812139874450200,2.6114501953125,-0.0014284964418038726,0.0013164449483156204,-0.002310690004378557
1782812139884521200,2.621521240234375,0.0004968952853232622,0.0016152982134371996,0.0004852683050557971
1782812139894591000,2.631591064453125,-0.0009417444234713912,0.00016201124526560307,0.0004911272553727031
1782812139904662000,2.641662109375,-0.0013334070099517703,0.003505903063341975,-0.0006504140910692513
1782812139914733000,2.651733154296875,0.001196862431243062,0.0005162385059520602,-0.0004256433167029172
1782812139924804000,2.66180419921875,-0.0011188361095264554,0.001994477119296789,-0.000642857514321804
1782812139934875100,2.671875244140625,0.0014753490686416626,0.0007483840454369783,0.0006618250627070665
1782812139944946200,2.6819462890625,-0.0010752930538728833,0.0014069825410842896,-0.001216210424900055
1782812139955017200,2.692017333984375,-0.0017493391642346978,0.0003566318191587925,-0.0009738628286868334
1782812139965087200,2.702087158203125,-0.0015204113442450762,0.0020249930676072836,0.0004291760269552469
1782812139975158300,2.712158203125,0.0009872211376205087,0.000538682914339006,0.002737604081630707
1782812139985229300,2.722229248046875,-0.0013628136366605759,-0.00034226360730826855,-0.002427915809676051
1782812139995300000,2.732300048828125,0.0005778319318778813,0.0019363368628546596,-0.0004214902292005718
1782812140005371100,2.74237109375,-0.0004768130602315068,0.003018788993358612,-0.0011421552626416087
1782812140015442200,2.752442138671875,-0.0023977512028068304,-0.0014284236822277308,-0.0007669158512726426
1782812140025513200,2.76251318359375,-0.00006669352296739817,-0.0009807059541344643,-0.0010592370526865125
1782812140035583200,2.772583251953125,0.0005889767198823392,0.001150355557911098,-0.0012187603861093521
1782812140045654000,2.782654052734375,-0.0009689471917226911,-0.00036318786442279816,-0.0005136952386237681
1782812140055725000,2.79272509765625,-0.000053352443501353264,-0.001190099399536848,-0.0011730939149856567
1782812140065796000,2.802796142578125,-0.0012164234649389982,0.0010387888178229332,-0.0006322456174530089
1782812140075867100,2.8128671875,0.0010408718371763825,0.0012622280046343803,-0.0028139071073383093
1782812140085938200,2.822938232421875,-0.00021144456695765257,-0.0017270420212298632,0.0003162119537591934
1782812140096009200,2.83300927734375,-0.00013953924644738436,0.0019462560303509235,-0.0002276055165566504
1782812140106079000,2.843078857421875,-0.0025059974286705256,0.0003223420353606343,-0.001828863751143217
1782812140116150000,2.85314990234375,-0.0008862628601491451,0.00003498699516057968,0.00048116216203197837
1782812140126221000,2.863220947265625,-0.0003241269150748849,-0.0011319061741232872,-0.0022813952527940273
1782812140136292000,2.8732919921875,-0.0012817996321246028,0.0003416207619011402,-0.0011423613177612424
1782812140146363100,2.883363037109375,-0.0013411880936473608,0.00244349823333323,-0.002943254541605711
1782812140156434200,2.89343408203125,0.002287901472300291,0.00003893021494150162,0.00009195023449137807
1782812140166505200,2.903505126953125,-0.0006540555041283369,-0.001982372486963868,0.002956537064164877
1782812140176575200,2.9135751953125,0.0004394383868202567,0.0008781286887824535,-0.0016579220537096262
1782812140186646300,2.923646240234375,0.000036866054870188236,-0.0015468725468963385,0.000059141486417502165
1782812140196717300,2.93371728515625,-0.0009269319707527757,0.002341608749702573,0.0010354563128203154
1782812140206788000,2.9437880859375,0.001754551543854177,-0.002175163011997938,0.0005291459383442998
1782812140216859100,2.953859130859375,-0.0011688002850860357,0.0007929297862574458,0.0008061147527769208
1782812140226930200,2.96393017578125,-0.002247229218482971,0.0005952056962996721,-0.0008846544078551233
1782812140237000200,2.974000244140625,0.000725657504517585,-0.0022029774263501167,0.0005435989005491138
1782812140247071200,2.9840712890625,0.0011123369913548231,0.001586915459483862,-0.0024402334820479155
1782812140257142000,2.99414208984375,0.0010500190546736121,0.00028143380768597126,-0.0022175931371748447
1782812140267213000,3.004213134765625,-0.0005692412378266454,-0.0002694115974009037,-0.0024681645445525646
1782812140277284000,3.0142841796875,0.0007189297466538846,0.0006690863519906998,0.001368385273963213
1782812140287355100,3.024355224609375,0.00018648093100637197,0.000079386867582798,0.0005172961391508579
1782812140297426200,3.03442626953125,-0.0016172780888155103,0.0002077510580420494,0.0008794860914349556
1782812140307496200,3.04449609375,-0.0023035272024571896,0.0018929998623207211,-0.0004319889994803816
1782812140317567200,3.054567138671875,-0.00201404164545238,0.001116422121413052,-0.0026461409870535135
1782812140327638300,3.06463818359375,-0.001661802059970796,0.00012000533752143383,-0.0019002140033990145
1782812140337709300,3.074709228515625,0.00008256849832832813,-0.0000594917219132185,0.0013669520849362016
1782812140347780400,3.0847802734375,-0.00018918246496468782,0.0007688261102885008,-0.0017316456651315093
1782812140357851400,3.094851318359375,0.002942961174994707,0.002275109989568591,0.005155554972589016
1782812140367922200,3.104922119140625,-0.001580395270138979,0.00112389144487679,-0.0009647870901972055
1782812140377992200,3.1149921875,-0.0007486902177333832,-0.0012362019624561071,-0.0006017982377670705
1782812140388063200,3.125063232421875,0.0004202036652714014,-0.0000420878641307354,-0.0017970898188650608
1782812140398134300,3.13513427734375,-0.00036196678411215544,-0.00021705753169953823,-0.0014380956999957561
1782812140408205300,3.145205322265625,-0.0012139936443418264,0.0012711624149233103,-0.0008379764040000737
1782812140418276000,3.155276123046875,-0.00003101746551692486,0.0008967219619080424,0.0008920130785554647
1782812140428347100,3.16534716796875,-0.0011659488081932068,0.0007488492410629988,-0.0012717850040644407
1782812140438418200,3.175418212890625,0.0014098606770858169,0.0022684489376842976,-0.0004115838964935392
1782812140448488200,3.18548828125,-0.00048011087346822023,0.00021468359045684338,-0.00046156172174960375
1782812140458559200,3.195559326171875,-0.00026253063697367907,0.00006554671563208103,-0.0006650272407568991
1782812140468630000,3.205630126953125,0.00045641331234946847,0.0000401264987885952,-0.001183090265840292
1782812140478701000,3.215701171875,-0.000993411522358656,0.0014811629662290215,-0.002584711881354451
1782812140488772000,3.225772216796875,-0.0012593367137014866,-0.0014473372139036655,-0.0012114562559872866
1782812140498842600,3.235842529296875,-0.0011221840977668762,-0.0017237733118236065,-0.002254350110888481
1782812140508913700,3.24591357421875,-0.0012715484481304884,0.0021706800907850266,-0.0033847694285213947
1782812140518983700,3.255983642578125,-0.0011644894257187843,0.0011775873135775328,0.0004302089218981564
1782812140529054700,3.2660546875,0.0017702189506962895,-0.0002894280478358269,-0.0025659112725406885
1782812140539125800,3.276125732421875,-0.00023647292982786894,-0.0025536473840475082,-0.0000913020339794457
1782812140549196800,3.28619677734375,-0.00009339756797999144,-0.00014412309974431992,0.0006874476675875485
1782812140559267800,3.296267822265625,0.0010743985185399652,0.001161358319222927,-0.002428450621664524
1782812140569338600,3.306338623046875,-0.0002507577883079648,-0.0012484723702073097,-0.0012954717967659235
1782812140579409700,3.31640966796875,0.0003708238946273923,-0.0000737521331757307,-0.0003037105780094862
1782812140589479700,3.326479736328125,-0.0003476998535916209,0.0005682731280103326,0.0014496655203402042
1782812140599550700,3.33655078125,0.0006973245763219893,0.0006063563050702214,-0.0022899452596902847
1782812140609621800,3.346621826171875,-0.0010702492436394095,-0.0007814948912709951,0.0003645443357527256
1782812140619692500,3.356692626953125,0.001222466235049069,-0.00011916668154299259,-0.0006469242507591844
1782812140629763600,3.366763671875,-0.002695061732083559,0.001111723599024117,0.001220871228724718
1782812140639834600,3.376834716796875,-0.0012681399239227176,0.0014970828779041767,-0.0026758662424981594
1782812140649905700,3.38690576171875,0.0007062348304316401,0.0023511892650276423,0.00027066859183833003
1782812140659975700,3.3969755859375,0.000262285815551877,0.0025477304589003325,0.00016227789456024766
1782812140670046500,3.40704638671875,0.00013184244744479656,0.001577572082169354,0.0005251748953014612
1782812140680117500,3.417117431640625,0.001257826923392713,-0.0015194178558886051,-0.0000948089873418212
1782812140690188500,3.4271884765625,0.0006137591553851962,-0.00041931704618036747,0.0011044398415833712
1782812140700259600,3.437259521484375,0.00022786715999245644,0.0012416965328156948,-0.00005909521132707596
1782812140710330600,3.44733056640625,0.0009766286239027977,0.0011779873166233301,0.001382908201776445
1782812140720401700,3.457401611328125,0.0017321674386039376,0.0007106025004759431,0.0005288324318826199
1782812140730471700,3.4674716796875,0.0023851846344769,-0.0008191519882529974,-0.00036492972867563367
1782812140740542700,3.477542724609375,-0.0015272651799023151,-0.0016985279507935047,-0.00010527152335271239
1782812140750613800,3.48761376953125,0.0002700776094570756,0.0011724678333848715,-0.0010413421550765634
1782812140760684800,3.497684814453125,0.0022408168297261,-0.0020321139600127935,0.0008977054385468364
1782812140770755800,3.507755859375,-0.0009532201802358031,-0.00012530689127743244,-0.001771933282725513
1782812140780826600,3.51782666015625,-0.0013116815825924277,0.0008366269757971168,-0.001804956467822194
1782812140790897700,3.527897705078125,-0.0003573847934603691,0.0015308459987863898,-0.002253768965601921
1782812140800967700,3.5379677734375,-0.001448481809347868,0.00029940030071884394,-0.00021991293760947883
1782812140811038700,3.548038818359375,0.0015259484061971307,-0.0006982274353504181,0.0005271193804219365
1782812140821109800,3.55810986328125,0.0016002506017684937,0.00041577278170734644,-0.0008175106486305594
1782812140831180500,3.5681806640625,0.00022014754358679056,0.002721545984968543,0.0004882111679762602
1782812140841251600,3.57825146484375,0.00020629912614822388,0.0004914149176329374,-0.0018993127159774303
1782812140851322600,3.588322509765625,-0.0017979780677706003,-0.00006288918666541576,-0.00002420565579086542
1782812140861392600,3.598392578125,-0.0006158009637147188,0.001993337646126747,0.0003560937475413084
1782812140871463700,3.608463623046875,-0.00037550111301243305,-0.000551712466403842,0.0008910181932151318
1782812140881534500,3.618534423828125,0.00019148585852235556,-0.0013751618098467588,-0.0030190348625183105
1782812140891605500,3.62860546875,-0.0006847658660262823,0.0008358669001609087,0.0007105000549927354
1782812140901676500,3.638676513671875,0.0015016891993582249,0.0009429259225726128,-0.002327367663383484
1782812140911747600,3.64874755859375,0.001024492783471942,0.00032315473072230816,0.0014406162081286311
1782812140921818600,3.658818603515625,-0.0002112139482051134,0.0009721671231091022,0.00044326228089630604
1782812140931889700,3.6688896484375,0.00006897654384374619,0.0010267554316669703,-0.0005350684514269233
1782812140941959700,3.678959716796875,0.0014122748980298638,0.0022329010535031557,0.0009259417420253158
1782812140952030700,3.68903076171875,-0.0002683799248188734,-0.0009803615976125002,0.00040176650509238243
1782812140962101800,3.699101806640625,0.002547380281612277,0.0013395179994404316,0.0007871260168030858
1782812140972172800,3.7091728515625,-0.00046936539001762867,0.0004566749557852745,0.0018218285404145718
1782812140982243800,3.719243896484375,0.0009064235491678119,-0.0011324333027005196,-0.0006128333043307066
1782812140992314600,3.729314697265625,-0.0016208260785788298,0.000184324337169528,-0.0002075124648399651
1782812141002384600,3.739384521484375,0.0005254153511486948,0.0007678228430449963,0.0001757164136506617
1782812141012455700,3.74945556640625,-0.002029928844422102,-0.0003186068497598171,-0.0008359597995877266
1782812141022526700,3.759526611328125,0.00046678457874804735,-0.0007226085290312767,0.0017718076705932617
1782812141032597800,3.76959765625,-0.0010656577069312334,0.0009075386915355921,0.000279443571344018
1782812141042668500,3.77966845703125,-0.0013564748223870993,0.0032857414335012436,-0.0009482736932113767
1782812141052739600,3.789739501953125,0.0016271205386146903,0.0013474562438204885,-0.002319484483450651
1782812141062810600,3.799810546875,0.000811128003988415,-0.00138547969982028,0.0030284093227237463
1782812141072880600,3.809880615234375,0.00036257720785215497,-0.0010707143228501081,-0.0009894021786749363
1782812141082951400,3.819951416015625,0.001475245924666524,0.0007298489799723029,0.0006244734395295382
1782812141093022500,3.8300224609375,-0.00010992051102221012,-0.001010344596579671,0.0008492193883284926
1782812141103093500,3.840093505859375,0.00003655336331576109,0.00031910534016788006,0.0016737340483814478
1782812141113164500,3.85016455078125,-0.0016515949973836541,0.0006975049618631601,0.0015043162275105715
1782812141123235600,3.860235595703125,0.0007780069136060774,-0.0007075788453221321,0.0004334591212682426
1782812141133306600,3.870306640625,0.0009849879425019026,-0.0011274481657892466,0.0005615408881567419
1782812141143376600,3.880376708984375,0.0015591654228046536,0.0008803090313449502,-0.0032355941366404295
1782812141153447700,3.89044775390625,0.0017644877079874277,0.001269294647499919,0.002007515635341406
1782812141163518700,3.900518798828125,0.0007040169439278543,-0.001122756628319621,0.0016559784999117255
1782812141173589800,3.91058984375,-0.0007600155659019947,0.001768891466781497,-0.0006058371509425342
1782812141183660800,3.920660888671875,0.0009380158735439181,0.000021325191482901573,-0.000650045636575669
1782812141193731600,3.930731689453125,0.0014734528958797455,-0.0012948350049555302,-0.0018759864615276456
1782812141203802600,3.940802734375,0.001784776453860104,-0.002347849076613784,-0.0007633178029209375
1782812141213872600,3.95087255859375,-0.0022751670330762863,0.001728688832372427,-0.0009089481900446117
1782812141223943700,3.960943603515625,-0.00013398542068898678,0.0003057618159800768,-0.0011528937611728907
1782812141234014700,3.9710146484375,-0.0018868125043809414,-0.0003044884651899338,0.0016956317704170942
1782812141244085500,3.98108544921875,0.00043999141780659556,0.001649472862482071,-0.0009938945295289159
1782812141254156500,3.991156494140625,0.0012929952936246991,-0.00015317369252443314,0.001798211014829576
1782812141264227600,4.0012275390625,0.0027822349220514297,-0.001128156902268529,-0.0022311515640467405
1782812141274298600,4.011298583984375,-0.0018276222981512547,0.0025054626166820526,0.002766049699857831
1782812141284368600,4.02136865234375,0.0008608386851847172,0.0010284733725711703,0.0017202263697981834
1782812141294439700,4.031439697265625,-0.000377242686226964,-0.0001278528943657875,0.0001797600998543203
1782812141304510700,4.0415107421875,0.0009117271983996034,-0.0003068172372877598,-0.0031132386066019535
1782812141314581800,4.051581787109375,0.0005227701622061431,-0.00044307392090559006,0.0008231583633460104
1782812141324652500,4.061652587890625,0.0006498029688373208,-0.00006463867612183094,0.000854317273478955
1782812141334723600,4.0717236328125,0.0013170696329325438,-0.0013308238703757524,0.0005701804766431451
1782812141344794600,4.081794677734375,0.0006920257001183927,0.0006974395364522934,-0.0000676466734148562
1782812141354864600,4.09186474609375,-0.0001729588257148862,0.00033823330886662006,-0.0001996691571548581
1782812141364935700,4.101935791015625,0.002370626199990511,-0.0020865746773779392,-0.001023651217110455
1782812141375006700,4.1120068359375,0.0011110830819234252,0.0001125456765294075,-0.0003456342383287847
1782812141385077800,4.122077880859375,-0.00019865960348397493,0.0027517382986843586,-0.0016132988967001438
1782812141395148800,4.132148681640625,-0.0009468337520956993,0.0003901536110788584,0.0009914552792906761
1782812141405219600,4.142219482421875,0.0013346963096410036,0.001361674745567143,-0.00003599229967221618
1782812141415290600,4.15229052734375,0.00030831294134259224,-0.0006535244174301624,-0.0012111412361264229
1782812141425360600,4.162360595703125,0.000059041078202426434,0.00040721253026276827,-0.002234061248600483
1782812141435431700,4.172431640625,-0.00037960067857056856,0.0008730513509362936,-0.0007436033338308334
1782812141445502700,4.182502685546875,0.00015462934970855713,0.0026083672419190407,-0.0023952960036695004
1782812141455573500,4.192573486328125,0.0023220558650791645,0.0007303311722353101,0.00011092500062659383
1782812141465644500,4.20264453125,-0.0007624172139912844,0.00018598116002976894,-0.0014073430793359876
1782812141475715600,4.212715576171875,-0.0010884146904572845,-0.0002733569126576185,-0.00020687136566266418
1782812141485786600,4.22278662109375,0.00048684515058994293,0.0024246915709227324,-0.0006811803323216736
1782812141495856600,4.232856689453125,0.0008417804492637515,0.0005913979839533567,-0.0018527901265770197
1782812141505928200,4.24292822265625,0.0004729326465167105,-0.0009732090402394533,0.00017840287182480097
1782812141515999000,4.2529990234375,0.0005028015002608299,0.00161191844381392,0.0016210381872951984
1782812141526070000,4.263070068359375,0.0008711167029105127,0.000749054248444736,-0.001228011678904295
1782812141536141000,4.27314111328125,0.001150796888396144,-0.0018649585545063019,0.0021885731257498264
1782812141546212000,4.283212158203125,-0.0018300792435184121,0.0010581270325928926,0.00040824979078024626
1782812141556282400,4.293282470703125,-0.0006257621571421623,0.0007969330763444304,0.00021338072838261724
1782812141566353200,4.303353271484375,-0.0008500004187226295,-0.0007596844807267189,0.00014999747509136796
1782812141576424200,4.313424072265625,0.0003474292461760342,0.00037113542202860117,0.0005034588975831866
1782812141586495200,4.3234951171875,-0.0008137088734656572,0.0009945813799276948,-0.003026294754818082
1782812141596566300,4.333566162109375,-0.0006729490123689175,0.00042403803672641516,0.0011816055048257113
1782812141606637300,4.34363720703125,-0.0018117167055606842,-0.0008771824650466442,-0.00014677928993478417
1782812141616708400,4.353708251953125,0.0007176541839726269,-0.00008829007856547832,-0.0007169730379246175
1782812141626778000,4.363778076171875,0.0002191103994846344,0.001668064622208476,-0.0003523863269947469
1782812141636849200,4.37384912109375,0.0001504246611148119,0.0006529118400067091,0.00053420290350914
1782812141646920200,4.383920166015625,-0.0011776937171816826,-0.0003175439778715372,-0.0009084314224310219
1782812141656991200,4.3939912109375,0.002256650011986494,0.0011473504127934575,0.002601071959361434
1782812141667062300,4.404062255859375,-0.001066442346200347,-0.002715830923989415,-0.0009143006755039096
1782812141677133000,4.414133056640625,0.002034730277955532,-0.0005221592728048563,0.001440546358935535
1782812141687204000,4.4242041015625,-0.0005794285098090768,0.0003577490570023656,0.0019233775092288852
1782812141697274000,4.434274169921875,-0.0010783022735267878,0.0002339573111385107,-0.0004914231249131262
1782812141707345200,4.44434521484375,-0.0006809586193412542,-0.0009591388516128063,0.0007330983644351363
1782812141717416000,4.454416015625,0.0017274291021749377,-0.0009948040824383497,0.0007941254880279303
1782812141727487000,4.464487060546875,0.0010967925190925598,0.0004891091957688332,-0.00020748938550241292
1782812141737558000,4.47455810546875,0.0020177739206701517,-0.0017855882178992033,0.003129946067929268
1782812141747629000,4.484629150390625,0.0015565145295113325,0.001402482041157782,0.0005914209177717566
1782812141757700000,4.4947001953125,0.0006374879740178585,0.0005506995366886258,0.0017804686212912202
1782812141767770000,4.50477001953125,0.0028476454317569733,0.00006121047772467136,0.001157821505330503
1782812141777841200,4.514841064453125,-0.00035474065225571394,-0.0009863486047834158,-0.0008825361728668213
1782812141787912200,4.524912109375,0.00031451182439923286,0.0009460409637540579,-0.0007405896903946996
1782812141797983200,4.534983154296875,-0.00026312831323593855,0.0006612349534407258,-0.000347674562362954
1782812141808054300,4.54505419921875,0.0013699219562113285,0.0003744125133380294,-0.00189310684800148
1782812141818125300,4.555125244140625,-0.0005100812995806336,-0.00025772699154913425,0.00012571527622640133
1782812141828196000,4.565196044921875,0.00036929454654455185,-0.0024303339887410402,0.00009455630788579583
1782812141838266000,4.57526611328125,0.0012601694324985147,-0.0010363010223954916,0.00020339887123554945
1782812141848337200,4.585337158203125,0.0018322165124118328,0.0015104799531400204,0.0019128818530589342
1782812141858408200,4.595408203125,0.0004467123653739691,0.0027444344013929367,-0.0010012401035055518
1782812141868479200,4.605479248046875,-0.0008001797832548618,0.00036862853448837996,-0.00009230326395481825
1782812141878550000,4.615550048828125,0.0012744751293212175,-0.0006526070646941662,-0.00006756256334483624
1782812141888621000,4.62562109375,0.0013152215396985412,-0.0005420858506113291,-0.002629523631185293
1782812141898692000,4.635692138671875,0.0003441758453845978,-0.0001986469142138958,0.00043985992670059204
1782812141908762000,4.64576220703125,-0.0008406646084040403,0.0001180027611553669,-0.0019290217896923423
1782812141918833200,4.655833251953125,0.00016551068983972073,-0.0003440398722887039,0.0024490240029990673
1782812141928904000,4.665904052734375,0.000761526171118021,0.0002599651925265789,-0.00047912151785567403
1782812141938975000,4.67597509765625,-0.000322126317769289,0.00003196694888174534,-0.0016912544379010797
1782812141949046000,4.6860458984375,0.0010776312556117773,-0.0004146450664848089,-0.0010454378789290786
1782812141959117000,4.696116943359375,-0.00107726757414639,-0.002185351215302944,-0.001210555899888277
1782812141969188000,4.70618798828125,0.0005648374790325761,-0.00108466693200171,-0.0002574105456005782
1782812141979258000,4.716258056640625,-0.0023557585664093494,0.0008193171815946698,-0.0005086238961666822
1782812141989329200,4.7263291015625,0.002295452170073986,0.0004909494891762733,-0.00021594250574707985
1782812141999400200,4.736400146484375,-0.0006060574669390917,-0.0011695895809680223,-0.0009095489513128996
1782812142009471200,4.74647119140625,-0.0012627928517758846,3.371387720108032e-7,-0.0011638808064162731
1782812142019542300,4.756542236328125,-0.0015281967353075743,0.0004061139188706875,-0.002018987899646163
1782812142029613300,4.76661328125,0.0026580262929201126,0.0019896295852959156,0.0005925078876316547
1782812142039684000,4.77668408203125,0.002121192403137684,-0.00041826232336461544,0.0008700743783265352
1782812142049754000,4.786754150390625,-0.0004913684679195285,-0.00032505160197615623,0.0008980375714600086
1782812142059825200,4.7968251953125,0.0007847215165384114,-0.00032726628705859184,-0.0008512503118254244
1782812142069896200,4.806896240234375,0.0008675458375364542,0.0004583662375807762,0.00001694017555564642
1782812142079967200,4.81696728515625,0.0019015669822692871,-0.001216166652739048,-0.001105455681681633
1782812142090038000,4.8270380859375,0.00016199005767703056,0.000493848929181695,0.0006690085283480585
1782812142100109000,4.837109130859375,-0.0007652975618839264,-0.0006762242410331964,-0.00034348625922575593
1782812142110179000,4.847178955078125,0.0014722902560606599,0.0005296551389619708,0.0002738344483077526
1782812142120250000,4.85725,0.0002150678774341941,-0.00059680943377316,0.001821015845052898
1782812142130321200,4.867321044921875,0.000907756038941443,0.0016277289250865579,0.0008678705198690295
1782812142140392200,4.87739208984375,0.0015362862031906843,-0.000402562553063035,-0.0020210701040923595
1782812142150463200,4.887463134765625,0.0009160359622910619,0.001795876887626946,-0.001091360580176115
1782812142160534000,4.897533935546875,-0.0009344647405669093,-0.0000032833777368068695,-0.0018955249106511474
1782812142170605000,4.90760498046875,0.0006218865746632218,0.001682763802818954,0.00040304940193891525
1782812142180676000,4.917676025390625,0.001075790380127728,0.0014889747835695744,0.0011274648131802678
1782812142190746000,4.92774609375,0.0007708584889769554,-0.0001438092440366745,0.0010331888915970922
1782812142200817200,4.937817138671875,-0.0005221355240792036,0.00023500178940594196,-0.0010012147249653935
1782812142210888200,4.94788818359375,0.0008171682129614055,0.0017897551879286766,-0.0003330275940243155
1782812142220959200,4.957959228515625,0.0016595172928646207,-0.001290764193981886,0.00042951584327965975
1782812142231030300,4.9680302734375,0.0007774783298373222,0.0012664028909057379,-0.001024836441501975
1782812142241101300,4.978101318359375,-0.001733893994241953,0.0008863559924066067,-0.0008057194063439965
1782812142251171000,4.988171142578125,-0.0010332162491977215,0.0010581299429759383,-0.0007580487872473896
1782812142261242000,4.9982421875,0.001249515451490879,0.0006293008336797357,-0.002226755954325199
1782812142271313200,5.008313232421875,-0.00003359548281878233,-0.00010839477181434631,0.001775442622601986
1782812142281384200,5.01838427734375,-0.0011106159072369337,0.0011882777325809002,0.0011898004449903965
1782812142291455200,5.028455322265625,0.0003280236851423979,0.0007211592746898532,0.0017839516513049603
1782812142301526000,5.038526123046875,-0.00016306934412568808,-0.0004554388578981161,-0.0018917357083410025
1782812142311597000,5.04859716796875,0.0008625140180811286,-0.0014503956772387028,-0.0015742869582027197
1782812142321667000,5.0586669921875,-0.0016008976381272078,0.0015966345090419054,-0.0004891082062385976
1782812142331738000,5.068738037109375,-0.00008422753307968378,-0.00040632882155478,0.0008193028043024242
1782812142341809200,5.07880908203125,0.0019170769955962896,-0.002362044295296073,-0.0006538763409480453
1782812142351880200,5.088880126953125,0.00015193386934697628,-0.00141875259578228,0.00011391297448426485
1782812142361951200,5.098951171875,0.0011187578784301877,-0.0013781816232949495,0.0009500727755948901
1782812142372022300,5.109022216796875,0.0005589614156633615,0.0008586073527112603,-0.001117871841415763
1782812142382093300,5.11909326171875,0.0003299552481621504,0.0020879260264337063,-0.00028291388298384845
1782812142392163300,5.129163330078125,-0.0003363676369190216,0.0017092244233936071,0.0008313526632264256
1782812142402234000,5.139234130859375,0.001295845489948988,0.0003452928503975272,0.0008864874253049493
1782812142412305200,5.14930517578125,0.0006734647322446108,0.0011279958998784423,-0.00021579492022283375
1782812142422376200,5.159376220703125,-0.0009388870093971491,0.00007924414239823818,-0.000622619001660496
1782812142432447200,5.169447265625,-0.0008454101625829935,-0.001321844756603241,0.00008098816033452749
1782812142442518300,5.179518310546875,0.0010755839757621288,0.00036049855407327414,-0.0009971365798264742
1782812142452589300,5.18958935546875,-0.00019128178246319294,0.0036620195023715496,0.00032245973125100136
1782812142462659000,5.1996591796875,-0.0011901066172868013,0.00009187334217131138,0.0008587968186475337
1782812142472730000,5.209730224609375,-0.0008577441330999136,-0.0022999118082225323,-0.0007337735150940716
1782812142482801200,5.21980126953125,-0.0013482607901096344,-0.0004713372327387333,-0.00009202549699693918
1782812142492872200,5.2298720703125,-0.0008880665991455317,-0.0002910410985350609,0.0009031977388076484
1782812142502942500,5.2399423828125,0.0008968425681814551,-0.0002617056015878916,0.0009080478921532631
1782812142513013200,5.25001318359375,0.0023879464715719223,0.0000272474717348814,0.0004965895786881447
1782812142523084300,5.260084228515625,0.0002235090360045433,-0.0015867901965975761,-0.002613243879750371
1782812142533154600,5.270154541015625,0.001549763255752623,0.00012189382687211037,-0.0003666011616587639
1782812142543225600,5.2802255859375,-0.0006437333067879081,-0.0002705478109419346,-0.0006214018212631345
1782812142553296600,5.290296630859375,0.00046014704275876284,0.0004988395376130939,0.0012121845502406359
1782812142563367400,5.300367431640625,-0.001176175195723772,0.001420608488842845,-0.00009090339881367981
1782812142573436400,5.3104365234375,0.000033166143111884594,0.0007462961366400123,-0.001806511776521802
1782812142583507500,5.320507568359375,0.00011695665307343006,-0.0015781773254275322,0.000583003624342382
1782812142593578200,5.330578125,-0.001117684761993587,0.0003169281408190727,0.0009020502911880612
1782812142603649300,5.340649169921875,-0.00011954759247601032,0.0003415473038330674,0.0004768843646161258
1782812142613720300,5.35072021484375,0.0004916478064842522,-0.0004909569397568703,0.00045531278010457754
1782812142623790600,5.36079052734375,0.0007661849376745522,-0.0002635163255035877,-0.0025085052475333214
1782812142633861600,5.370861572265625,-0.0011523562716320157,0.0006829712074249983,0.000782895484007895
1782812142643932400,5.380932373046875,0.000571328797377646,0.0003897604765370488,0.000017203536117449403
1782812142654003500,5.39100341796875,0.0012483042664825916,0.00042145210318267345,0.0012798082316294312
1782812142664074500,5.401074462890625,-0.0005647179204970598,-0.0006519840098917484,0.001074605854228139
1782812142674145500,5.4111455078125,-0.00038735137786716223,0.0013986499980092049,-0.001733697485178709
1782812142684216600,5.421216552734375,0.00016359775327146053,0.0010460189078003168,0.0003717913932632655
1782812142694286300,5.431286376953125,0.0003220558864995837,0.00010246108286082745,0.0013097567716613412
1782812142704357400,5.441357421875,0.00034426210913807154,0.0012729170266538858,0.0009302543476223946
1782812142714428400,5.451428466796875,0.00030245049856603146,0.0009687839774414897,0.0011843199608847499
1782812142724499500,5.46149951171875,0.000054446165449917316,0.0034504057839512825,0.00018639955669641495
1782812142734570500,5.471570556640625,0.00018094631377607584,-0.00044127157889306545,0.0016418170416727662
1782812142744641500,5.4816416015625,-0.0011450228048488498,-0.0007070326246321201,0.0007739979773759842
1782812142754712300,5.49171240234375,-0.0002954743104055524,0.0005473162746056914,-0.0004593119665514678
1782812142764782300,5.5017822265625,-0.0013113687746226788,0.0015144641511142254,0.000348483124980703
1782812142774853400,5.511853271484375,0.00143328495323658,0.0013163250405341387,0.0007942963857203722
1782812142784924400,5.52192431640625,0.0012295478954911232,-0.0020497210789471865,0.0017231673700734973
1782812142794995500,5.531995361328125,0.0010330065852031112,0.00044033455196768045,-0.0019980676006525755
1782812142805066200,5.542066162109375,-0.0017282008193433285,0.0065607428550720215,0.004346826579421759
1782812142815137300,5.55213720703125,0.0015682599041610956,0.0028480300679802895,-0.0028461050242185593
1782812142825208300,5.562208251953125,-0.0015112801920622587,0.027512671425938606,0.0014963677385821939
1782812142835278600,5.572278564453125,0.0012440261198207736,0.0034579355269670486,-0.0005345589597709477
1782812142845349600,5.582349609375,-0.00017516082152724266,-0.0033181756734848022,-0.0006668624700978398
1782812142855420400,5.59242041015625,-0.00025638716761022806,-0.002005503512918949,0.001388298929668963
1782812142865491500,5.602491455078125,-0.0005024163983762264,-0.003951095975935459,-0.0005281579215079546
1782812142875562500,5.6125625,0.0018936296692118049,-0.013437808491289616,0.00016692708595655859
1782812142885633500,5.622633544921875,-0.0006429397035390139,-0.013133936561644077,-0.0006683057290501893
1782812142895704600,5.63270458984375,0.0009000959107652307,0.004555844701826572,-0.0010105218971148133
1782812142905774300,5.6427744140625,0.0004299646243453026,0.0016689009498804808,-0.001706739654764533
1782812142915845400,5.652845458984375,0.002230794169008732,-0.0015042554587125778,-0.000635349890217185
