time,seconds_elapsed,z,y,x
1782811425535151400,0.0811513671875,0.12903711199760437,0.0039847674779593945,-0.07898492366075516
1782811425545222400,0.091222412109375,0.10637202858924866,0.0811847448348999,-0.011861017905175686
1782811425555294500,0.10129443359375,0.08321569114923477,0.12025188654661179,0.05961186811327934
1782811425565365500,0.111365478515625,0.07066527754068375,0.11493728309869766,0.11816253513097763
1782811425575437600,0.1214375,0.0627729743719101,0.09393338859081268,0.1450004130601883
1782811425585508400,0.13150830078125,0.06218601018190384,0.07551497220993042,0.15423385798931122
1782811425595579400,0.141579345703125,0.06118257716298103,0.07820384204387665,0.14782997965812683
1782811425605651500,0.1516513671875,0.061849698424339294,0.09451543539762497,0.13270296156406403
1782811425615722500,0.161722412109375,0.06563844531774521,0.1114952489733696,0.11018127202987671
1782811425625793500,0.17179345703125,0.05979680269956589,0.12250661849975586,0.07840176671743393
1782811425635865300,0.181865234375,0.06320618838071823,0.13199938833713531,0.04005521908402443
1782811425645936400,0.191936279296875,0.07821283489465714,0.13598348200321198,0.00880861934274435
1782811425656008400,0.202008544921875,0.08510171622037888,0.11936604976654053,-0.017419403418898582
1782811425666079500,0.21207958984375,0.07809094339609146,0.10112498700618744,-0.03703678026795387
1782811425676150500,0.222150634765625,0.06653235107660294,0.11496438086032867,-0.03697439655661583
1782811425686222600,0.23222265625,0.0694812685251236,0.134568989276886,-0.03047255426645279
1782811425696293400,0.24229345703125,0.07637903094291687,0.11887414753437042,-0.029293252155184746
1782811425706364400,0.252364501953125,0.0717906728386879,0.05795860290527344,-0.031105266883969307
1782811425716436500,0.2624365234375,0.04433874040842056,0.006603782996535301,-0.013668017461895943
1782811425726507500,0.272507568359375,0.01801845245063305,0.032073456794023514,0.026752643287181854
1782811425736579300,0.282579345703125,0.011219458654522896,0.10084914416074753,0.07035606354475021
1782811425746650400,0.292650390625,0.018142879009246826,0.14739878475666046,0.09250424057245255
1782811425756721400,0.302721435546875,0.03351845592260361,0.15720464289188385,0.08276469260454178
1782811425766793500,0.31279345703125,0.04480732977390289,0.11921066045761108,0.052782028913497925
1782811425776864500,0.322864501953125,0.051254063844680786,0.0734100192785263,0.02180556394159794
1782811425786935600,0.332935546875,0.05296647548675537,0.05545125529170036,-0.0006262423703446984
1782811425797007600,0.343007568359375,0.05000710487365723,0.07585691660642624,-0.015948539599776268
1782811425807078400,0.353078369140625,0.055122241377830505,0.11101703345775604,-0.023229354992508888
1782811425817150500,0.363150390625,0.06730589270591736,0.1292956918478012,-0.03057294711470604
1782811425827221500,0.373221435546875,0.07370653748512268,0.12100554257631302,-0.04109296575188637
1782811425837292500,0.38329248046875,0.07038892060518265,0.09558556973934174,-0.051749419420957565
1782811425847364400,0.3933642578125,0.05791999399662018,0.07744970917701721,-0.05540833994746208
1782811425857435400,0.403435302734375,0.05544038489460945,0.09519843012094498,-0.06194904446601868
1782811425867506400,0.41350634765625,0.0603664331138134,0.11047431826591492,-0.06994305551052094
1782811425877578500,0.42357861328125,0.07340779155492783,0.10111819952726364,-0.07928746938705444
1782811425887649500,0.4336494140625,0.07966434955596924,0.08710917085409164,-0.08512964099645615
1782811425897721600,0.4437216796875,0.08262185007333755,0.08273284137248993,-0.09161469340324402
1782811425907792600,0.453792724609375,0.08077894151210785,0.08529480546712875,-0.10332701355218887
1782811425917863400,0.463863525390625,0.07362023741006851,0.07598060369491577,-0.12712590396404266
1782811425927935500,0.473935546875,0.06811495125293732,0.05490115284919739,-0.14840643107891083
1782811425938006500,0.484006591796875,0.06187576800584793,0.02294137328863144,-0.15835325419902802
1782811425948077600,0.49407763671875,0.04400702193379402,-0.006388286128640175,-0.15516039729118347
1782811425958149400,0.5041494140625,0.0066561708226799965,-0.024666231125593185,-0.14180366694927216
1782811425968220400,0.514220458984375,-0.035329096019268036,-0.03309273719787598,-0.13027217984199524
1782811425978291500,0.52429150390625,-0.06545062363147736,-0.021739907562732697,-0.1207931861281395
1782811425988363500,0.534363525390625,-0.0781261995434761,-0.0009091952815651894,-0.11371344327926636
1782811425998434600,0.5444345703125,-0.08144722878932953,0.03363838791847229,-0.11051371693611145
1782811426008506600,0.554506591796875,-0.07087793946266174,0.062064435333013535,-0.11158617585897446
1782811426018577700,0.56457763671875,-0.05036252364516258,0.08113599568605423,-0.10927152633666992
1782811426028648400,0.5746484375,-0.02784443460404873,0.09976986795663834,-0.11700721085071564
1782811426038720300,0.58472021484375,-0.014312542043626308,0.11057692766189575,-0.12131568044424057
1782811426048791300,0.594791259765625,-0.007557167671620846,0.1180657371878624,-0.11674968898296356
1782811426058862300,0.6048623046875,-0.0031976201571524143,0.1278977245092392,-0.10037974268198013
1782811426068934400,0.614934326171875,-0.007197155617177486,0.1524808257818222,-0.07406265288591385
1782811426079005400,0.62500537109375,-0.005455553065985441,0.16730962693691254,-0.050311505794525146
1782811426089077500,0.635077392578125,-0.0045548719353973866,0.16781535744667053,-0.0311290230602026
1782811426099148500,0.6451484375,-0.010024376213550568,0.1518060564994812,-0.01984766311943531
1782811426109219600,0.655219482421875,-0.024285336956381798,0.14804033935070038,-0.01241850946098566
1782811426119291600,0.665291748046875,-0.04383127763867378,0.16183659434318542,-0.004857729654759169
1782811426129362700,0.67536279296875,-0.05766453593969345,0.1941724270582199,-0.00004965884727425873
1782811426139433500,0.68543359375,-0.06578224897384644,0.2211848497390747,0.0006090747192502022
1782811426149505300,0.69550537109375,-0.06366024166345596,0.2267066389322281,0.001825340325012803
1782811426159576300,0.705576416015625,-0.05267389491200447,0.2350073754787445,0.0012301723472774029
1782811426169647400,0.7156474609375,-0.04206865280866623,0.22612068057060242,-0.0069902073591947556
1782811426179719400,0.725719482421875,-0.0389774851500988,0.20978933572769165,-0.014661254361271858
1782811426189790500,0.73579052734375,-0.0377977080643177,0.19136585295200348,-0.022283488884568214
1782811426199862000,0.745862060546875,-0.046326782554388046,0.18752267956733704,-0.031412459909915924
1782811426209933000,0.75593310546875,-0.05030288174748421,0.18548829853534698,-0.0291660837829113
1782811426220004000,0.766004150390625,-0.05096109211444855,0.17565838992595673,-0.02804187685251236
1782811426230076200,0.776076171875,-0.05049770325422287,0.1491016149520874,-0.023017823696136475
1782811426240147200,0.786147216796875,-0.04712977260351181,0.1406722068786621,-0.0096275070682168
1782811426250218200,0.79621826171875,-0.04187455400824547,0.1456182301044464,0.006990085355937481
1782811426260290000,0.8062900390625,-0.023204093798995018,0.14315637946128845,0.018701860681176186
1782811426270361000,0.816361083984375,-0.01066699717193842,0.1468278020620346,0.03700736537575722
1782811426280433200,0.82643310546875,-0.0030775524210184813,0.1315326690673828,0.060878459364175797
1782811426290504000,0.83650390625,0.001676722546108067,0.09778697043657303,0.09404467046260834
1782811426300575000,0.846574951171875,0.004035725258290768,0.07169675081968307,0.13701729476451874
1782811426310647000,0.85664697265625,-0.0004346572095528245,0.05988909304141998,0.17719002068042755
1782811426320718000,0.866718017578125,0.001599474810063839,0.02895880863070488,0.19112958014011383
1782811426330789000,0.8767890625,0.008520231582224369,0.002574073150753975,0.18817533552646637
1782811426340861200,0.886861083984375,0.017780613154172897,-0.00992286205291748,0.16018277406692505
1782811426350932200,0.89693212890625,0.030582427978515625,-0.0090703833848238,0.11831388622522354
1782811426361004000,0.907004150390625,0.04132739081978798,0.008855057880282402,0.06348958611488342
1782811426371075000,0.917074951171875,0.04879995435476303,0.026375461369752884,-0.003942989744246006
1782811426381146000,0.92714599609375,0.056773703545331955,0.029071517288684845,-0.07606282085180283
1782811426391218200,0.93721826171875,0.06824660301208496,0.010833659209311008,-0.143751323223114
1782811426401289000,0.9472890625,0.07848519831895828,-0.009221533313393593,-0.20250484347343445
1782811426411360000,0.957360107421875,0.0744670182466507,-0.02714167721569538,-0.24643555283546448
1782811426421432000,0.96743212890625,0.07123207300901413,-0.045876216143369675,-0.26256951689720154
1782811426431503000,0.977503173828125,0.06855932623147964,-0.06599906086921692,-0.2537558078765869
1782811426441574100,0.98757421875,0.06953249126672745,-0.08079064637422562,-0.225898876786232
1782811426451646200,0.997646240234375,0.0703548789024353,-0.07329970598220825,-0.18159613013267517
1782811426461717200,1.00771728515625,0.06358213722705841,-0.04066140949726105,-0.13244964182376862
1782811426471789000,1.0177890625,0.05189777910709381,-0.024424118921160698,-0.10109784454107285
1782811426481860000,1.027860107421875,0.04713420569896698,-0.014802253805100918,-0.09236205369234085
1782811426491931100,1.03793115234375,0.05284295603632927,0.004488353617489338,-0.0935484915971756
1782811426502003200,1.048003173828125,0.05956112965941429,0.03138797730207443,-0.11251083016395569
1782811426512074000,1.058073974609375,0.0666121169924736,0.062384240329265594,-0.13508032262325287
1782811426522145000,1.06814501953125,0.07313887774944305,0.09428688883781433,-0.15427936613559723
1782811426532217000,1.078217041015625,0.08658198267221451,0.09652288258075714,-0.16682764887809753
1782811426542288100,1.0882880859375,0.09149576723575592,0.08338616043329239,-0.1665768176317215
1782811426552359200,1.098359130859375,0.10262671858072281,0.0824710950255394,-0.14836852252483368
1782811426562431000,1.108430908203125,0.12298336625099182,0.10417146235704422,-0.11392807960510254
1782811426572502000,1.118501953125,0.14662984013557434,0.13451391458511353,-0.07282324880361557
1782811426582574000,1.128573974609375,0.17068520188331604,0.1569487452507019,-0.03141440078616142
1782811426592645000,1.13864501953125,0.18698161840438843,0.16376137733459473,0.0038264100439846516
1782811426602716200,1.148716064453125,0.2044907957315445,0.16777534782886505,0.027435410767793655
1782811426612788200,1.158788330078125,0.22472123801708221,0.16147564351558685,0.03709656000137329
1782811426622859000,1.16885888671875,0.2309264838695526,0.14600756764411926,0.02497001364827156
1782811426632930000,1.178929931640625,0.236111119389534,0.10249818116426468,-0.020975373685359955
1782811426643002000,1.189002197265625,0.23429974913597107,0.026609500870108604,-0.08085150271654129
1782811426653073200,1.1990732421875,0.23191913962364197,-0.043615128844976425,-0.14164693653583527
1782811426663145000,1.20914501953125,0.2320541888475418,-0.0883859395980835,-0.19696015119552612
1782811426673216000,1.219216064453125,0.23827053606510162,-0.10561605542898178,-0.2335706353187561
1782811426683287000,1.229287109375,0.24469183385372162,-0.11700309067964554,-0.25058481097221375
1782811426693359000,1.239359130859375,0.2504892647266388,-0.12861154973506927,-0.24063311517238617
1782811426703430100,1.24943017578125,0.25964295864105225,-0.14490899443626404,-0.2099902331829071
1782811426713501000,1.2595009765625,0.2635311782360077,-0.1557120978832245,-0.1613505333662033
1782811426723573200,1.2695732421875,0.26646140217781067,-0.13951721787452698,-0.10567743331193924
1782811426733644000,1.27964404296875,0.26706913113594055,-0.11354582011699677,-0.05314818397164345
1782811426743715000,1.289715087890625,0.2612137794494629,-0.10130250453948975,-0.024582328274846077
1782811426753787100,1.299787109375,0.257283478975296,-0.09845105558633804,-0.012530991807579994
1782811426763858200,1.309858154296875,0.25169500708580017,-0.10029799491167068,-0.009203312918543816
1782811426773930000,1.319929931640625,0.24216248095035553,-0.11122600734233856,-0.021489540114998817
1782811426784001000,1.3300009765625,0.23277899622917175,-0.12774795293807983,-0.04289095848798752
1782811426794072000,1.340072021484375,0.22912007570266724,-0.14977921545505524,-0.06260553747415543
1782811426804144000,1.35014404296875,0.21574679017066956,-0.18239474296569824,-0.08056304603815079
1782811426814215200,1.360215087890625,0.20002613961696625,-0.21301336586475372,-0.09820862114429474
1782811426824286000,1.370285888671875,0.18227677047252655,-0.21159568428993225,-0.10582897067070007
1782811426834358000,1.38035791015625,0.16739635169506073,-0.1915745735168457,-0.09685011953115463
1782811426844429000,1.390428955078125,0.14812323451042175,-0.17124882340431213,-0.07954724133014679
1782811426854500000,1.4005,0.12878096103668213,-0.137429878115654,-0.05241122841835022
1782811426864572200,1.410572265625,0.10795565694570541,-0.1108386442065239,-0.027140067890286446
1782811426874643200,1.420643310546875,0.08419093489646912,-0.09557446837425232,-0.011592799797654152
1782811426884715000,1.430715087890625,0.06253073364496231,-0.09158997982740402,-0.010014445520937443
1782811426894786000,1.4407861328125,0.04691023379564285,-0.0944366306066513,-0.0196529570966959
1782811426904857000,1.450857177734375,0.030500192195177078,-0.10919877141714096,-0.03518510237336159
1782811426914929200,1.46092919921875,0.010306775569915771,-0.12594686448574066,-0.05174677073955536
1782811426925000200,1.471000244140625,-0.010632720775902271,-0.1371133029460907,-0.06725017726421356
1782811426935071000,1.481071044921875,-0.03152655437588692,-0.14398744702339172,-0.08424141258001328
1782811426945143000,1.49114306640625,-0.03951507434248924,-0.15619748830795288,-0.09741339832544327
1782811426955214000,1.501214111328125,-0.046099741011857986,-0.18310287594795227,-0.10942532122135162
1782811426965286100,1.5112861328125,-0.055113788694143295,-0.20085299015045166,-0.11346344649791718
1782811426975357000,1.52135693359375,-0.05773966386914253,-0.1950792521238327,-0.10856456309556961
1782811426985428000,1.531427978515625,-0.059078656136989594,-0.18334388732910156,-0.0949086993932724
1782811426995500000,1.5415,-0.061251528561115265,-0.16979877650737762,-0.07462579756975174
1782811427005571000,1.551571044921875,-0.06649386137723923,-0.15778842568397522,-0.06067861616611481
1782811427015642000,1.56164208984375,-0.0704188346862793,-0.15281523764133453,-0.03830699995160103
1782811427025714200,1.571714111328125,-0.08866018056869507,-0.15284962952136993,-0.02084771916270256
1782811427035785200,1.58178515625,-0.11532854288816452,-0.16683974862098694,-0.00757585559040308
1782811427045856000,1.59185595703125,-0.1575632095336914,-0.18799729645252228,-0.009697151370346546
1782811427055928000,1.601927978515625,-0.21642252802848816,-0.21881753206253052,-0.039500586688518524
1782811427065999000,1.6119990234375,-0.27802610397338867,-0.2407698929309845,-0.07602309435606003
1782811427076071000,1.62207080078125,-0.33037614822387695,-0.22086329758167267,-0.11062474548816681
1782811427086142000,1.632141845703125,-0.3717057406902313,-0.17718863487243652,-0.1285114288330078
1782811427096213000,1.642212890625,-0.3939090669155121,-0.11901987344026566,-0.11772855371236801
1782811427106285000,1.65228515625,-0.38945356011390686,-0.03224783390760422,-0.07515410333871841
1782811427116356000,1.662356201171875,-0.3461598753929138,0.06370612233877182,0.003393438644707203
1782811427126427100,1.67242724609375,-0.2882278859615326,0.13868744671344757,0.10905449092388153
1782811427136499200,1.682499267578125,-0.22158411145210266,0.1776609569787979,0.23131781816482544
1782811427146570200,1.6925703125,-0.15050698816776276,0.20951832830905914,0.356769323348999
1782811427156641000,1.70264111328125,-0.08740658313035965,0.22105488181114197,0.46530699729919434
1782811427166713000,1.712713134765625,-0.05222410708665848,0.2202533483505249,0.551796555519104
1782811427176784100,1.7227841796875,-0.04109742119908333,0.19625161588191986,0.6021342873573303
1782811427186856000,1.73285595703125,-0.06269458681344986,0.16070400178432465,0.6042690873146057
1782811427196927200,1.74292724609375,-0.10816886276006699,0.11463983356952667,0.5619770288467407
1782811427206998300,1.752998291015625,-0.16462306678295135,0.06347983330488205,0.5001143217086792
1782811427217070300,1.7630703125,-0.22838819026947021,0.037459153681993484,0.4424605667591095
1782811427227141400,1.773141357421875,-0.3044007122516632,0.04561769589781761,0.39245980978012085
1782811427237212400,1.78321240234375,-0.37753191590309143,0.1033044308423996,0.35906538367271423
1782811427247284500,1.793284423828125,-0.4454427659511566,0.1920733004808426,0.3383495807647705
1782811427257355500,1.80335546875,-0.5053836107254028,0.2801930606365204,0.3335191309452057
1782811427267426300,1.81342626953125,-0.5605353713035583,0.3646997809410095,0.3468458354473114
1782811427277498400,1.823498291015625,-0.6078158020973206,0.41849854588508606,0.37193387746810913
1782811427287569400,1.8335693359375,-0.6583887338638306,0.4483738839626312,0.3989681303501129
1782811427297641200,1.84364111328125,-0.699312150478363,0.4642980098724365,0.4161719083786011
1782811427307712300,1.853712158203125,-0.7260942459106445,0.4585956335067749,0.41814368963241577
1782811427317783300,1.863783203125,-0.7397739887237549,0.42370155453681946,0.39212486147880554
1782811427327855400,1.87385546875,-0.7422113418579102,0.36503076553344727,0.33245113492012024
1782811427337926400,1.883926513671875,-0.7492985129356384,0.265222430229187,0.24335402250289917
1782811427347997400,1.89399755859375,-0.7613881826400757,0.13791674375534058,0.12000095099210739
1782811427358069500,1.904069580078125,-0.7627711892127991,-0.009589629247784615,-0.004284513648599386
1782811427368140500,1.914140625,-0.7416086792945862,-0.13371971249580383,-0.1208566352725029
1782811427378211300,1.92421142578125,-0.6884508728981018,-0.22210364043712616,-0.2214530110359192
1782811427388283100,1.934283203125,-0.6036064028739929,-0.2758410573005676,-0.2963680326938629
1782811427398354200,1.944354248046875,-0.5164233446121216,-0.30370280146598816,-0.34699898958206177
1782811427408426200,1.95442626953125,-0.4264218509197235,-0.2835155725479126,-0.3486381769180298
1782811427418497300,1.964497314453125,-0.34517866373062134,-0.2226564735174179,-0.30833178758621216
1782811427428568300,1.974568359375,-0.2940588593482971,-0.1471845507621765,-0.23806791007518768
1782811427438640400,1.984640380859375,-0.2720848619937897,-0.060036323964595795,-0.14857132732868195
1782811427448711400,1.99471142578125,-0.2657358944416046,0.03371246159076691,-0.06070082634687424
1782811427458782500,2.004782470703125,-0.2654235064983368,0.11995226889848709,0.00629631569609046
1782811427468854500,2.0148544921875,-0.25993838906288147,0.19157923758029938,0.03700694814324379
1782811427478925300,2.02492529296875,-0.25921106338500977,0.22276751697063446,0.013741575181484222
1782811427488996400,2.034996337890625,-0.2798411548137665,0.22544775903224945,-0.06205151602625847
1782811427499068200,2.045068115234375,-0.3088107705116272,0.2088693082332611,-0.1625799983739853
1782811427509139200,2.05513916015625,-0.32379621267318726,0.18851205706596375,-0.26554960012435913
1782811427519211300,2.065211181640625,-0.32325106859207153,0.14927808940410614,-0.3566291928291321
1782811427529282300,2.0752822265625,-0.30972740054130554,0.0981793999671936,-0.41959089040756226
1782811427539353300,2.085353271484375,-0.2871965169906616,0.05120071396231651,-0.448640376329422
1782811427549425400,2.09542529296875,-0.26157987117767334,0.004571008495986462,-0.4424213469028473
1782811427559496400,2.105496337890625,-0.230746328830719,-0.020905589684844017,-0.394512414932251
1782811427569567500,2.1155673828125,-0.18574365973472595,-0.02012859471142292,-0.32398340106010437
1782811427579639600,2.1256396484375,-0.13242396712303162,0.006439099553972483,-0.2444172352552414
1782811427589710300,2.13571044921875,-0.05782906711101532,0.06306452304124832,-0.15119574964046478
1782811427599781400,2.145781494140625,0.052685193717479706,0.1625245362520218,-0.046166274696588516
1782811427609853200,2.155853271484375,0.1819383203983307,0.2731948494911194,0.07220438122749329
1782811427619924200,2.16592431640625,0.2928035855293274,0.3748607635498047,0.18795761466026306
1782811427629996300,2.175996337890625,0.37680062651634216,0.43806424736976624,0.2943483591079712
1782811427640067300,2.1860673828125,0.4240773320198059,0.4509904086589813,0.39111003279685974
1782811427650138400,2.196138427734375,0.45250481367111206,0.43752607703208923,0.47501781582832336
1782811427660210400,2.20621044921875,0.46157634258270264,0.39778879284858704,0.544428825378418
1782811427670281500,2.216281494140625,0.4477458894252777,0.35957521200180054,0.5932469964027405
1782811427680352500,2.2263525390625,0.4321059584617615,0.32406383752822876,0.6194948554039001
1782811427690424300,2.23642431640625,0.3950308859348297,0.28837382793426514,0.6093549132347107
1782811427700495400,2.246495361328125,0.3668772876262665,0.23971626162528992,0.5795509219169617
1782811427710566400,2.25656640625,0.3582954406738281,0.20635837316513062,0.5386936664581299
1782811427720638200,2.26663818359375,0.3513757586479187,0.1969694197177887,0.4979816675186157
1782811427730709200,2.276709228515625,0.35202616453170776,0.22208338975906372,0.4540306329727173
1782811427740780300,2.2867802734375,0.3707716166973114,0.2280065268278122,0.3913637697696686
1782811427750852400,2.296852294921875,0.4020664393901825,0.13659892976284027,0.3222608268260956
1782811427760923400,2.30692333984375,0.44652125239372253,-0.06819815933704376,0.25569137930870056
1782811427770995500,2.316995361328125,0.47859814763069153,-0.2924025058746338,0.20742285251617432
1782811427781066500,2.32706640625,0.4799608886241913,-0.45859280228614807,0.18683423101902008
1782811427791137500,2.337137451171875,0.44141170382499695,-0.5376834273338318,0.18437917530536652
1782811427801209300,2.347209228515625,0.387795090675354,-0.5206447839736938,0.1992955356836319
1782811427811280100,2.357280029296875,0.3469710052013397,-0.42637622356414795,0.24564437568187714
1782811427821351200,2.36735107421875,0.31410521268844604,-0.28792646527290344,0.3214446008205414
1782811427831423200,2.37742333984375,0.2778136730194092,-0.10944656282663345,0.4030598998069763
1782811427841494300,2.387494384765625,0.2440975457429886,0.05557941272854805,0.4724259376525879
1782811427851565300,2.3975654296875,0.2134229987859726,0.16935056447982788,0.5041834115982056
1782811427861637400,2.407637451171875,0.18636661767959595,0.2124394327402115,0.505194365978241
1782811427871708400,2.41770849609375,0.17452161014080048,0.21458780765533447,0.4880962669849396
1782811427881780500,2.427780517578125,0.1738789826631546,0.21540406346321106,0.4672525227069855
1782811427891851500,2.4378515625,0.1721351593732834,0.23656201362609863,0.4369122385978699
1782811427901922300,2.44792236328125,0.1564648598432541,0.28406959772109985,0.4053138494491577
1782811427911994400,2.457994384765625,0.13437901437282562,0.3601784110069275,0.36862456798553467
1782811427922065200,2.468065185546875,0.12097478657960892,0.41990965604782104,0.321342796087265
1782811427932136200,2.47813623046875,0.12306810170412064,0.44233188033103943,0.2632526755332947
1782811427942208300,2.488208251953125,0.14285032451152802,0.4277622699737549,0.1959010809659958
1782811427952279300,2.498279296875,0.1847083568572998,0.41131848096847534,0.13476406037807465
1782811427962350300,2.508350341796875,0.2483360767364502,0.3901447653770447,0.08477918058633804
1782811427972422400,2.51842236328125,0.31574690341949463,0.34950369596481323,0.05083736777305603
1782811427982493400,2.528493408203125,0.38603144884109497,0.2865905165672302,0.014988290145993233
1782811427992565500,2.5385654296875,0.45481669902801514,0.21482056379318237,-0.02875557355582714
1782811428002636500,2.548636474609375,0.5245316028594971,0.1410382241010666,-0.08702100813388824
1782811428012707300,2.558707275390625,0.5776170492172241,0.08195661008358002,-0.16146372258663177
1782811428022779100,2.568779052734375,0.606538712978363,0.006360919214785099,-0.2425689697265625
1782811428032850200,2.57885009765625,0.6084900498390198,-0.09753112494945526,-0.3286218047142029
1782811428042921200,2.588921142578125,0.5902154445648193,-0.2052282989025116,-0.41287118196487427
1782811428052993300,2.5989931640625,0.576119065284729,-0.2898590862751007,-0.471927672624588
1782811428063064300,2.609064208984375,0.5568945407867432,-0.3598663806915283,-0.5031529664993286
1782811428073135400,2.61913525390625,0.5325031876564026,-0.3922213613986969,-0.497244268655777
1782811428083207400,2.62920751953125,0.5150219798088074,-0.3638267517089844,-0.45679405331611633
1782811428093278500,2.639278564453125,0.5048695206642151,-0.2778624892234802,-0.3840433955192566
1782811428103349500,2.649349609375,0.49341902136802673,-0.16786620020866394,-0.2986752390861511
1782811428113421600,2.659421630859375,0.47235825657844543,-0.07332150638103485,-0.21275950968265533
1782811428123492400,2.669492431640625,0.43469157814979553,-0.020060952752828598,-0.15027588605880737
1782811428133564200,2.679564208984375,0.3907414674758911,-0.005784924142062664,-0.11003023386001587
1782811428143635200,2.68963525390625,0.34316036105155945,-0.01831882633268833,-0.09528324007987976
1782811428153706200,2.699706298828125,0.30521178245544434,-0.05938069894909859,-0.11288850754499435
1782811428163778300,2.7097783203125,0.2733393609523773,-0.10354655981063843,-0.15169157087802887
1782811428173849300,2.719849365234375,0.26815858483314514,-0.10716895759105682,-0.19179636240005493
1782811428183920400,2.72992041015625,0.29016587138175964,-0.053915854543447495,-0.2242102324962616
1782811428193992400,2.739992431640625,0.3350179195404053,0.002370245289057493,-0.2590532600879669
1782811428204063000,2.75006298828125,0.38134628534317017,0.02546384558081627,-0.2754093408584595
1782811428214134000,2.760134033203125,0.42125293612480164,0.031891919672489166,-0.26378196477890015
1782811428224206000,2.7702060546875,0.4507056474685669,0.033569976687431335,-0.21670126914978027
1782811428234276900,2.78027685546875,0.46052107214927673,0.03984111547470093,-0.15493126213550568
1782811428244348700,2.7903486328125,0.4604851305484772,0.03455820307135582,-0.09970954805612564
1782811428254419700,2.800419677734375,0.4524993896484375,0.017254728823900223,-0.06917989999055862
1782811428264490800,2.81049072265625,0.4353278577327728,-0.01784626580774784,-0.07212935388088226
1782811428274562800,2.820562744140625,0.41627854108810425,-0.07111021876335144,-0.10527590662240982
1782811428284633900,2.8306337890625,0.39231356978416443,-0.14016704261302948,-0.151337668299675
1782811428294705000,2.840704833984375,0.3745516240596771,-0.20855304598808289,-0.19528044760227203
1782811428304777000,2.85077685546875,0.3515283465385437,-0.2934359908103943,-0.23968519270420074
1782811428314848000,2.860847900390625,0.31716394424438477,-0.38241830468177795,-0.27509796619415283
1782811428324919000,2.8709189453125,0.2762516736984253,-0.468940407037735,-0.31115368008613586
1782811428334991000,2.8809912109375,0.23115161061286926,-0.5349211096763611,-0.34369462728500366
1782811428345062000,2.891061767578125,0.18078617751598358,-0.5691030621528625,-0.36714401841163635
1782811428355133700,2.9011337890625,0.11985398083925247,-0.5686671733856201,-0.38034406304359436
1782811428365204700,2.911204833984375,0.05618739128112793,-0.5568190813064575,-0.37868252396583557
1782811428375275800,2.92127587890625,-0.012867923825979233,-0.5026398301124573,-0.36209651827812195
1782811428385347800,2.931347900390625,-0.10978621244430542,-0.4233628511428833,-0.3757111430168152
1782811428395419000,2.9414189453125,-0.24642983078956604,-0.35380110144615173,-0.42303189635276794
1782811428405490000,2.951489990234375,-0.4104464650154114,-0.30274349451065063,-0.4953383207321167
1782811428415562000,2.96156201171875,-0.5711604952812195,-0.21829946339130402,-0.555382251739502
1782811428425633000,2.971633056640625,-0.7011169195175171,-0.09355593472719193,-0.5770604014396667
1782811428435704000,2.9817041015625,-0.7809291481971741,0.04025568813085556,-0.5498731136322021
1782811428445776000,2.99177587890625,-0.7987344861030579,0.15803319215774536,-0.46597471833229065
1782811428455847000,3.001846923828125,-0.7487451434135437,0.24281035363674164,-0.34112292528152466
1782811428465918700,3.011918701171875,-0.6442347168922424,0.28377243876457214,-0.18472319841384888
1782811428475989800,3.02198974609375,-0.516359269618988,0.2777990996837616,-0.02425321191549301
1782811428486060800,3.032060791015625,-0.41325709223747253,0.2129276692867279,0.11539816111326218
1782811428496132900,3.0421328125,-0.3557448983192444,0.10148032009601593,0.21909967064857483
1782811428506204000,3.052203857421875,-0.34374120831489563,-0.018228767439723015,0.27670490741729736
1782811428516275000,3.06227490234375,-0.376777708530426,-0.11687606573104858,0.2798650562763214
1782811428526347000,3.072346923828125,-0.43305668234825134,-0.16011273860931396,0.2412811815738678
1782811428536418000,3.08241796875,-0.498605877161026,-0.1408815234899521,0.17885108292102814
1782811428546489000,3.092489013671875,-0.5620794296264648,-0.13035139441490173,0.1111503466963768
1782811428556561000,3.102560791015625,-0.6283286809921265,-0.14894166588783264,0.05358856916427612
1782811428566631700,3.112631591796875,-0.6921268701553345,-0.1607740968465805,0.032609254121780396
1782811428576702700,3.12270263671875,-0.7428838610649109,-0.13432985544204712,0.0445052869617939
1782811428586774800,3.13277490234375,-0.7744143605232239,-0.08813732117414474,0.07482590526342392
1782811428596845800,3.142845703125,-0.7985795736312866,-0.0349992997944355,0.10161509364843369
1782811428606918000,3.15291796875,-0.8089938759803772,0.026359932497143745,0.12388896942138672
1782811428616989000,3.162989013671875,-0.8220683932304382,0.07928325235843658,0.13096025586128235
1782811428627060000,3.17306005859375,-0.8499269485473633,0.11835475265979767,0.1363065391778946
1782811428637132000,3.183132080078125,-0.8662580251693726,0.16750487685203552,0.1386430561542511
1782811428647203000,3.193203125,-0.8731932044029236,0.21479249000549316,0.14522425830364227
1782811428657273900,3.20327392578125,-0.8640613555908203,0.24994614720344543,0.16650786995887756
1782811428667346000,3.213345947265625,-0.8272356986999512,0.2737199068069458,0.19806259870529175
1782811428677416700,3.223416748046875,-0.7665122151374817,0.25721463561058044,0.22936351597309113
1782811428687487700,3.23348779296875,-0.6885982155799866,0.21508261561393738,0.25418177247047424
1782811428697559800,3.243559814453125,-0.6009463667869568,0.1618180125951767,0.2729246914386749
1782811428707630800,3.253630859375,-0.5157203674316406,0.10647538304328918,0.2814185917377472
1782811428717702000,3.263701904296875,-0.43031203746795654,0.06415383517742157,0.28768813610076904
1782811428727774000,3.27377392578125,-0.36124056577682495,0.025283396244049072,0.28902503848075867
1782811428737845000,3.283844970703125,-0.31246963143348694,-0.012690425850450993,0.2881864011287689
1782811428747917000,3.2939169921875,-0.2816595137119293,-0.04737889766693115,0.2768160402774811
1782811428757988000,3.303988037109375,-0.26008662581443787,-0.08363942801952362,0.2534770667552948
1782811428768059000,3.314058837890625,-0.24053741991519928,-0.12967270612716675,0.22576530277729034
1782811428778130700,3.324130615234375,-0.24036996066570282,-0.1649850457906723,0.18857215344905853
1782811428788201700,3.33420166015625,-0.24199502170085907,-0.18149423599243164,0.15420007705688477
1782811428798272800,3.344272705078125,-0.25492918491363525,-0.20191358029842377,0.11124332994222641
1782811428808344800,3.3543447265625,-0.2838748097419739,-0.2439904659986496,0.0619032122194767
1782811428818415900,3.364415771484375,-0.3228120505809784,-0.27620095014572144,0.019678764045238495
1782811428828487000,3.37448681640625,-0.34989747405052185,-0.30389782786369324,-0.01305707823485136
1782811428838559000,3.38455908203125,-0.3636738955974579,-0.33727961778640747,-0.04576757922768593
1782811428848630000,3.394630126953125,-0.3683975338935852,-0.3694330155849457,-0.07594039291143417
1782811428858701000,3.404701171875,-0.3692663311958313,-0.3748571574687958,-0.10860781371593475
1782811428868772900,3.41477294921875,-0.36859679222106934,-0.347900927066803,-0.12688827514648438
1782811428878844000,3.424843994140625,-0.36883407831192017,-0.2877533435821533,-0.13866031169891357
1782811428888915700,3.434915771484375,-0.37375375628471375,-0.214177668094635,-0.14215756952762604
1782811428898986800,3.44498681640625,-0.37899675965309143,-0.15334908664226532,-0.13881713151931763
1782811428909057800,3.455057861328125,-0.370437890291214,-0.10745695233345032,-0.13031873106956482
1782811428919129900,3.4651298828125,-0.3499352037906647,-0.06639740616083145,-0.11166374385356903
1782811428929201000,3.475200927734375,-0.32105961441993713,-0.0489497072994709,-0.0902244970202446
1782811428939272000,3.48527197265625,-0.29256030917167664,-0.04600721597671509,-0.07080347090959549
1782811428949344000,3.495343994140625,-0.2550440728664398,-0.04947145655751228,-0.053345922380685806
1782811428959415000,3.5054150390625,-0.2051841914653778,-0.050543490797281265,-0.037528231739997864
1782811428969486000,3.515486083984375,-0.13977110385894775,-0.05891886726021767,-0.026227906346321106
1782811428979558000,3.525557861328125,-0.06879014521837234,-0.05141666904091835,-0.005051830783486366
1782811428989628700,3.535628662109375,-0.016799651086330414,0.013653677888214588,0.033466264605522156
1782811428999700700,3.54570068359375,0.013722257688641548,0.09817320853471756,0.06919659674167633
1782811429009771800,3.555771728515625,0.03462487459182739,0.09533454477787018,0.06760535389184952
1782811429019842800,3.5658427734375,0.06737381964921951,0.0008828865829855204,0.04055088385939598
1782811429029915000,3.575914794921875,0.10153685510158539,-0.11513293534517288,0.008309589698910713
1782811429039986000,3.58598583984375,0.1142110824584961,-0.1883917599916458,-0.018814831972122192
1782811429050057000,3.596056884765625,0.1132185235619545,-0.22386586666107178,-0.038866035640239716
1782811429060129000,3.60612890625,0.11106720566749573,-0.23138761520385742,-0.04480494186282158
1782811429070200000,3.616199951171875,0.10445297509431839,-0.22446978092193604,-0.048633769154548645
1782811429080270800,3.626270751953125,0.10705988854169846,-0.18848122656345367,-0.04185470938682556
1782811429090343000,3.636343017578125,0.1192459836602211,-0.13597939908504486,-0.034528620541095734
1782811429100413700,3.64641357421875,0.13063475489616394,-0.07663341611623764,-0.02942829765379429
1782811429110484700,3.656484619140625,0.14783424139022827,-0.03237354755401611,-0.016465893015265465
1782811429120556800,3.666556884765625,0.17921721935272217,-0.017268970608711243,-0.0009057909483090043
1782811429130627800,3.6766279296875,0.21964240074157715,-0.0278390571475029,0.03068249486386776
1782811429140700000,3.686699951171875,0.2619461119174957,-0.03410235419869423,0.0916353091597557
1782811429150771000,3.69677099609375,0.3085905909538269,0.00846907403320074,0.1815928816795349
1782811429160842000,3.706842041015625,0.35571062564849854,0.09901149570941925,0.28017398715019226
1782811429170914000,3.7169140625,0.4038107693195343,0.18441668152809143,0.35921820998191833
1782811429180985000,3.726985107421875,0.45698288083076477,0.22253133356571198,0.3999939262866974
1782811429191056000,3.737055908203125,0.514094352722168,0.19763396680355072,0.4083389639854431
1782811429201128400,3.74712841796875,0.5683533549308777,0.12995442748069763,0.39730486273765564
1782811429211199500,3.757199462890625,0.6174976825714111,0.05056718736886978,0.3743116557598114
1782811429221270500,3.7672705078125,0.6557592153549194,-0.024773411452770233,0.34535935521125793
1782811429231342600,3.777342529296875,0.6809955835342407,-0.1063162088394165,0.30509689450263977
1782811429241413400,3.787413330078125,0.69612056016922,-0.17984114587306976,0.2627553343772888
1782811429251484400,3.797484375,0.7041665315628052,-0.23875640332698822,0.2244606614112854
1782811429261556500,3.807556396484375,0.7018114924430847,-0.2874932885169983,0.19017060101032257
1782811429271627500,3.81762744140625,0.6921215653419495,-0.3316980302333832,0.16879527270793915
1782811429281699300,3.82769921875,0.6762526035308838,-0.3579255938529968,0.1584918051958084
1782811429291770400,3.837770263671875,0.6524157524108887,-0.3437402546405792,0.1635534018278122
1782811429301841400,3.84784130859375,0.6229820847511292,-0.2909491956233978,0.15971918404102325
1782811429311913500,3.85791357421875,0.5824713706970215,-0.21312974393367767,0.1497802585363388
1782811429321984500,3.867984619140625,0.5397962331771851,-0.11627966910600662,0.14252401888370514
1782811429332055600,3.8780556640625,0.49616941809654236,-0.016704607754945755,0.13685575127601624
1782811429342127600,3.888127685546875,0.4639872908592224,0.056108422577381134,0.13918949663639069
1782811429352198400,3.898198486328125,0.4357825517654419,0.09529683738946915,0.13649196922779083
1782811429362269400,3.90826953125,0.41275179386138916,0.10493604093790054,0.12693963944911957
1782811429372341500,3.918341552734375,0.3881241977214813,0.11353378742933273,0.10332886129617691
1782811429382412500,3.92841259765625,0.3789006769657135,0.12317690253257751,0.07402638345956802
1782811429392483600,3.938483642578125,0.37312906980514526,0.12268182635307312,0.026356598362326622
1782811429402555400,3.948555419921875,0.3672088384628296,0.10978718101978302,-0.03289071470499039
1782811429412626400,3.95862646484375,0.36257651448249817,0.0947248637676239,-0.0836457684636116
1782811429422697500,3.968697509765625,0.355465829372406,0.072787806391716,-0.12842577695846558
1782811429432769500,3.97876953125,0.3521621823310852,0.03320177644491196,-0.1628391444683075
1782811429442840600,3.988840576171875,0.3381793200969696,-0.014810357242822647,-0.18789854645729065
1782811429452912600,3.99891259765625,0.3125482499599457,-0.05825530365109444,-0.20311957597732544
1782811429462983400,4.0089833984375,0.2812618911266327,-0.08290743827819824,-0.2036212533712387
1782811429473054500,4.019054443359375,0.2551698386669159,-0.0859927088022232,-0.19815592467784882
1782811429483126500,4.02912646484375,0.23910851776599884,-0.08766018599271774,-0.18396741151809692
1782811429493197600,4.039197509765625,0.2234925478696823,-0.07680647075176239,-0.17206600308418274
1782811429503268600,4.0492685546875,0.21589098870754242,-0.05934363603591919,-0.1594388335943222
1782811429513340400,4.05934033203125,0.2085081785917282,-0.06852088868618011,-0.14661279320716858
1782811429523411500,4.069411376953125,0.1926092505455017,-0.09115604311227798,-0.13280647993087769
1782811429533482500,4.079482421875,0.16520878672599792,-0.12789729237556458,-0.1311901956796646
1782811429543554600,4.089554443359375,0.1361219733953476,-0.17710500955581665,-0.13790686428546906
1782811429553625600,4.09962548828125,0.10249610990285873,-0.22774076461791992,-0.15582194924354553
1782811429563696400,4.1096962890625,0.06245700642466545,-0.28502240777015686,-0.20054157078266144
1782811429573768400,4.1197685546875,0.01533396728336811,-0.3389418125152588,-0.2590399980545044
1782811429583839500,4.129839599609375,-0.03812532126903534,-0.3639519214630127,-0.3213425576686859
1782811429593911300,4.139911376953125,-0.09201624989509583,-0.35313868522644043,-0.3726816475391388
1782811429603982300,4.149982421875,-0.15436778962612152,-0.29744458198547363,-0.4074099659919739
1782811429614053400,4.160053466796875,-0.22967612743377686,-0.20246773958206177,-0.42781856656074524
1782811429624125400,4.17012548828125,-0.31000787019729614,-0.10113795846700668,-0.45316946506500244
1782811429634196500,4.180196533203125,-0.4141417443752289,-0.041461050510406494,-0.5025767087936401
1782811429644267500,4.190267578125,-0.5236361622810364,-0.017249789088964462,-0.5609671473503113
1782811429654339600,4.200339599609375,-0.6279559135437012,0.014163261279463768,-0.6100910305976868
1782811429664410400,4.210410400390625,-0.7181158065795898,0.09119127690792084,-0.6197361350059509
1782811429674481400,4.2204814453125,-0.7760435342788696,0.1883806735277176,-0.5874000191688538
1782811429684553500,4.230553466796875,-0.7895350456237793,0.2991793751716614,-0.5196821093559265
1782811429694624500,4.24062451171875,-0.7488440275192261,0.4246600568294525,-0.42742863297462463
1782811429704695600,4.250695556640625,-0.6596166491508484,0.5323117971420288,-0.32744014263153076
1782811429714767400,4.260767333984375,-0.5571171641349792,0.5883074402809143,-0.22549407184123993
1782811429724838400,4.27083837890625,-0.46927955746650696,0.6073575019836426,-0.12628786265850067
1782811429734910500,4.280910400390625,-0.4098220765590668,0.5881537199020386,-0.03511082008481026
1782811429744981500,4.2909814453125,-0.38168737292289734,0.5182797908782959,0.0404028445482254
1782811429755052500,4.301052490234375,-0.37402281165122986,0.42930519580841064,0.08481531590223312
1782811429765124600,4.31112451171875,-0.37879863381385803,0.34458866715431213,0.108806312084198
1782811429775195400,4.3211953125,-0.3885500431060791,0.2910556495189667,0.11675930768251419
1782811429785266400,4.331266357421875,-0.398659348487854,0.26008370518684387,0.11437127739191055
1782811429795338500,4.34133837890625,-0.39369627833366394,0.2389499396085739,0.11170092225074768
1782811429805409500,4.351409423828125,-0.38401907682418823,0.21564806997776031,0.11757487058639526
1782811429815480600,4.36148046875,-0.3767393231391907,0.18331435322761536,0.13337275385856628
1782811429825552400,4.371552490234375,-0.3819740414619446,0.16004924476146698,0.15579655766487122
1782811429835623400,4.38162353515625,-0.390460729598999,0.14572517573833466,0.18063239753246307
1782811429845694500,4.391694580078125,-0.40774524211883545,0.1268150508403778,0.18835607171058655
1782811429855766500,4.4017666015625,-0.4217310845851898,0.09224509447813034,0.17446023225784302
1782811429865837600,4.411837646484375,-0.42890027165412903,0.05344317853450775,0.13411256670951843
1782811429875908400,4.421908447265625,-0.4355853199958801,0.026442719623446465,0.08336629718542099
1782811429885980400,4.43198046875,-0.44172656536102295,0.011771632358431816,0.03218620643019676
1782811429896051500,4.442051513671875,-0.4448404312133789,-0.0027187515515834093,-0.012918839231133461
1782811429906123500,4.45212353515625,-0.4502624571323395,-0.016458358615636826,-0.0370216965675354
1782811429916194600,4.462194580078125,-0.43234550952911377,-0.006085080094635487,-0.028246846050024033
1782811429926265600,4.472265625,-0.3952804505825043,0.03704090788960457,0.0016609288286417723
1782811429936337400,4.48233740234375,-0.35518547892570496,0.09927818179130554,0.042959634214639664
1782811429946408400,4.492408447265625,-0.30771130323410034,0.15217839181423187,0.0819719061255455
1782811429956479500,4.5024794921875,-0.26571857929229736,0.18263323605060577,0.10808446258306503
1782811429966551600,4.512551513671875,-0.22874946892261505,0.19369275867938995,0.12940819561481476
1782811429976622600,4.52262255859375,-0.19756172597408295,0.17039276659488678,0.1373595893383026
1782811429986693400,4.532693359375,-0.1795753389596939,0.11931369453668594,0.13196149468421936
1782811429996765400,4.542765380859375,-0.16931338608264923,0.06104133650660515,0.11816392838954926
1782811430006836500,4.55283642578125,-0.16332539916038513,-0.0033196003641933203,0.0953245535492897
1782811430016907500,4.562907470703125,-0.16715796291828156,-0.043280865997076035,0.060336750000715256
1782811430026979300,4.572979248046875,-0.16951827704906464,-0.05712103843688965,0.0210502278059721
1782811430037050400,4.58305029296875,-0.16991747915744781,-0.051744382828474045,-0.010499175637960434
1782811430047121400,4.593121337890625,-0.1743573546409607,-0.05010828375816345,-0.032998669892549515
1782811430057193500,4.603193359375,-0.1936168074607849,-0.05360128730535507,-0.048096928745508194
1782811430067264500,4.613264404296875,-0.21965579688549042,-0.07689588516950607,-0.050579771399497986
1782811430077336600,4.623336669921875,-0.2508760392665863,-0.11796395480632782,-0.04953501373529434
1782811430087407400,4.633407470703125,-0.2726171910762787,-0.1546144187450409,-0.04634029418230057
1782811430097478400,4.643478515625,-0.28397929668426514,-0.1713651716709137,-0.037771839648485184
1782811430107550500,4.653550537109375,-0.2891630530357361,-0.18515123426914215,-0.0311286523938179
1782811430117621500,4.66362158203125,-0.2888519763946533,-0.18091493844985962,-0.02474372461438179
1782811430127692500,4.673692626953125,-0.2737663686275482,-0.16827280819416046,-0.011015706695616245
1782811430137764400,4.683764404296875,-0.24179698526859283,-0.1641494333744049,-0.00042910868069157004
1782811430147835400,4.69383544921875,-0.21456408500671387,-0.15519210696220398,0.0056918105110526085
1782811430157906400,4.703906494140625,-0.19285346567630768,-0.1361965835094452,0.017968716099858284
1782811430167978500,4.713978515625,-0.1796928495168686,-0.09493555873632431,0.04069574549794197
1782811430178049500,4.724049560546875,-0.17741291224956512,-0.03549140319228172,0.07639675587415695
1782811430188120300,4.734120361328125,-0.17481987178325653,0.030858077108860016,0.10373854637145996
1782811430198192400,4.7441923828125,-0.1661832481622696,0.09653562307357788,0.1207825094461441
1782811430208262700,4.7542626953125,-0.15323840081691742,0.16863156855106354,0.1072329431772232
1782811430218333400,4.76433349609375,-0.14978721737861633,0.20461300015449524,0.04486943036317825
1782811430228405500,4.774405517578125,-0.13038446009159088,0.17577248811721802,-0.07722873240709305
1782811430238476500,4.7844765625,-0.060516972094774246,0.09894933551549911,-0.33508768677711487
1782811430248548600,4.794548583984375,0.0004732036031782627,0.048585571348667145,-0.7107779383659363
1782811430258619600,4.80461962890625,-0.00676580099388957,0.08036880195140839,-1.0927379131317139
1782811430268690700,4.814690673828125,-0.06219695135951042,0.1433696299791336,-1.4335944652557373
1782811430278762500,4.824762451171875,-0.08498002588748932,0.09300392866134644,-1.5408799648284912
1782811430288833500,4.83483349609375,-0.136190727353096,-0.08258013427257538,-1.2458986043930054
1782811430298904600,4.844904541015625,-0.21396994590759277,-0.22951260209083557,-0.693390429019928
1782811430308976600,4.8549765625,-0.2758166790008545,-0.316301554441452,-0.08957229554653168
1782811430319047700,4.865047607421875,-0.31435075402259827,-0.34348630905151367,0.4141465127468109
1782811430329118500,4.875118408203125,-0.3220885097980499,-0.35347047448158264,0.7207049131393433
1782811430339190500,4.8851904296875,-0.28623542189598083,-0.3557296395301819,0.8368903398513794
1782811430349261600,4.895261474609375,-0.22443175315856934,-0.33610406517982483,0.8117047548294067
1782811430359332600,4.90533251953125,-0.15854594111442566,-0.26164528727531433,0.7220882773399353
1782811430369404700,4.91540478515625,-0.08465457707643509,-0.14748403429985046,0.6102359890937805
1782811430379475700,4.925475830078125,0.026103094220161438,-0.03012305125594139,0.4895457625389099
1782811430389546800,4.935546630859375,0.14477932453155518,0.07829700410366058,0.3506585955619812
1782811430399618600,4.94561865234375,0.25549599528312683,0.1516958475112915,0.21361631155014038
1782811430409689600,4.955689697265625,0.3598990738391876,0.14797967672348022,0.10845954716205597
1782811430419760600,4.9657607421875,0.44561266899108887,0.06637775897979736,0.05816521868109703
1782811430429832700,4.975832763671875,0.512799084186554,-0.05835661292076111,0.06506256759166718
1782811430439903500,4.985903564453125,0.5714001059532166,-0.22432348132133484,0.12176073342561722
1782811430449975600,4.9959755859375,0.6169601082801819,-0.40504467487335205,0.20704211294651031
1782811430460046600,5.006046630859375,0.6490434408187866,-0.5860254168510437,0.2927064299583435
1782811430470117600,5.01611767578125,0.662032425403595,-0.7431497573852539,0.3667006492614746
1782811430480189400,5.026189453125,0.6505208611488342,-0.8514232635498047,0.41899290680885315
1782811430490260500,5.036260498046875,0.6105892062187195,-0.8825615048408508,0.4372752010822296
1782811430500331500,5.04633154296875,0.5531168580055237,-0.8408089876174927,0.4381210207939148
1782811430510403600,5.056403564453125,0.48930057883262634,-0.746159017086029,0.40666133165359497
1782811430520474600,5.066474609375,0.4262707531452179,-0.6220138669013977,0.35064759850502014
1782811430530545400,5.07654541015625,0.3761444091796875,-0.4696076512336731,0.27885571122169495
1782811430540617700,5.08661767578125,0.3427579402923584,-0.2965482473373413,0.20535537600517273
1782811430550688500,5.0966884765625,0.32602325081825256,-0.13231061398983002,0.13383786380290985
1782811430560759600,5.106759521484375,0.3194822669029236,-0.009549799375236034,0.0772174596786499
1782811430570831600,5.11683154296875,0.30337855219841003,0.0644044429063797,0.037222325801849365
1782811430580902700,5.126902587890625,0.28032490611076355,0.10492017865180969,0.031980693340301514
1782811430590973700,5.1369736328125,0.2624998688697815,0.12245824933052063,0.05421634018421173
1782811430601045500,5.14704541015625,0.247603178024292,0.1325276643037796,0.0862317904829979
1782811430611116500,5.157116455078125,0.2322959452867508,0.14195506274700165,0.09492836892604828
1782811430621188600,5.167188720703125,0.22592991590499878,0.15482132136821747,0.08134091645479202
1782811430631259600,5.177259765625,0.24189387261867523,0.16452786326408386,0.050694193691015244
1782811430641330400,5.187330322265625,0.2692738473415375,0.1553998738527298,0.0015721876407042146
1782811430651402500,5.197402587890625,0.2906476557254791,0.13080254197120667,-0.048847440630197525
1782811430661473500,5.2074736328125,0.30141934752464294,0.1169879212975502,-0.1045093759894371
1782811430671544600,5.217544677734375,0.29889851808547974,0.11425264924764633,-0.15057158470153809
1782811430681616600,5.22761669921875,0.2908640205860138,0.11619968712329865,-0.17754460871219635
1782811430691687700,5.237687744140625,0.2807307541370392,0.12360715866088867,-0.18224671483039856
1782811430701758700,5.2477587890625,0.2628084719181061,0.1300988793373108,-0.1643899530172348
1782811430711830500,5.25783056640625,0.2403872162103653,0.11889541894197464,-0.14074952900409698
1782811430721901600,5.267901611328125,0.21134012937545776,0.0893377959728241,-0.12078540027141571
1782811430731972600,5.27797265625,0.18387417495250702,0.04568494111299515,-0.1043703630566597
1782811430742044700,5.288044677734375,0.16677428781986237,-0.003039186354726553,-0.08527816087007523
1782811430752115500,5.298115478515625,0.1449916660785675,-0.04638262838125229,-0.07535042613744736
1782811430762186500,5.3081865234375,0.12588214874267578,-0.11087507009506226,-0.08123414218425751
1782811430772257500,5.318257568359375,0.10683940351009369,-0.21702945232391357,-0.10320503264665604
1782811430782328600,5.32832861328125,0.09268097579479218,-0.3544434905052185,-0.13632597029209137
1782811430792400600,5.338400634765625,0.06946011632680893,-0.5071220993995667,-0.18162398040294647
1782811430802471700,5.3484716796875,0.029118552803993225,-0.6398782730102539,-0.21504025161266327
1782811430812542700,5.358542724609375,-0.03279676288366318,-0.7033886313438416,-0.2139524668455124
1782811430822614800,5.36861474609375,-0.10950938612222672,-0.6645448207855225,-0.18484945595264435
1782811430832685800,5.378685791015625,-0.18356244266033173,-0.5599145889282227,-0.15780062973499298
1782811430842756600,5.388756591796875,-0.2665984630584717,-0.43991655111312866,-0.1653464287519455
1782811430852828400,5.398828369140625,-0.3472498953342438,-0.33831164240837097,-0.2022290825843811
1782811430862899500,5.4088994140625,-0.4266621768474579,-0.23571176826953888,-0.2359449565410614
1782811430872970500,5.418970458984375,-0.4892749786376953,-0.10029133409261703,-0.23371873795986176
1782811430883042600,5.42904248046875,-0.5184230208396912,0.06117932125926018,-0.18154847621917725
1782811430893113600,5.439113525390625,-0.520185649394989,0.20814695954322815,-0.11202291399240494
1782811430903184600,5.4491845703125,-0.4932898283004761,0.3147599399089813,-0.03887919336557388
1782811430913256700,5.459256591796875,-0.4568801522254944,0.38715311884880066,0.011293848045170307
1782811430923327700,5.46932763671875,-0.42526179552078247,0.3959266245365143,0.04869235306978226
1782811430933398500,5.4793984375,-0.40681877732276917,0.36035585403442383,0.07692433148622513
1782811430943470600,5.489470703125,-0.41918089985847473,0.3157694637775421,0.08801426738500595
1782811430953541600,5.499541748046875,-0.4629453122615814,0.2699633836746216,0.07287483662366867
1782811430963612700,5.50961279296875,-0.5284963250160217,0.2385231852531433,0.03751365467905998
1782811430973684500,5.5196845703125,-0.5939220190048218,0.2521636188030243,0.002736857160925865
1782811430983755500,5.529755615234375,-0.6396697759628296,0.30912652611732483,-0.019342878833413124
1782811430993827600,5.53982763671875,-0.6536123156547546,0.3700316250324249,-0.046554990112781525
1782811431003898600,5.549898681640625,-0.6438063383102417,0.39164745807647705,-0.07293866574764252
1782811431013969700,5.5599697265625,-0.633209228515625,0.3941594064235687,-0.1061709001660347
1782811431024041700,5.570041748046875,-0.6233621835708618,0.4202288091182709,-0.13011324405670166
1782811431034112800,5.58011279296875,-0.6286407113075256,0.4724440276622772,-0.16158819198608398
1782811431044183600,5.59018359375,-0.6412840485572815,0.5468255877494812,-0.2151174545288086
1782811431054255400,5.60025537109375,-0.6163097023963928,0.6248870491981506,-0.2624426484107971
1782811431064326400,5.610326416015625,-0.5491804480552673,0.6534507870674133,-0.2979969084262848
1782811431074397400,5.6203974609375,-0.511895477771759,0.5634973645210266,-0.3439798653125763
1782811431084469500,5.630469482421875,-0.5488689541816711,0.4490485191345215,-0.3012409508228302
1782811431094540500,5.64054052734375,-0.6762700080871582,0.36351728439331055,-0.19028791785240173
1782811431104611600,5.650611572265625,-0.7731184959411621,0.24771425127983093,-0.0929829478263855
1782811431114683600,5.66068359375,-0.7450088262557983,0.1108141615986824,-0.046714335680007935
1782811431124754700,5.670754638671875,-0.6452515721321106,0.06835512071847916,-0.03151008486747742
1782811431134825700,5.68082568359375,-0.5253176093101501,0.10416785627603531,-0.027492927387356758
1782811431144897800,5.690897705078125,-0.40121638774871826,0.14320525527000427,-0.02431151457130909
1782811431154970600,5.700970703125,-0.3064322769641876,0.10582687705755234,-0.019237885251641273
1782811431165041700,5.711041748046875,-0.24677878618240356,0.0709621012210846,0.06290732324123383
1782811431175113700,5.72111376953125,-0.19613277912139893,0.06180654838681221,0.21764519810676575
1782811431185184500,5.7311845703125,-0.1404135823249817,-0.054182372987270355,0.37165072560310364
