time,seconds_elapsed,z,y,x
1782661210828326400,0.081326416015625,0.1290779709815979,0.10540720075368881,0.016079453751444817
1782661210838397200,0.091397216796875,0.11893479526042938,0.1146174818277359,0.055612482130527496
1782661210848467500,0.101467529296875,0.11541544646024704,0.10662172734737396,0.07865168899297714
1782661210858538500,0.11153857421875,0.10356970876455307,0.07403901219367981,0.0863008201122284
1782661210868609500,0.121609619140625,0.0829862654209137,0.02235904149711132,0.08411836624145508
1782661210878679300,0.13167919921875,0.05525663495063782,0.0018436461687088013,0.08942524343729019
1782661210888750300,0.141750244140625,0.02104172110557556,0.016269169747829437,0.09199770539999008
1782661210898820400,0.1518203125,-0.016252920031547546,0.041594497859478,0.07769173383712769
1782661210908891400,0.161891357421875,-0.05521981045603752,0.04891528561711311,0.059605564922094345
1782661210918962400,0.17196240234375,-0.08928243815898895,0.03808287903666496,0.03983532264828682
1782661210929032400,0.182032470703125,-0.1196698397397995,0.031035521999001503,0.020959850400686264
1782661210939103500,0.192103515625,-0.14405161142349243,0.04497530311346054,0.011060880497097969
1782661210949173500,0.202173583984375,-0.16499656438827515,0.057831913232803345,0.008897687308490276
1782661210959244300,0.212244384765625,-0.17906443774700165,0.06486691534519196,0.016431502997875214
1782661210969315300,0.2223154296875,-0.18869175016880035,0.08073068410158157,0.024273110553622246
1782661210979385300,0.23238525390625,-0.1939176768064499,0.09534239023923874,0.03430603817105293
1782661210989456400,0.242456298828125,-0.19291163980960846,0.08930512517690659,0.02873649075627327
1782661210999526100,0.252526123046875,-0.19044527411460876,0.04763198271393776,0.026372402906417847
1782661211009597200,0.26259716796875,-0.19099026918411255,0.019734084606170654,0.021005894988775253
1782661211019668200,0.272668212890625,-0.1974170058965683,0.03894452750682831,0.02863292396068573
1782661211029738500,0.282738525390625,-0.2037784606218338,0.0720098614692688,0.04226353392004967
1782661211039809500,0.2928095703125,-0.21239830553531647,0.07067002356052399,0.06035492196679115
1782661211049879300,0.30287939453125,-0.21032413840293884,0.06649326533079147,0.08504942804574966
1782661211059950300,0.312950439453125,-0.1818416267633438,0.07255621254444122,0.10623487085103989
1782661211070021400,0.323021484375,-0.1296694427728653,0.0922137051820755,0.13525156676769257
1782661211080091400,0.33309130859375,-0.07567890733480453,0.1068405881524086,0.16502809524536133
1782661211090162200,0.343162109375,-0.028637312352657318,0.11166244000196457,0.18072868883609772
1782661211100232400,0.353232421875,0.009791302494704723,0.11065790057182312,0.1886148452758789
1782661211110303500,0.363303466796875,0.027860017493367195,0.11132363229990005,0.19246388971805573
1782661211120374500,0.37337451171875,0.02831195667386055,0.13038866221904755,0.19214244186878204
1782661211130444300,0.3834443359375,0.01608940400183201,0.12804493308067322,0.17993950843811035
1782661211140515300,0.393515380859375,-0.013817895203828812,0.13908134400844574,0.1503504514694214
1782661211150585300,0.40358544921875,-0.03977777063846588,0.16649220883846283,0.09826983511447906
1782661211160656400,0.413656494140625,-0.06501095741987228,0.1625794917345047,0.02313140407204628
1782661211170726400,0.423726318359375,-0.08239063620567322,0.15346656739711761,-0.0580400675535202
1782661211180797400,0.43379736328125,-0.09033617377281189,0.1628078669309616,-0.12602657079696655
1782661211190868500,0.443868408203125,-0.11381930857896805,0.15920835733413696,-0.18404792249202728
1782661211200938500,0.4539384765625,-0.1444816291332245,0.13958512246608734,-0.22687581181526184
1782661211211009300,0.46400927734375,-0.1582217961549759,0.11681795120239258,-0.26661860942840576
1782661211221079300,0.474079345703125,-0.17545324563980103,0.08864303678274155,-0.29045894742012024
1782661211231150300,0.484150390625,-0.19438016414642334,0.04627680405974388,-0.2875623106956482
1782661211241221400,0.494221435546875,-0.2079194188117981,0.00386569881811738,-0.26257067918777466
1782661211251291400,0.50429150390625,-0.21075986325740814,-0.04478331655263901,-0.20719194412231445
1782661211261362400,0.514362548828125,-0.21140381693840027,-0.06266298145055771,-0.11793877184391022
1782661211271432400,0.524432373046875,-0.2119986116886139,-0.03885998949408531,-0.007078469265252352
1782661211281503500,0.53450341796875,-0.21340502798557281,0.004168972373008728,0.10030710697174072
1782661211291574500,0.544574462890625,-0.20045724511146545,0.04597912356257439,0.20393304526805878
1782661211301644300,0.554644287109375,-0.17589065432548523,0.07047035545110703,0.29886752367019653
1782661211311715300,0.56471533203125,-0.15950627624988556,0.06683443486690521,0.3632337749004364
1782661211321785300,0.574785400390625,-0.15550674498081207,0.053873367607593536,0.39811134338378906
1782661211331856100,0.584856201171875,-0.15149374306201935,0.03338479623198509,0.41232845187187195
1782661211341927200,0.59492724609375,-0.15992344915866852,0.021542515605688095,0.41916531324386597
1782661211351997400,0.60499755859375,-0.17117197811603546,0.014313364401459694,0.4239225387573242
1782661211362068500,0.615068359375,-0.18072499334812164,0.005940387025475502,0.39693379402160645
1782661211372138200,0.62513818359375,-0.16457711160182953,-0.017039932310581207,0.35535284876823425
1782661211382209300,0.635209228515625,-0.13915404677391052,-0.05075475201010704,0.29473236203193665
1782661211392280300,0.6452802734375,-0.11034098267555237,-0.09601340442895889,0.23407988250255585
1782661211402350300,0.655350341796875,-0.0834134966135025,-0.12496809661388397,0.19759085774421692
1782661211412421400,0.66542138671875,-0.05224251374602318,-0.1320044994354248,0.1823800504207611
1782661211422491400,0.675491455078125,-0.02500956505537033,-0.14496050775051117,0.15785473585128784
1782661211432562400,0.6855625,-0.003148520365357399,-0.16502873599529266,0.13092872500419617
1782661211442632400,0.695632568359375,-0.0026869946159422398,-0.17625263333320618,0.10413358360528946
1782661211452703500,0.705703369140625,-0.017920300364494324,-0.17106837034225464,0.07141592353582382
1782661211462774300,0.715774169921875,-0.035428985953330994,-0.16458730399608612,0.025171197950839996
1782661211472844300,0.72584423828125,-0.05423329025506973,-0.14710213243961334,0.0018944749608635902
1782661211482915300,0.735915283203125,-0.07366158068180084,-0.13765349984169006,0.01106773316860199
1782661211492985300,0.7459853515625,-0.09160499274730682,-0.15709266066551208,0.047006577253341675
1782661211503056400,0.756056396484375,-0.10401186347007751,-0.1904761791229248,0.11598830670118332
1782661211513127400,0.76612744140625,-0.11396478116512299,-0.20885485410690308,0.19371363520622253
1782661211523197400,0.776197509765625,-0.1193651333451271,-0.22882109880447388,0.2559623718261719
1782661211533268500,0.7862685546875,-0.13044756650924683,-0.24782784283161163,0.29531174898147583
1782661211543338200,0.796338134765625,-0.14505286514759064,-0.2608640491962433,0.3154820203781128
1782661211553409300,0.8064091796875,-0.14868029952049255,-0.29295608401298523,0.3169632852077484
1782661211563480300,0.816480224609375,-0.15144571661949158,-0.3589654564857483,0.30516308546066284
1782661211573550300,0.82655029296875,-0.1441909670829773,-0.4249073266983032,0.2998734712600708
1782661211583621400,0.836621337890625,-0.14218933880329132,-0.4584551751613617,0.3034801781177521
1782661211593691100,0.846691162109375,-0.15654127299785614,-0.42938709259033203,0.34062832593917847
1782661211603762200,0.85676220703125,-0.18287940323352814,-0.3528968393802643,0.40069112181663513
1782661211613833200,0.866833251953125,-0.19825871288776398,-0.2544820010662079,0.46893706917762756
1782661211623903200,0.8769033203125,-0.20904850959777832,-0.14677074551582336,0.5149258375167847
1782661211633974300,0.886974365234375,-0.19431650638580322,-0.051617350429296494,0.5209721922874451
1782661211644044300,0.897044189453125,-0.14829255640506744,0.006008927244693041,0.49046751856803894
1782661211654115300,0.907115234375,-0.11579573154449463,-0.018189620226621628,0.4458044469356537
1782661211664186000,0.91718603515625,-0.10998604446649551,-0.035911623388528824,0.4327533543109894
1782661211674256100,0.927256103515625,-0.11132819205522537,0.03311780095100403,0.46925267577171326
1782661211684327200,0.9373271484375,-0.09142398834228516,0.11881912499666214,0.5167312026023865
1782661211694397200,0.947397216796875,-0.057644929736852646,0.1686244010925293,0.5424200296401978
1782661211704468200,0.95746826171875,-0.024953829124569893,0.17906717956066132,0.5662074089050293
1782661211714539300,0.967539306640625,-0.018122168257832527,0.13226300477981567,0.6002712249755859
1782661211724609000,0.977609130859375,-0.023772597312927246,0.05438951030373573,0.628421425819397
1782661211734680000,0.98768017578125,-0.008584552444517612,-0.01758209988474846,0.6241995096206665
1782661211744750300,0.997750244140625,0.04168660566210747,-0.07380223274230957,0.5833165049552917
1782661211754821400,1.0078212890625,0.10856615006923676,-0.08804254233837128,0.4869256019592285
1782661211764892200,1.01789208984375,0.1964067816734314,-0.07095170766115189,0.356987327337265
1782661211774962200,1.027962158203125,0.2853626012802124,-0.044592127203941345,0.22733458876609802
1782661211785033200,1.038033203125,0.3708857297897339,0.0012091839453205466,0.11814605444669724
1782661211795103200,1.048103271484375,0.44874560832977295,0.0498398095369339,0.040091052651405334
1782661211805174000,1.058174072265625,0.5140758752822876,0.09959272295236588,-0.011033648625016212
1782661211815245000,1.0682451171875,0.5369997024536133,0.14123669266700745,-0.03381653502583504
1782661211825315300,1.0783154296875,0.5087864398956299,0.1489683836698532,-0.043859582394361496
1782661211835386400,1.088386474609375,0.44948890805244446,0.13811452686786652,-0.06456946581602097
1782661211845456100,1.0984560546875,0.3857751786708832,0.1090589091181755,-0.08342837542295456
1782661211855527200,1.108527099609375,0.3203440010547638,0.06392990052700043,-0.09079181402921677
1782661211865597200,1.11859716796875,0.2546515464782715,-0.007461458444595337,-0.09477084875106812
1782661211875668200,1.128668212890625,0.1840599775314331,-0.07825150340795517,-0.11269859224557877
1782661211885739000,1.138739013671875,0.1194666177034378,-0.14318175613880157,-0.15056553483009338
1782661211895809300,1.148809326171875,0.058200713247060776,-0.18835237622261047,-0.2095421403646469
1782661211905880300,1.15888037109375,-0.006591866258531809,-0.20023006200790405,-0.280496209859848
1782661211915950300,1.168950439453125,-0.0666058138012886,-0.17723092436790466,-0.35133078694343567
1782661211926021000,1.179021240234375,-0.11961949616670609,-0.12139030545949936,-0.40439561009407043
1782661211936092200,1.189092041015625,-0.14385928213596344,-0.031602922827005386,-0.4201238453388214
1782661211946162200,1.199162109375,-0.14652536809444427,0.06943794339895248,-0.39286452531814575
1782661211956233200,1.209233154296875,-0.14066940546035767,0.14154747128486633,-0.33096954226493835
1782661211966303200,1.21930322265625,-0.1284249871969223,0.15448936820030212,-0.24253660440444946
1782661211976374300,1.229374267578125,-0.11287758499383926,0.10498511791229248,-0.15941046178340912
1782661211986445300,1.2394453125,-0.09039038419723511,0.008452186360955238,-0.09751327335834503
1782661211996515300,1.249515380859375,-0.06438242644071579,-0.08738283067941666,-0.06780922412872314
1782661212006586400,1.25958642578125,-0.038950834423303604,-0.14558807015419006,-0.05339299887418747
1782661212016656100,1.26965625,-0.024373624473810196,-0.1957915872335434,-0.05993078649044037
1782661212026727200,1.27972705078125,-0.018659811466932297,-0.2395675629377365,-0.07737421989440918
1782661212036798200,1.289798095703125,-0.023360852152109146,-0.25352632999420166,-0.10632885992527008
1782661212046868000,1.299867919921875,-0.02475901134312153,-0.22686704993247986,-0.14090201258659363
1782661212056939000,1.30993896484375,-0.024020832031965256,-0.19439192116260529,-0.1773594617843628
1782661212067009300,1.32000927734375,-0.02291242405772209,-0.16817203164100647,-0.2063349187374115
1782661212077080300,1.330080322265625,-0.01912902295589447,-0.1612149178981781,-0.2132180631160736
1782661212087150000,1.340150146484375,-0.018806515261530876,-0.16165673732757568,-0.1992873251438141
1782661212097221000,1.35022119140625,-0.01741873100399971,-0.15968073904514313,-0.14796119928359985
1782661212107292200,1.360292236328125,-0.009928856045007706,-0.16678179800510406,-0.07590857893228531
1782661212117362200,1.370362060546875,0.0004259261768311262,-0.18529750406742096,-0.012980910018086433
1782661212127433200,1.38043310546875,0.021900590509176254,-0.21444925665855408,0.029990792274475098
1782661212137503200,1.390503173828125,0.04330823943018913,-0.2270423173904419,0.03773363679647446
1782661212147574300,1.40057421875,0.0603407546877861,-0.22173278033733368,0.018089894205331802
1782661212157645300,1.410645263671875,0.07792293280363083,-0.20122504234313965,-0.020932696759700775
1782661212167715300,1.42071533203125,0.09606358408927917,-0.1727398782968521,-0.07232876867055893
1782661212177786000,1.4307861328125,0.11358758062124252,-0.1644694060087204,-0.13097265362739563
1782661212187856100,1.440856201171875,0.13150718808174133,-0.16944313049316406,-0.16967211663722992
1782661212197927200,1.45092724609375,0.1468408703804016,-0.17390546202659607,-0.18314114212989807
1782661212207998200,1.460998291015625,0.1446906328201294,-0.18096576631069183,-0.18233126401901245
1782661212218068200,1.471068115234375,0.137330561876297,-0.1820143759250641,-0.1756860762834549
1782661212228139300,1.48113916015625,0.1302204579114914,-0.16718190908432007,-0.17451535165309906
1782661212238209300,1.491209228515625,0.11837730556726456,-0.1604527235031128,-0.1831003725528717
1782661212248280300,1.5012802734375,0.10857021808624268,-0.16302214562892914,-0.1966332346200943
1782661212258350000,1.51135009765625,0.10485199838876724,-0.14996810257434845,-0.208709716796875
1782661212268421000,1.521421142578125,0.11096874624490738,-0.1313350349664688,-0.206059068441391
1782661212278492200,1.5314921875,0.11826228350400925,-0.11785800755023956,-0.19224201142787933
1782661212288562200,1.541562255859375,0.12444694340229034,-0.12664218246936798,-0.18117178976535797
1782661212298633200,1.55163330078125,0.12283024191856384,-0.1572827249765396,-0.16890548169612885
1782661212308703200,1.561703125,0.11998225748538971,-0.2016475349664688,-0.15943847596645355
1782661212318774300,1.571774169921875,0.11240833252668381,-0.2391122281551361,-0.14122316241264343
1782661212328845300,1.58184521484375,0.09874152392148972,-0.25825822353363037,-0.11323893070220947
1782661212338915000,1.5919150390625,0.08661307394504547,-0.28757548332214355,-0.08290304988622665
1782661212348986000,1.601986083984375,0.08477043360471725,-0.3373664915561676,-0.0386679470539093
1782661212359056100,1.61205615234375,0.0925561860203743,-0.3768945038318634,0.017296871170401573
1782661212369127200,1.622127197265625,0.09755121171474457,-0.4054025709629059,0.09310135245323181
1782661212379198200,1.6321982421875,0.09512349963188171,-0.42857012152671814,0.17966094613075256
1782661212389268200,1.642268310546875,0.08009181916713715,-0.45000508427619934,0.27541837096214294
1782661212399339300,1.65233935546875,0.056709352880716324,-0.4806804358959198,0.3589344322681427
1782661212409409300,1.6624091796875,0.03092223033308983,-0.5199330449104309,0.42548149824142456
1782661212419480000,1.67247998046875,0.0015084159094840288,-0.553555428981781,0.46256017684936523
1782661212429550000,1.682550048828125,-0.02376738004386425,-0.5676094889640808,0.4733180105686188
1782661212439621000,1.69262109375,-0.053404152393341064,-0.5484684705734253,0.4542299509048462
1782661212449692200,1.702692138671875,-0.07743571698665619,-0.47951605916023254,0.40676042437553406
1782661212459762200,1.71276220703125,-0.10037118941545486,-0.37266993522644043,0.3486628234386444
1782661212469833200,1.722833251953125,-0.1233244463801384,-0.24670642614364624,0.3027659058570862
1782661212479903200,1.7329033203125,-0.1546204686164856,-0.13068653643131256,0.26730501651763916
1782661212489974300,1.742974365234375,-0.1909712851047516,-0.037603456526994705,0.2561972141265869
1782661212500045300,1.75304541015625,-0.22168070077896118,0.04314769431948662,0.2572595179080963
1782661212510115000,1.763114990234375,-0.24619749188423157,0.11905524134635925,0.2733077108860016
1782661212520186000,1.77318603515625,-0.26000353693962097,0.18031089007854462,0.29548847675323486
1782661212530256400,1.78325634765625,-0.28393417596817017,0.21998080611228943,0.31771281361579895
1782661212540327400,1.793327392578125,-0.3174697458744049,0.2333420366048813,0.33090198040008545
1782661212550397200,1.803397216796875,-0.3614156246185303,0.2308991253376007,0.3229553699493408
1782661212560468200,1.81346826171875,-0.39542022347450256,0.20496845245361328,0.29581525921821594
1782661212570539300,1.823539306640625,-0.42390140891075134,0.16405831277370453,0.24406550824642181
1782661212580609000,1.833609130859375,-0.44689124822616577,0.11817367374897003,0.18053323030471802
1782661212590680300,1.843680419921875,-0.4601130485534668,0.07314547896385193,0.11012910306453705
1782661212600750000,1.85375,-0.46595239639282227,0.04404514282941818,0.03315899148583412
1782661212610821000,1.863821044921875,-0.4704273045063019,0.019680948927998543,-0.05457165837287903
1782661212620892200,1.87389208984375,-0.4716135859489441,-0.0021324935369193554,-0.15169420838356018
1782661212630962400,1.88396240234375,-0.4778842628002167,-0.02359144575893879,-0.25637027621269226
1782661212641033500,1.894033447265625,-0.47700294852256775,-0.007655394729226828,-0.3394670784473419
1782661212651103200,1.904103271484375,-0.47585245966911316,0.03966338559985161,-0.37884002923965454
1782661212661174300,1.91417431640625,-0.4668061137199402,0.12035001069307327,-0.38835659623146057
1782661212671244300,1.924244384765625,-0.45548713207244873,0.22139886021614075,-0.3630933165550232
1782661212681315300,1.9343154296875,-0.4452071487903595,0.3272881507873535,-0.31659001111984253
1782661212691386000,1.94438623046875,-0.4337824583053589,0.43766525387763977,-0.2822578549385071
1782661212701456400,1.954456298828125,-0.44365614652633667,0.5795286297798157,-0.3061371445655823
1782661212711527400,1.96452734375,-0.4880409240722656,0.7415785193443298,-0.38584765791893005
1782661212721597400,1.974597412109375,-0.553363025188446,0.8655678629875183,-0.4672514498233795
1782661212731668200,1.984668212890625,-0.5968372821807861,0.9192172288894653,-0.5063152313232422
1782661212741739300,1.9947392578125,-0.6050065755844116,0.8761814832687378,-0.4930153489112854
1782661212751809300,2.004809326171875,-0.5895293951034546,0.7413514852523804,-0.42542779445648193
1782661212761880300,2.01488037109375,-0.5643776655197144,0.5447982549667358,-0.3110673725605011
1782661212771950300,2.024950439453125,-0.5328493118286133,0.36845141649246216,-0.1653064638376236
1782661212782021400,2.035021484375,-0.4916365146636963,0.217082217335701,-0.022562993690371513
1782661212792091400,2.04509130859375,-0.4220443665981293,0.09854012727737427,0.09713571518659592
1782661212802162400,2.055162353515625,-0.3335757255554199,0.02613820880651474,0.18550758063793182
1782661212812233200,2.065233154296875,-0.24982759356498718,-0.032144539058208466,0.24658797681331635
1782661212822303200,2.07530322265625,-0.17706236243247986,-0.07951861619949341,0.282856285572052
1782661212832374300,2.085374267578125,-0.10143949091434479,-0.11137987673282623,0.3212340474128723
1782661212842444500,2.095444580078125,-0.03081352636218071,-0.16967009007930756,0.34417131543159485
1782661212852515300,2.105515380859375,0.04245589300990105,-0.2367260903120041,0.36510270833969116
1782661212862586400,2.11558642578125,0.10952968895435333,-0.27364230155944824,0.3845066428184509
1782661212872656400,2.125656494140625,0.17359548807144165,-0.30435627698898315,0.378525972366333
1782661212882727400,2.1357275390625,0.23479816317558289,-0.36254632472991943,0.33934566378593445
1782661212892797200,2.145797119140625,0.28609997034072876,-0.426576167345047,0.27892521023750305
1782661212902868200,2.1558681640625,0.33417418599128723,-0.42722079157829285,0.21681247651576996
1782661212912938200,2.165938232421875,0.369204580783844,-0.3513854146003723,0.16077503561973572
1782661212923009300,2.17600927734375,0.3920252323150635,-0.21684113144874573,0.08829889446496964
1782661212933080300,2.186080322265625,0.3935756981372833,-0.053054336458444595,0.025520728901028633
1782661212943150300,2.196150390625,0.3633786737918854,0.0797208696603775,0.0023626131005585194
1782661212953221400,2.206221435546875,0.30720409750938416,0.16613724827766418,0.0605233870446682
1782661212963291400,2.21629150390625,0.22517216205596924,0.21045956015586853,0.18712502717971802
1782661212973362200,2.226362060546875,0.14385199546813965,0.21612116694450378,0.34615516662597656
1782661212983432200,2.23643212890625,0.07042991369962692,0.23230348527431488,0.43893593549728394
1782661212993503200,2.246503173828125,-0.007697117514908314,0.33861660957336426,0.29398247599601746
1782661213003574300,2.25657421875,-0.11337749660015106,0.6140099763870239,-0.1725393682718277
1782661213013644300,2.266644287109375,-0.22658662497997284,0.946565568447113,-0.7643065452575684
1782661213023715300,2.27671533203125,-0.27342507243156433,1.1449294090270996,-1.1727499961853027
1782661213033785300,2.286785400390625,-0.21661584079265594,1.112338900566101,-1.2580201625823975
1782661213043856400,2.2968564453125,-0.06788813322782516,0.9242117404937744,-1.0455487966537476
1782661213053927400,2.306927490234375,0.10681763291358948,0.6767889261245728,-0.6182796955108643
1782661213063997200,2.3169970703125,0.25529420375823975,0.43347248435020447,-0.0818636491894722
1782661213074068200,2.327068115234375,0.3728690445423126,0.21149854362010956,0.41095298528671265
1782661213084138500,2.337138427734375,0.47031351923942566,0.023795148357748985,0.7402151823043823
1782661213094209500,2.34720947265625,0.562380313873291,-0.10155238956212997,0.9069055914878845
1782661213104279300,2.357279296875,0.6498333215713501,-0.17672353982925415,0.9407557249069214
1782661213114350300,2.367350341796875,0.7290722131729126,-0.24749651551246643,0.9026511907577515
1782661213124421400,2.37742138671875,0.7644222974777222,-0.2977195680141449,0.8370801210403442
1782661213134491100,2.3874912109375,0.7431609630584717,-0.3034365773200989,0.7800785899162292
1782661213144562200,2.397562255859375,0.7046655416488647,-0.28812769055366516,0.7445770502090454
1782661213154632400,2.407632568359375,0.6770043969154358,-0.2977566421031952,0.6949589252471924
1782661213164703500,2.417703369140625,0.6423646211624146,-0.2810823619365692,0.616325318813324
1782661213174774500,2.4277744140625,0.5682006478309631,-0.21544024348258972,0.5049870610237122
1782661213184844300,2.43784423828125,0.4599092900753021,-0.07924095541238785,0.3515198230743408
1782661213194915300,2.447915283203125,0.3279416561126709,0.08854591101408005,0.14667801558971405
1782661213204985300,2.4579853515625,0.21928492188453674,0.234018474817276,-0.09376747906208038
1782661213215056400,2.468056396484375,0.16812878847122192,0.34441742300987244,-0.34211817383766174
1782661213225126100,2.478126220703125,0.14970611035823822,0.4147675335407257,-0.5786572694778442
1782661213235197200,2.488197265625,0.1245269700884819,0.4442412555217743,-0.7874736189842224
1782661213245268200,2.498268310546875,0.10059965401887894,0.4313434362411499,-0.933014452457428
1782661213255338500,2.50833837890625,0.08936404436826706,0.364056795835495,-0.9996816515922546
1782661213265409300,2.5184091796875,0.10145577788352966,0.2501210868358612,-0.985461950302124
1782661213275479300,2.528479248046875,0.14888428151607513,0.12074925005435944,-0.891379714012146
1782661213285550300,2.53855029296875,0.20030562579631805,-0.004679813515394926,-0.7382722496986389
1782661213295620000,2.5486201171875,0.24697725474834442,-0.12752103805541992,-0.5617270469665527
1782661213305691100,2.558691162109375,0.2815859615802765,-0.20317593216896057,-0.4027692675590515
1782661213315762200,2.56876220703125,0.308290034532547,-0.23678183555603027,-0.2922390103340149
1782661213325832400,2.57883251953125,0.31866756081581116,-0.23412692546844482,-0.24959275126457214
1782661213335903500,2.588903564453125,0.30927911400794983,-0.2152744084596634,-0.2605639100074768
1782661213345973200,2.59897314453125,0.2701316475868225,-0.15883475542068481,-0.2761324346065521
1782661213356044300,2.609044189453125,0.2219042032957077,-0.09690719842910767,-0.25513818860054016
1782661213366114300,2.6191142578125,0.16769741475582123,-0.058146897703409195,-0.18574325740337372
1782661213376185300,2.629185302734375,0.12026891112327576,-0.07766733318567276,-0.09700567275285721
1782661213386256100,2.639256103515625,0.08608004450798035,-0.12805484235286713,-0.01586589217185974
1782661213396326400,2.649326416015625,0.06571431457996368,-0.17520664632320404,0.04256226494908333
1782661213406397400,2.6593974609375,0.0656120553612709,-0.19690796732902527,0.07136230170726776
1782661213416467500,2.669467529296875,0.08111165463924408,-0.2147998958826065,0.05583127588033676
1782661213426538200,2.679538330078125,0.1146446093916893,-0.1968468874692917,0.002646820619702339
1782661213436609300,2.689609375,0.14843054115772247,-0.14435037970542908,-0.08794645965099335
1782661213446679300,2.69967919921875,0.18267947435379028,-0.08846912533044815,-0.19744187593460083
1782661213456750300,2.709750244140625,0.21623796224594116,-0.04097830504179001,-0.312010258436203
1782661213466820400,2.7198203125,0.25531086325645447,-0.02552633360028267,-0.40430977940559387
1782661213476891400,2.729891357421875,0.30257320404052734,-0.06579705327749252,-0.4767887592315674
1782661213486961400,2.73996142578125,0.35516780614852905,-0.153987318277359,-0.5119584798812866
1782661213497032400,2.750032470703125,0.38839927315711975,-0.24065591394901276,-0.4966421127319336
1782661213507103200,2.760103271484375,0.4078870117664337,-0.30136480927467346,-0.4447815418243408
1782661213517173200,2.77017333984375,0.41334542632102966,-0.35014432668685913,-0.3586013913154602
1782661213527244300,2.780244384765625,0.41709810495376587,-0.3669959604740143,-0.258730411529541
1782661213537314300,2.790314208984375,0.41536012291908264,-0.3328627347946167,-0.16413386166095734
1782661213547385000,2.800385009765625,0.4098491072654724,-0.29078689217567444,-0.08262864500284195
1782661213557455400,2.810455322265625,0.3894839286804199,-0.2700880169868469,-0.025519555434584618
1782661213567526400,2.8205263671875,0.37022948265075684,-0.25903457403182983,0.0050158873200416565
1782661213577597400,2.830597412109375,0.3631361722946167,-0.2338794320821762,-0.005511055700480938
1782661213587666700,2.840666748046875,0.36886900663375854,-0.1948574185371399,-0.06435069441795349
1782661213597737700,2.85073779296875,0.3878381848335266,-0.14159074425697327,-0.14896464347839355
1782661213607807700,2.860807861328125,0.402822345495224,-0.11179819703102112,-0.22584153711795807
1782661213617878800,2.870878662109375,0.4055022895336151,-0.1320246309041977,-0.28226035833358765
1782661213627948800,2.88094873046875,0.3821345567703247,-0.1877662092447281,-0.29348307847976685
1782661213638019800,2.891019775390625,0.3436353802680969,-0.2751690149307251,-0.2721349000930786
1782661213648091000,2.9010908203125,0.2910583019256592,-0.3669992983341217,-0.2260233610868454
1782661213658160600,2.91116064453125,0.21766799688339233,-0.4394732415676117,-0.1688641905784607
1782661213668231700,2.921231689453125,0.10637551546096802,-0.44745105504989624,-0.10792955756187439
1782661213678301700,2.9313017578125,-0.01678236573934555,-0.35519781708717346,-0.050495557487010956
1782661213688372700,2.941372802734375,-0.14788849651813507,-0.20395123958587646,0.00322638894431293
1782661213698442800,2.95144287109375,-0.2796611785888672,-0.053462397307157516,0.04426330327987671
1782661213708513800,2.961513671875,-0.4264868199825287,0.039510298520326614,0.04300188645720482
1782661213718584800,2.971584716796875,-0.6216920018196106,0.05331985279917717,-0.008016557432711124
1782661213728654600,2.981654541015625,-0.865696907043457,0.02440754324197769,-0.11783856898546219
1782661213738725600,2.9917255859375,-1.0923702716827393,0.01753871887922287,-0.251845121383667
1782661213748795600,3.001795654296875,-1.2780323028564453,0.07618101686239243,-0.36699777841567993
1782661213758866700,3.01186669921875,-1.3960700035095215,0.18222275376319885,-0.40966561436653137
1782661213768937700,3.021937744140625,-1.43580162525177,0.2985164225101471,-0.37249311804771423
1782661213779007700,3.0320078125,-1.4125397205352783,0.383626788854599,-0.23839125037193298
1782661213789078800,3.042078857421875,-1.3300279378890991,0.42966508865356445,-0.03841160237789154
1782661213799148800,3.052148681640625,-1.2073118686676025,0.40461623668670654,0.18209707736968994
1782661213809219800,3.0622197265625,-1.0615712404251099,0.32252180576324463,0.3916722238063812
1782661213819289600,3.07228955078125,-0.9241936802864075,0.26660287380218506,0.5879706144332886
1782661213829360600,3.082360595703125,-0.8264910578727722,0.22976486384868622,0.7411295175552368
1782661213839431700,3.092431640625,-0.7622907757759094,0.2097163200378418,0.823691189289093
1782661213849502000,3.102501953125,-0.7115916609764099,0.20285585522651672,0.8233256340026855
1782661213859572700,3.11257275390625,-0.6648201942443848,0.1906260848045349,0.7421069145202637
1782661213869642800,3.122642822265625,-0.6082513332366943,0.17949141561985016,0.5939922332763672
1782661213879713800,3.1327138671875,-0.550667941570282,0.17691268026828766,0.42300739884376526
1782661213889783600,3.142783447265625,-0.5022661089897156,0.17187541723251343,0.2783892750740051
1782661213899854600,3.1528544921875,-0.4611423909664154,0.1451956033706665,0.1795327514410019
1782661213909925600,3.162925537109375,-0.4166703224182129,0.11222118884325027,0.1351499706506729
1782661213919996000,3.172995849609375,-0.37794768810272217,0.08652488142251968,0.13345858454704285
1782661213930067000,3.18306689453125,-0.3395211696624756,0.06404326111078262,0.15985003113746643
1782661213940136700,3.19313671875,-0.3050641119480133,0.052067290991544724,0.16543282568454742
1782661213950207700,3.203207763671875,-0.2645593285560608,0.05938764289021492,0.12441789358854294
1782661213960277800,3.21327783203125,-0.20766566693782806,0.10011137276887894,0.02773422934114933
1782661213970348800,3.223348876953125,-0.13737602531909943,0.1329982876777649,-0.09558476507663727
1782661213980419600,3.233419677734375,-0.07896758615970612,0.12729859352111816,-0.24252013862133026
1782661213990489600,3.243489501953125,-0.05414585769176483,0.12438108772039413,-0.3746025562286377
1782661214000560600,3.253560546875,-0.06146315485239029,0.16547846794128418,-0.4804900884628296
1782661214010631000,3.263630859375,-0.09812429547309875,0.24039727449417114,-0.5431704521179199
1782661214020701700,3.27370166015625,-0.14160439372062683,0.30552539229393005,-0.5602200031280518
1782661214030771700,3.283771728515625,-0.18966266512870789,0.35642606019973755,-0.5299229025840759
1782661214040842800,3.2938427734375,-0.23142263293266296,0.4006214737892151,-0.4582234025001526
1782661214050913800,3.303913818359375,-0.2550225555896759,0.4448604881763458,-0.3419572710990906
1782661214060983600,3.313983642578125,-0.2726641297340393,0.478580117225647,-0.1876736879348755
1782661214071054600,3.3240546875,-0.2920839786529541,0.511301577091217,-0.020694173872470856
1782661214081124900,3.334124755859375,-0.3024868071079254,0.5021714568138123,0.15928810834884644
1782661214091196000,3.34419580078125,-0.3157021105289459,0.46153438091278076,0.3486133813858032
1782661214101265700,3.354265625,-0.3176174461841583,0.3991956412792206,0.532347559928894
1782661214111336700,3.364336669921875,-0.3059246242046356,0.29864513874053955,0.685201108455658
1782661214121407700,3.37440771484375,-0.269620418548584,0.16344629228115082,0.7951822280883789
1782661214131477800,3.384477783203125,-0.21134991943836212,0.04876977950334549,0.8567747473716736
1782661214141548500,3.394548583984375,-0.14293064177036285,-0.047958627343177795,0.8758890628814697
1782661214151618800,3.404618896484375,-0.06101163476705551,-0.1470748335123062,0.8533374667167664
1782661214161689900,3.41468994140625,0.010179455392062664,-0.2520081698894501,0.8096749782562256
1782661214171759900,3.424759765625,0.0725293830037117,-0.3506828248500824,0.7590634822845459
1782661214181830700,3.43483056640625,0.12561151385307312,-0.4007907509803772,0.6974472403526306
1782661214191901700,3.444901611328125,0.18879719078540802,-0.4457255005836487,0.6293588876724243
1782661214201971700,3.4549716796875,0.24608631432056427,-0.5094003081321716,0.5401898622512817
1782661214212042800,3.465042724609375,0.2848755121231079,-0.5734981298446655,0.4501388669013977
1782661214222112800,3.47511279296875,0.3000904321670532,-0.5926033854484558,0.3693401515483856
1782661214232183800,3.485183837890625,0.29031506180763245,-0.5489799380302429,0.2954600751399994
1782661214242253800,3.49525390625,0.2670872211456299,-0.4459853768348694,0.2109563797712326
1782661214252324900,3.505324951171875,0.24034279584884644,-0.29488641023635864,0.11786654591560364
1782661214262395600,3.515395751953125,0.21105867624282837,-0.12700392305850983,0.035714421421289444
1782661214272465700,3.525465576171875,0.17418183386325836,0.004083344712853432,-0.0038398646283894777
1782661214282536700,3.53553662109375,0.1319212019443512,0.06917872279882431,0.022580822929739952
1782661214292606700,3.545606689453125,0.08709459751844406,0.08395074307918549,0.11781306564807892
1782661214302677500,3.555677490234375,0.03351898491382599,0.08125509321689606,0.2611185610294342
1782661214312747800,3.565747802734375,-0.03508416935801506,0.08459384739398956,0.4153182804584503
1782661214322818800,3.57581884765625,-0.1190166175365448,0.14470352232456207,0.5161407589912415
1782661214332889900,3.585889892578125,-0.21721798181533813,0.31473731994628906,0.4639418423175812
1782661214342959600,3.595959716796875,-0.3022066652774811,0.6496607661247253,0.1848265677690506
1782661214353030700,3.60603076171875,-0.32184895873069763,1.0912292003631592,-0.23427791893482208
1782661214363100700,3.6161005859375,-0.20452070236206055,1.417319416999817,-0.6072171330451965
1782661214373171700,3.626171630859375,0.009154199622571468,1.4641292095184326,-0.7821741104125977
1782661214383241700,3.63624169921875,0.2471126914024353,1.2538076639175415,-0.7290254235267639
1782661214393312800,3.646312744140625,0.42987099289894104,0.8682289719581604,-0.472650945186615
1782661214403383800,3.6563837890625,0.5252121686935425,0.4299040734767914,-0.09306550770998001
1782661214413453800,3.666453857421875,0.5407149195671082,0.05602811649441719,0.31351616978645325
1782661214423524900,3.67652490234375,0.5200400352478027,-0.15216876566410065,0.6697728037834167
1782661214433594600,3.6865947265625,0.5101300477981567,-0.2309383898973465,0.9158893823623657
1782661214443665700,3.696665771484375,0.5169272422790527,-0.27106449007987976,0.9964020848274231
1782661214453736000,3.70673583984375,0.5210076570510864,-0.3193829655647278,0.914268434047699
1782661214463806700,3.716806640625,0.5159236788749695,-0.288132905960083,0.7044705152511597
1782661214473877800,3.726877685546875,0.5131769180297852,-0.1475328952074051,0.416474848985672
1782661214483947800,3.73694775390625,0.5105936527252197,0.05935424566268921,0.12081550061702728
1782661214494018800,3.747018798828125,0.5035116672515869,0.27575600147247314,-0.11890602111816406
1782661214504088600,3.757088623046875,0.48973432183265686,0.44948652386665344,-0.26284506916999817
1782661214514159600,3.76715966796875,0.47550469636917114,0.5600665807723999,-0.31474533677101135
1782661214524230000,3.77722998046875,0.4590516984462738,0.6264333724975586,-0.3086661398410797
1782661214534301000,3.787301025390625,0.4596346616744995,0.622661292552948,-0.28862372040748596
1782661214544372000,3.7973720703125,0.47478485107421875,0.5683293342590332,-0.28806525468826294
1782661214554441700,3.807441650390625,0.4923049807548523,0.508790910243988,-0.34302330017089844
1782661214564512800,3.8175126953125,0.5022236704826355,0.44678452610969543,-0.45146751403808594
1782661214574582800,3.827582763671875,0.5155972838401794,0.3782404065132141,-0.5877118706703186
1782661214584654300,3.837654296875,0.5421876311302185,0.2667485177516937,-0.7212837934494019
1782661214594724000,3.84772412109375,0.5811872482299805,0.08277877420186996,-0.8173397779464722
1782661214604795100,3.857795166015625,0.6225509643554688,-0.14564508199691772,-0.8231478929519653
1782661214614865400,3.867865478515625,0.6335169672966003,-0.39139536023139954,-0.7216477990150452
1782661214624936400,3.8779365234375,0.5878080725669861,-0.6190943121910095,-0.5191671252250671
1782661214635007200,3.88800732421875,0.48890313506126404,-0.7702242732048035,-0.2712346315383911
1782661214645077200,3.8980771484375,0.3611656725406647,-0.7914824485778809,-0.04242197796702385
1782661214655148300,3.908148193359375,0.2234436273574829,-0.6877927184104919,0.08926510810852051
1782661214665218300,3.91821826171875,0.09504037350416183,-0.4691929817199707,0.08632870763540268
1782661214675289000,3.9282890625,0.0028104314114898443,-0.24466709792613983,0.02102869376540184
1782661214685359400,3.938359375,-0.03581073135137558,-0.0952664241194725,-0.04268477112054825
1782661214695430400,3.948430419921875,-0.026037342846393585,0.016027159988880157,-0.084869883954525
1782661214705501400,3.95850146484375,-0.0019301432184875011,0.10477779805660248,-0.11777883023023605
1782661214715571200,3.9685712890625,0.023234063759446144,0.1478768140077591,-0.1509011685848236
1782661214725642200,3.978642333984375,0.06292688101530075,0.1374119222164154,-0.1864490509033203
1782661214735712300,3.988712158203125,0.11679230630397797,0.11139114201068878,-0.2150479108095169
1782661214745783300,3.998783203125,0.18619640171527863,0.055077001452445984,-0.2517015039920807
1782661214755853000,4.00885302734375,0.25354403257369995,0.0013112605083733797,-0.30993881821632385
1782661214765924000,4.018924072265625,0.3202977478504181,-0.02293415740132332,-0.37335824966430664
1782661214775995100,4.0289951171875,0.3829646706581116,-0.008341646753251553,-0.4342285692691803
1782661214786065400,4.0390654296875,0.44016724824905396,0.026158006861805916,-0.4907456338405609
1782661214796136200,4.04913623046875,0.48055317997932434,0.04903872311115265,-0.5339810848236084
1782661214806206200,4.059206298828125,0.5106338262557983,0.06394576281309128,-0.5544373989105225
1782661214816277200,4.06927734375,0.5438128709793091,0.06262822449207306,-0.5495894551277161
1782661214826347300,4.07934716796875,0.5881843566894531,0.03707359731197357,-0.5315074324607849
1782661214836418000,4.08941796875,0.638821542263031,-0.01297147199511528,-0.5060305595397949
1782661214846489000,4.099489013671875,0.6933625340461731,-0.08141843974590302,-0.47656378149986267
1782661214856559400,4.109559326171875,0.7352026104927063,-0.17631174623966217,-0.4614228904247284
1782661214866630400,4.11963037109375,0.7492300271987915,-0.2934122681617737,-0.44152188301086426
1782661214876700200,4.1297001953125,0.7043812274932861,-0.3999587595462799,-0.41444364190101624
1782661214886771200,4.139771240234375,0.5927726626396179,-0.49985286593437195,-0.3757644295692444
1782661214896841200,4.14984130859375,0.44602105021476746,-0.565422773361206,-0.32444337010383606
1782661214906912300,4.159912353515625,0.2914104461669922,-0.5815828442573547,-0.27460789680480957
1782661214916983000,4.169983154296875,0.16277550160884857,-0.5534931421279907,-0.23970478773117065
1782661214927053300,4.18005322265625,0.06818722188472748,-0.5216939449310303,-0.18691134452819824
1782661214937124400,4.190124267578125,0.00012767972657456994,-0.5040681958198547,-0.09538863599300385
1782661214947194400,4.2001943359375,-0.04641665518283844,-0.5097497701644897,0.015909656882286072
1782661214957265200,4.21026513671875,-0.10083213448524475,-0.5362282395362854,0.12072889506816864
1782661214967335200,4.220335205078125,-0.15841765701770782,-0.5744369029998779,0.2039252519607544
1782661214977406200,4.23040625,-0.2230709344148636,-0.6410797834396362,0.24254783987998962
1782661214987476200,4.240476318359375,-0.3013511002063751,-0.7065120339393616,0.24728479981422424
1782661214997547300,4.25054736328125,-0.39087367057800293,-0.7307733297348022,0.19999007880687714
1782661215007618300,4.260618408203125,-0.4788290858268738,-0.7094496488571167,0.06387538462877274
1782661215017688300,4.270688232421875,-0.5637193322181702,-0.6241063475608826,-0.13160745799541473
1782661215027759400,4.28075927734375,-0.6615098118782043,-0.47726526856422424,-0.33281728625297546
1782661215037829000,4.2908291015625,-0.7681337594985962,-0.3291255533695221,-0.4912053942680359
1782661215047900200,4.300900146484375,-0.867440402507782,-0.2004953920841217,-0.5782896876335144
1782661215057970200,4.31097021484375,-0.9588214755058289,-0.08282288908958435,-0.6018677949905396
1782661215068041200,4.321041259765625,-1.0466090440750122,0.0009742716792970896,-0.580242931842804
1782661215078112000,4.331112060546875,-1.1194846630096436,0.05414038151502609,-0.5241090059280396
1782661215088182300,4.341182373046875,-1.178541660308838,0.09976352751255035,-0.43403851985931396
1782661215098253300,4.35125341796875,-1.2073912620544434,0.13920599222183228,-0.3266274034976959
1782661215108323300,4.3613232421875,-1.1756442785263062,0.15057583153247833,-0.22773414850234985
1782661215118394000,4.37139404296875,-1.0747171640396118,0.11884425580501556,-0.1475829929113388
1782661215128464100,4.381464111328125,-0.9227596521377563,0.05082259699702263,-0.06956382840871811
1782661215138535200,4.39153515625,-0.7606879472732544,-0.0633402019739151,-0.003566101659089327
1782661215148606200,4.401606201171875,-0.5987491011619568,-0.22019824385643005,0.05851191654801369
1782661215158676200,4.41167626953125,-0.4391666650772095,-0.36435526609420776,0.13327749073505402
1782661215168747300,4.421747314453125,-0.2838990390300751,-0.47892633080482483,0.22146514058113098
1782661215178817300,4.4318173828125,-0.16550415754318237,-0.5423205494880676,0.31612327694892883
1782661215188888300,4.441888427734375,-0.10232226550579071,-0.5356386303901672,0.3966945707798004
1782661215198958000,4.4519580078125,-0.08730723708868027,-0.4725120961666107,0.46062424778938293
1782661215209029000,4.462029052734375,-0.10078496485948563,-0.40800338983535767,0.488637775182724
1782661215219100200,4.47210009765625,-0.13785797357559204,-0.32768920063972473,0.48980391025543213
1782661215229170400,4.48217041015625,-0.19434602558612823,-0.24200865626335144,0.45736685395240784
1782661215239241200,4.4922412109375,-0.263408362865448,-0.18029707670211792,0.4009142220020294
1782661215249311200,4.502311279296875,-0.3340787887573242,-0.15650120377540588,0.3096713721752167
1782661215259382300,4.51238232421875,-0.3955199718475342,-0.13783031702041626,0.21632473170757294
1782661215269452300,4.522452392578125,-0.43481385707855225,-0.1124221533536911,0.13018080592155457
1782661215279523000,4.532523193359375,-0.45016583800315857,-0.08162226527929306,0.05076029896736145
1782661215289593300,4.54259326171875,-0.4337866008281708,-0.07189080864191055,-0.018105320632457733
1782661215299664400,4.552664306640625,-0.3995406925678253,-0.07345843315124512,-0.07575055956840515
1782661215309735400,4.5627353515625,-0.362324595451355,-0.06204811856150627,-0.10402001440525055
1782661215319805200,4.57280517578125,-0.3235548734664917,-0.041999660432338715,-0.11411979049444199
1782661215329876200,4.582876220703125,-0.28634944558143616,-0.00896767619997263,-0.12051910161972046
1782661215339946200,4.5929462890625,-0.24942319095134735,0.04737177491188049,-0.13046570122241974
1782661215350017300,4.603017333984375,-0.2185198813676834,0.1141020655632019,-0.14968787133693695
1782661215360087000,4.613087158203125,-0.19579999148845673,0.15437978506088257,-0.18724890053272247
1782661215370158000,4.623157958984375,-0.19209952652454376,0.13684871792793274,-0.2440677136182785
1782661215380229000,4.63322900390625,-0.18346741795539856,0.0910910964012146,-0.3115890324115753
1782661215390299400,4.64329931640625,-0.17365846037864685,0.061163563281297684,-0.38024237751960754
1782661215400370200,4.6533701171875,-0.1603880673646927,0.06363693624734879,-0.4541524648666382
1782661215410440200,4.663440185546875,-0.14799319207668304,0.06727801263332367,-0.5323679447174072
1782661215420511200,4.67351123046875,-0.14400681853294373,0.04819584637880325,-0.5728963613510132
1782661215430581200,4.683581298828125,-0.1558898389339447,0.01520407386124134,-0.5654557347297668
1782661215440652000,4.693652099609375,-0.17180700600147247,-0.005455328617244959,-0.4728381037712097
1782661215450722300,4.703722412109375,-0.17523662745952606,0.011604614555835724,-0.29437515139579773
1782661215460793300,4.71379345703125,-0.17860685288906097,0.03826766461133957,-0.06891146302223206
1782661215470864400,4.723864501953125,-0.17550188302993774,0.03303641453385353,0.15019771456718445
1782661215480934100,4.73393408203125,-0.16562460362911224,-0.007460243534296751,0.3203994631767273
1782661215491005200,4.744005126953125,-0.14397309720516205,-0.055827245116233826,0.4175606369972229
1782661215501075200,4.7540751953125,-0.11166980862617493,-0.08178339153528214,0.4430454969406128
1782661215511146200,4.764146240234375,-0.07441377639770508,-0.09381075948476791,0.40314042568206787
1782661215521216300,4.77421630859375,-0.03267568349838257,-0.08265964686870575,0.3219127058982849
1782661215531287300,4.784287353515625,0.00010170083260163665,-0.051412515342235565,0.21721024811267853
1782661215541358300,4.7943583984375,0.02242899313569069,-0.011024430394172668,0.11058403551578522
1782661215551428400,4.804428466796875,0.030826471745967865,0.02206747606396675,0.017913760617375374
1782661215561499400,4.81449951171875,0.027011314406991005,0.0361044704914093,-0.05606231093406677
1782661215571569200,4.824569091796875,-0.00978744588792324,0.048524122685194016,-0.11385956406593323
1782661215581640200,4.83464013671875,-0.06354645639657974,0.06730392575263977,-0.14463749527931213
1782661215591710200,4.844710205078125,-0.11788585782051086,0.08868511021137238,-0.15323683619499207
1782661215601781200,4.85478125,-0.15850910544395447,0.10666651278734207,-0.1382920891046524
1782661215611851300,4.864851318359375,-0.19071577489376068,0.10054497420787811,-0.09210275858640671
1782661215621922300,4.87492236328125,-0.2084576040506363,0.037608519196510315,-0.01345677301287651
1782661215631993300,4.884993408203125,-0.2080051302909851,-0.005995415151119232,0.06712595373392105
1782661215642063000,4.89506298828125,-0.20721296966075897,-0.018208226189017296,0.09315872192382812
1782661215652134100,4.905134033203125,-0.1966111809015274,-0.011568432673811913,0.07276210188865662
1782661215662204200,4.9152041015625,-0.1768825352191925,0.03932361677289009,0.04970203712582588
1782661215672275200,4.925275146484375,-0.1511569321155548,0.12465662509202957,0.04876913130283356
1782661215682345200,4.93534521484375,-0.1406048834323883,0.18309861421585083,0.08498142659664154
1782661215692416300,4.945416259765625,-0.18233954906463623,0.21217581629753113,0.16879083216190338
1782661215702487300,4.9554873046875,-0.2686331868171692,0.2270665168762207,0.2873345911502838
1782661215712557300,4.965557373046875,-0.39436739683151245,0.22308722138404846,0.3530427813529968
1782661215722628400,4.97562841796875,-0.5434751510620117,0.25628501176834106,0.19598770141601562
1782661215732698000,4.985697998046875,-0.65477055311203,0.40788039565086365,-0.17605990171432495
1782661215742769200,4.99576904296875,-0.6652390956878662,0.7061744928359985,-0.5861018300056458
1782661215752839400,5.00583935546875,-0.5626389980316162,1.002610206604004,-0.8106638193130493
1782661215762910200,5.01591015625,-0.4339037537574768,1.081383466720581,-0.7826775908470154
1782661215772980200,5.025980224609375,-0.36665546894073486,0.8911498785018921,-0.533003568649292
1782661215783051300,5.03605126953125,-0.3656218647956848,0.5955033898353577,-0.1850123405456543
1782661215793122300,5.046122314453125,-0.36359572410583496,0.34395235776901245,0.12457214295864105
1782661215803192000,5.056192138671875,-0.33599668741226196,0.1934393048286438,0.36516594886779785
1782661215813263000,5.06626318359375,-0.294372022151947,0.11501240730285645,0.5259367227554321
1782661215823333400,5.07633349609375,-0.2395075410604477,0.09963682293891907,0.6188569664955139
1782661215833404400,5.086404296875,-0.17500577867031097,0.13141071796417236,0.6652436852455139
1782661215843474200,5.09647412109375,-0.10485581308603287,0.20026998221874237,0.6706042289733887
1782661215853545200,5.106545166015625,-0.0429820641875267,0.2782004773616791,0.6387600302696228
1782661215863616300,5.1166162109375,0.011668667197227478,0.3704981505870819,0.5653974413871765
1782661215873686300,5.126686279296875,0.06499633938074112,0.4569433033466339,0.4777078330516815
1782661215883757300,5.13675732421875,0.11978860199451447,0.4991486370563507,0.39858388900756836
1782661215893827000,5.1468271484375,0.1729346364736557,0.47471120953559875,0.33149006962776184
1782661215903898000,5.156898193359375,0.22532422840595245,0.402616411447525,0.2750528156757355
1782661215913968400,5.166968505859375,0.276520311832428,0.2919529974460602,0.23632830381393433
1782661215924039200,5.1770390625,0.3328689634799957,0.19256649911403656,0.2022567242383957
1782661215934109200,5.187109130859375,0.3969286382198334,0.09055304527282715,0.17694498598575592
1782661215944180200,5.19718017578125,0.46890345215797424,0.005587378516793251,0.1597074568271637
1782661215954251300,5.207251220703125,0.5318579077720642,-0.07798394560813904,0.1304457038640976
1782661215964321000,5.217321044921875,0.5616604089736938,-0.14176923036575317,0.09493547677993774
1782661215974392000,5.22739208984375,0.5608715415000916,-0.1866714507341385,0.05065163969993591
1782661215984462300,5.23746240234375,0.5324515700340271,-0.19838501513004303,-0.0075044878758490086
1782661215994533400,5.247533447265625,0.49877724051475525,-0.16108638048171997,-0.08518116921186447
1782661216004603100,5.25760302734375,0.4649915397167206,-0.10928744077682495,-0.1953309327363968
1782661216014674200,5.267674072265625,0.4250563979148865,-0.07071581482887268,-0.3215887248516083
1782661216024744200,5.277744140625,0.38201338052749634,-0.0029115667566657066,-0.41342535614967346
1782661216034815200,5.287815185546875,0.33431535959243774,0.0918026864528656,-0.4420071840286255
1782661216044886300,5.29788623046875,0.29123643040657043,0.187482088804245,-0.4271506667137146
1782661216054956300,5.307956298828125,0.25672292709350586,0.24507933855056763,-0.3851028084754944
1782661216065025300,5.318025390625,0.23456834256649017,0.24909593164920807,-0.3285229802131653
1782661216075096000,5.328095947265625,0.22446772456169128,0.19526179134845734,-0.24663510918617249
1782661216085166300,5.338166259765625,0.22428582608699799,0.12605369091033936,-0.17524933815002441
1782661216095237400,5.3482373046875,0.22215518355369568,0.07006384432315826,-0.1438433825969696
1782661216105307400,5.358307373046875,0.21635082364082336,0.0286245197057724,-0.14540985226631165
1782661216115378200,5.368378173828125,0.20285309851169586,0.02534155547618866,-0.15713360905647278
1782661216125448200,5.3784482421875,0.17300012707710266,0.041614532470703125,-0.17249658703804016
1782661216135519200,5.388519287109375,0.15011954307556152,0.06322439759969711,-0.17519138753414154
1782661216145590300,5.39859033203125,0.14272820949554443,0.08214455842971802,-0.15611782670021057
1782661216155660000,5.408659912109375,0.13908228278160095,0.09051496535539627,-0.13659308850765228
1782661216165731000,5.41873095703125,0.1250716596841812,0.08189111948013306,-0.1380530297756195
1782661216175801300,5.42880126953125,0.11697955429553986,0.04797496274113655,-0.1713819056749344
1782661216185872400,5.438872314453125,0.11352410912513733,-0.002609116490930319,-0.2087058424949646
1782661216195942100,5.448942138671875,0.09938741475343704,-0.03945128992199898,-0.23010176420211792
1782661216206013200,5.45901318359375,0.08764580637216568,-0.05866945907473564,-0.21930956840515137
1782661216216083200,5.469083251953125,0.06319548189640045,-0.06936080753803253,-0.18228892982006073
1782661216226154200,5.479154296875,0.04546681419014931,-0.07531190663576126,-0.13334429264068604
1782661216236225000,5.48922509765625,0.035521358251571655,-0.09320905804634094,-0.10635112971067429
1782661216246295300,5.49929541015625,0.02536752261221409,-0.1240234300494194,-0.10272736847400665
1782661216256366300,5.509366455078125,0.003440090222284198,-0.15328899025917053,-0.11598797887563705
1782661216266436400,5.519436279296875,-0.02102503925561905,-0.1632518768310547,-0.10930904000997543
1782661216276507100,5.529507080078125,-0.0389423742890358,-0.12577436864376068,-0.09002099186182022
1782661216286577200,5.5395771484375,-0.03625204786658287,-0.08795855194330215,-0.07976941764354706
1782661216296648200,5.549648193359375,-0.029287228360772133,-0.06332661211490631,-0.08005429059267044
1782661216306718500,5.559718505859375,-0.028514379635453224,-0.07695187628269196,-0.06493259221315384
1782661216316789200,5.569789306640625,-0.033960070461034775,-0.09475981444120407,-0.0312914215028286
1782661216326860300,5.5798603515625,-0.04482204094529152,-0.09663095325231552,0.0174952931702137
1782661216336930300,5.589930419921875,-0.044315680861473083,-0.09575903415679932,0.0631478801369667
1782661216347001300,5.60000146484375,-0.034580498933792114,-0.09121781587600708,0.11172633618116379
1782661216357071000,5.610071044921875,-0.004322166554629803,-0.09818508476018906,0.14958158135414124
1782661216367142100,5.62014208984375,0.026075154542922974,-0.11296483129262924,0.1838516741991043
1782661216377212200,5.630212158203125,0.03898574411869049,-0.12060854583978653,0.17853322625160217
1782661216387283200,5.640283203125,0.034319616854190826,-0.13088995218276978,0.13718312978744507
1782661216397354200,5.650354248046875,0.008681103587150574,-0.157960444688797,0.07412207871675491
1782661216407424300,5.66042431640625,-0.051236290484666824,-0.19482925534248352,-0.022083017975091934
1782661216417495300,5.670495361328125,-0.11845551431179047,-0.2016226202249527,-0.11646916717290878
1782661216427565300,5.6805654296875,-0.17713746428489685,-0.1725102663040161,-0.18918198347091675
1782661216437636000,5.690635986328125,-0.21582737565040588,-0.10535608977079391,-0.24862103164196014
1782661216447707100,5.70070703125,-0.2561822533607483,-0.01880202814936638,-0.3064771294593811
1782661216457778200,5.710778076171875,-0.2876341938972473,0.09139371663331985,-0.34743601083755493
1782661216467848200,5.72084814453125,-0.2782893776893616,0.24709312617778778,-0.3437795341014862
1782661216477919200,5.730919189453125,-0.24907183647155762,0.6092590689659119,-0.09320086240768433
1782661216487989200,5.7409892578125,-0.3311634361743927,0.5877860188484192,0.1745341420173645
1782661216498060300,5.751060302734375,-0.40238675475120544,0.14513958990573883,0.3776664733886719
1782661216508130300,5.76113037109375,-0.3497917354106903,-0.2886374890804291,0.525929868221283
1782661216518201300,5.771201416015625,-0.2348281443119049,-0.4877444803714752,0.6091318130493164
1782661216528272100,5.781272216796875,-0.13057991862297058,-0.5325315594673157,0.5653582215309143
1782661216538342100,5.791342041015625,-0.06611915677785873,-0.5435847640037537,0.44633936882019043
1782661216548413200,5.8014130859375,-0.03337769955396652,-0.5937511324882507,0.3123840391635895
1782661216558483200,5.811483154296875,0.008416618220508099,-0.6740701794624329,0.18928368389606476
1782661216568554200,5.82155419921875,0.09094097465276718,-0.6560531258583069,0.13845111429691315
1782661216578624300,5.831624267578125,0.16152405738830566,-0.4851391911506653,0.20483465492725372
1782661216588694800,5.84169482421875,0.137710839509964,-0.4403129518032074,0.2603885233402252
