time,seconds_elapsed,z,y,x
1782812001597469700,0.0804697265625,0.0008846246637403965,-0.0017032780451700091,0.0006991073023527861
1782812001607540700,0.090540771484375,0.00013201538240537047,0.00034735596273094416,0.0026253717951476574
1782812001617611800,0.10061181640625,-0.002069557551294565,0.00016843900084495544,0.002165499608963728
1782812001627682800,0.110682861328125,0.0003778875106945634,-0.000296815182082355,-0.0003597098693717271
1782812001637755000,0.1207548828125,0.0000945946667343378,0.000344268511980772,0.0008240648312494159
1782812001647826000,0.130825927734375,0.002334313001483679,0.00048328551929444075,0.00008929864270612597
1782812001657896700,0.140896728515625,0.0009178280597552657,0.002404663246124983,0.0003516777651384473
1782812001667967700,0.1509677734375,-0.0012174946023151278,0.0008754762820899487,-0.0009066658094525337
1782812001678038800,0.161038818359375,-0.0003080222522839904,0.0014566709287464619,-0.0009210276184603572
1782812001688109800,0.17110986328125,0.0012651069555431604,-0.002581746783107519,0.001284602447412908
1782812001698182000,0.181181884765625,0.001462843851186335,-0.0011568051995709538,0.00004195008659735322
1782812001708253000,0.1912529296875,-0.0011310749687254429,-0.000027092290110886097,-0.0007759066647849977
1782812001718324000,0.201323974609375,0.0006573027931153774,0.001390367280691862,0.00013158563524484634
1782812001728394800,0.211394775390625,-0.00010755704715847969,0.0007946181576699018,-0.0009560493053868413
1782812001738465800,0.2214658203125,-0.0013265645829960704,-0.0003651791485026479,0.00222791638225317
1782812001748536800,0.231536865234375,0.0002841153182089329,0.0007086073746904731,0.00276933703571558
1782812001758609000,0.24160888671875,-0.000793544459156692,-0.0002605962799862027,-0.0006802992429584265
1782812001768680000,0.251679931640625,0.000022980733774602413,0.0009138578316196799,0.0014014937914907932
1782812001778751000,0.2617509765625,-0.0004053929587826133,-0.0001215875381603837,0.0013050335692241788
1782812001788822000,0.271822021484375,-0.0016666660085320473,0.002012669574469328,0.0006573527352884412
1782812001798893000,0.28189306640625,0.001565223908983171,-0.0004844981012865901,-0.0031769617926329374
1782812001808963800,0.2919638671875,0.0003867751220241189,-0.00012683554086834192,0.0009586609085090458
1782812001819035000,0.302034912109375,0.0005392447928898036,0.0008901313412934542,-0.0006633499870076776
1782812001829106700,0.312106689453125,-0.0007649051258340478,0.00006614928133785725,0.0003686249256134033
1782812001839177700,0.322177734375,-0.00047270848881453276,-0.0021373950876295567,0.00106058397796005
1782812001849248800,0.332248779296875,-0.00040559680201113224,-0.00048596912529319525,-0.0001418332103639841
1782812001859319800,0.34231982421875,0.0002273379941470921,0.0011141442228108644,0.0005316216847859323
1782812001869390800,0.352390869140625,0.0008097713580355048,0.00034209375735372305,0.000810454657766968
1782812001879462000,0.3624619140625,-0.0004517883062362671,0.00036134058609604836,-0.0015500615118071437
1782812001889533700,0.37253369140625,0.00039909168845042586,0.0007437705062329769,-0.0003108926466666162
1782812001899604700,0.382604736328125,-0.001395436585880816,0.001846548286266625,-0.0020079361274838448
1782812001909675800,0.39267578125,-0.0007365706842392683,-0.00043444905895739794,0.00043258455116301775
1782812001919746800,0.402746826171875,-0.0005736061139032245,0.0013205306604504585,0.000870071875397116
1782812001929817900,0.41281787109375,0.0004943214589729905,0.00009414507076144218,0.00012625101953744888
1782812001939889000,0.422888916015625,-0.0008861767128109932,-0.00020937493536621332,0.00022455170983448625
1782812001949959700,0.432959716796875,0.0009447464253753424,-0.0014152541989460588,-0.0009696097113192081
1782812001960031700,0.44303173828125,0.00010447052773088217,0.000802305294200778,0.0014613706152886152
1782812001970102800,0.453102783203125,-0.0008585285395383835,0.0015208261320367455,0.0020406083203852177
1782812001980173800,0.463173828125,-0.0024781720712780952,-0.0004301121225580573,0.0005704329814761877
1782812001990244900,0.473244873046875,0.0007258770056068897,0.001168050803244114,0.0010516660986468196
1782812002000316000,0.48331591796875,0.00007166946306824684,0.0010871211998164654,-0.002508855424821377
1782812002010387000,0.493386962890625,0.00042400567326694727,-0.0002825426636263728,0.00031595962354913354
1782812002020459000,0.503458984375,0.0004469833802431822,-0.0010826889192685485,-0.0011237473227083683
1782812002030529800,0.51352978515625,-0.0018252256559208035,0.0010750041110441089,0.0016829580999910831
1782812002040600800,0.523600830078125,-0.0018849927000701427,-0.001017279690131545,0.0013601386453956366
1782812002050671900,0.533671875,0.0007257040124386549,-0.0006569540128111839,-0.00031259277602657676
1782812002060743000,0.543742919921875,-0.0013638101518154144,0.0006679234793409705,0.0017853302415460348
1782812002070814000,0.55381396484375,0.0006490069790743291,-0.0005853602197021246,0.00004894926678389311
1782812002080885000,0.563885009765625,-0.001712723053060472,0.000794445862993598,0.00030925474129617214
1782812002090956800,0.573956787109375,-0.0015231060096994042,0.0006439773133024573,0.0009923555189743638
1782812002101027800,0.58402783203125,0.00026775116566568613,-0.00023496185895055532,-0.0010446185478940606
1782812002111099000,0.594098876953125,-0.0004659497644752264,-0.0002818336943164468,0.0005463538109324872
1782812002121170000,0.604169921875,-0.0014856383204460144,0.0020312073174864054,0.0019430771935731173
1782812002131241000,0.614240966796875,-0.0008115920936688781,-0.00028015009593218565,0.0005007091094739735
1782812002141312000,0.62431201171875,-0.0023899460211396217,0.0018577651353552938,-0.0005501564010046422
1782812002151383800,0.6343837890625,0.0008005209965631366,-0.0027210074476897717,0.001428305869922042
1782812002161454800,0.644454833984375,0.0011642796453088522,0.001016712747514248,-0.003165252972394228
1782812002171526000,0.65452587890625,-0.0033106300979852676,-0.0015186166856437922,-0.00007864934741519392
1782812002181596700,0.6645966796875,-0.0013158215442672372,0.00023436755873262882,-0.0012682449305430055
1782812002191667700,0.674667724609375,-0.0005517605459317565,0.0015038964338600636,-0.0003843417507596314
1782812002201738800,0.68473876953125,0.0006028417265042663,0.0033968985080718994,0.0014593221712857485
1782812002211809800,0.694809814453125,0.000043311621993780136,0.0012357434025034308,-0.0015058412682265043
1782812002221881900,0.7048818359375,-0.0006732197944074869,-0.001651557395234704,-0.0017787015531212091
1782812002231953000,0.714952880859375,0.0002146781189367175,0.0004566009156405926,-0.0005342063959687948
1782812002242024000,0.72502392578125,-0.002354455180466175,-0.0003310171887278557,0.00024246860994026065
1782812002252094700,0.7350947265625,0.00003653089515864849,-0.0032580976840108633,-0.0006472935201600194
1782812002262165800,0.745165771484375,0.0016277236863970757,-0.0005674451822414994,-0.0008745358209125698
1782812002272236800,0.75523681640625,0.00321763101965189,-0.002141906414180994,0.0010538590140640736
1782812002282308900,0.765308837890625,0.0007304809987545013,0.00005488272290676832,-0.0002663213526830077
1782812002292380000,0.7753798828125,0.0005744197405874729,0.00032332935370504856,0.0017134725349023938
1782812002302451000,0.785450927734375,-0.0009983137715607882,-0.0017611499642953277,-0.0009348720777779818
1782812002312522000,0.79552197265625,0.0014504629652947187,-0.0004309009527787566,0.001420693821273744
1782812002322593000,0.805593017578125,-0.002167634665966034,-0.0016702788416296244,-0.0015660696662962437
1782812002332663800,0.815663818359375,0.0009842166909947991,0.0016227199230343103,-0.0030803431291133165
1782812002342734800,0.82573486328125,-0.0003611320862546563,-0.0005225560162216425,0.00039966870099306107
1782812002352807000,0.835806884765625,-0.0015315912896767259,0.0003176713362336159,0.0016649364260956645
1782812002362878200,0.845878173828125,0.0005854596383869648,0.00102725881151855,-0.0007850592955946922
1782812002372949000,0.855948974609375,0.00035403092624619603,-0.0009096582653000951,-0.0006159485783427954
1782812002383020000,0.86602001953125,-0.0015251864679157734,-0.0004558736691251397,-0.0019492924911901355
1782812002393091000,0.876091064453125,-0.00013315211981534958,0.0005878190277144313,0.0010992280440405011
1782812002403162000,0.886162109375,0.00021008047042414546,-0.0008651488460600376,0.0013336767442524433
1782812002413233200,0.896233154296875,-0.001356124528683722,0.00011862290557473898,-0.0009324069833382964
1782812002423305000,0.906304931640625,0.0025521344505250454,0.0006094605196267366,-0.0002631778479553759
1782812002433376000,0.9163759765625,0.0005076255183666945,0.0007215796504169703,0.0018692152807489038
1782812002443446800,0.92644677734375,-0.0017763173673301935,-0.0005296111339703202,-0.002048881258815527
1782812002453517800,0.936517822265625,-0.0010213111527264118,-0.0038793347775936127,-0.0008110441267490387
1782812002463588900,0.9465888671875,-0.0002189007354900241,0.002187198493629694,-0.0012868614867329597
1782812002473660000,0.956659912109375,0.002304977038875222,-0.00029353611171245575,0.0009901414159685373
1782812002483732000,0.96673193359375,-0.0023896126076579094,-0.0003204107051715255,-0.0020510228350758553
1782812002493803000,0.976802978515625,-0.0001791887916624546,-0.0000050924718379974365,-0.00045738715562038124
1782812002503874000,0.9868740234375,0.0013346439227461815,0.0005282785277813673,0.00009012833470478654
1782812002513944800,0.99694482421875,0.0008893634076230228,-0.0005838575307279825,-0.0007311905501410365
1782812002524015900,1.007015869140625,0.0016405439237132668,-0.0027399896644055843,-0.0006712133181281388
1782812002534087000,1.0170869140625,-0.0012215552851557732,-0.00008348643314093351,-0.00009969895472750068
1782812002544158000,1.027157958984375,0.0010955407051369548,-0.0007221971172839403,0.0015994567656889558
1782812002554230000,1.03722998046875,0.0012843587901443243,-0.0017493783961981535,-0.0003936529392376542
1782812002564301000,1.047301025390625,-0.001848225831054151,-0.0012379852123558521,0.0007501327199861407
1782812002574372000,1.0573720703125,0.0005060085095465183,0.000058974139392375946,-0.0003257843491155654
1782812002584443100,1.067443115234375,0.000550897151697427,0.00046740821562707424,0.00042658287566155195
1782812002594514000,1.077513916015625,-0.002469127532094717,-0.0011504620779305696,0.0004833081620745361
1782812002604585000,1.0875849609375,0.000018378952518105507,-0.0005508223548531532,-0.002611109521239996
1782812002614656000,1.097656005859375,-0.000774177722632885,-0.00168959004804492,0.0011503391433507204
1782812002624728000,1.10772802734375,-0.0005417595384642482,0.000046558212488889694,0.00006418226985260844
1782812002634799000,1.117799072265625,-0.0002895582001656294,-0.0003470570081844926,-0.000487358367536217
1782812002644870100,1.1278701171875,0.0014911503531038761,0.000010525691322982311,0.0013343810569494963
1782812002654941200,1.137941162109375,0.0005116396932862699,-0.0010022744536399841,0.00019960809731855989
1782812002665012000,1.148011962890625,-0.00032189046032726765,-0.000980188837274909,-0.0004607974842656404
1782812002675083000,1.1580830078125,-0.00030644412618130445,0.00017988402396440506,0.001891572610475123
1782812002685154000,1.168154052734375,0.0011099985567852855,0.0011969358893111348,0.0009007296175695956
1782812002695225900,1.178225830078125,-0.00016086199320852757,0.0008296859450638294,-0.0012154182186350226
1782812002705297000,1.188296875,-0.000357201904989779,0.0007137246429920197,0.0011074627982452512
1782812002715368000,1.198367919921875,-0.0012935693375766277,0.0011944251600652933,0.0005319536430761218
1782812002725439000,1.20843896484375,0.0026046144776046276,-0.0007770661031827331,-0.0008511402411386371
1782812002735509800,1.218509765625,-0.0012628280092030764,0.0010935382451862097,-0.0005323598743416369
1782812002745580800,1.228580810546875,0.0023068732116371393,-0.002004493959248066,0.000001470732968300581
1782812002755652900,1.23865283203125,0.0021500131115317345,0.0005502763669937849,-0.0005937457899563015
1782812002765724000,1.248723876953125,-0.0001584672136232257,0.0005685365758836269,0.0006645131506957114
1782812002775795000,1.258794921875,0.0013507462572306395,0.0009786633308976889,-0.0020034415647387505
1782812002785866000,1.268865966796875,-0.00006987666711211205,-0.0004400534089654684,0.002047222340479493
1782812002795937000,1.27893701171875,-0.001390538178384304,-0.0018659099005162716,-0.00041913118911907077
1782812002806008000,1.289008056640625,0.0008831488667055964,-0.0027101137675344944,0.0010726378532126546
1782812002816078800,1.299078857421875,-0.0003786567831411958,0.003022073768079281,0.0015309677692130208
1782812002826151000,1.30915087890625,-0.0025081478524953127,-0.0008557421388104558,0.000987050705589354
1782812002836222000,1.319221923828125,0.0013129557482898235,0.0012119361199438572,-0.0011021990794688463
1782812002846293000,1.32929296875,0.001551700523123145,-0.0007586362771689892,0.0003369618207216263
1782812002856364000,1.339364013671875,-0.00044061033986508846,0.0007353972177952528,-0.0013485527597367764
1782812002866435000,1.34943505859375,-0.0007313601672649384,-0.0007776616839691997,-0.0006025376496836543
1782812002876506000,1.359506103515625,0.0021754801273345947,-0.0005001601530238986,0.0027088369242846966
1782812002886577000,1.369576904296875,0.00040127173997461796,0.0006645780522376299,-0.0001501109218224883
1782812002896649000,1.37964892578125,-0.0018877151887863874,-0.0015173498541116714,-0.0002454520727042109
1782812002906720000,1.389719970703125,-0.002050065901130438,-0.0005360608920454979,-0.0005931246560066938
1782812002916791000,1.399791015625,-0.0004345923662185669,0.0010940599022433162,-0.0008242870680987835
1782812002926862000,1.409862060546875,-0.0009685573168098927,0.0020788090769201517,0.00030313944444060326
1782812002936933000,1.41993310546875,-0.00043619133066385984,0.0017451150342822075,-0.0031552414875477552
1782812002947004200,1.430004150390625,-0.0019752406515181065,0.0008157829288393259,0.0006985965301282704
1782812002957076000,1.440075927734375,0.0023140464909374714,-0.0017736086156219244,0.0020677277352660894
1782812002967146800,1.450146728515625,0.0016829695086926222,-0.0017526294104754925,0.003168134717270732
1782812002977217800,1.4602177734375,-0.0011112191714346409,0.0007755093392916024,-0.0009091650135815144
1782812002987288800,1.470288818359375,-0.0012014196254312992,0.0014850805746391416,0.0006219906499609351
1782812002997359900,1.48035986328125,-0.0006301716202870011,0.0013007898814976215,-0.00010744918836280704
1782812003007431000,1.490430908203125,-0.0013203320559114218,0.0002219812013208866,0.00045681960182264447
1782812003017502000,1.500501953125,-0.0023222132585942745,0.0010342453606426716,-0.001138946507126093
1782812003027573000,1.510572998046875,0.00022788846399635077,-0.0009595149895176291,0.00038183596916496754
1782812003037644800,1.520644775390625,-0.0007340452866628766,-0.001625305158086121,-0.000473571359179914
1782812003047715800,1.5307158203125,-0.00003082863986492157,0.0007768840878270566,-0.0010700586717575788
1782812003057787000,1.540786865234375,-0.0003445489564910531,-0.0007363241165876389,0.0006799044203944504
1782812003067858000,1.55085791015625,-0.0007041892968118191,-0.0009472912643104792,-0.0005157305276952684
1782812003077929000,1.560928955078125,-0.00035345100332051516,-0.0002596629783511162,-0.000767399207688868
1782812003088000000,1.571,-0.0009377484675496817,0.00020772172138094902,-0.0009530215756967664
1782812003098072000,1.581072021484375,0.0012431141221895814,-0.002686335239559412,-0.00003822572762146592
1782812003108143000,1.59114306640625,0.0012901569716632366,0.0014860283117741346,0.0014465174172073603
1782812003118214000,1.6012138671875,-0.0024326760321855545,0.0017150600906461477,-0.001947947544977069
1782812003128285000,1.611284912109375,-0.0007223938591778278,0.0008127811597660184,-0.0021282436791807413
1782812003138356000,1.62135595703125,0.002321066567674279,-0.00040960987098515034,-0.001115709776058793
1782812003148427000,1.631427001953125,-0.0005446538561955094,-0.00025920465122908354,-0.00025186853599734604
1782812003158498000,1.641498046875,0.0031171925365924835,-0.0019367298809811473,0.0010046109091490507
1782812003168570000,1.651570068359375,0.0012179134646430612,-0.0019460170296952128,0.0015215093735605478
1782812003178641200,1.66164111328125,-0.0012609567493200302,-0.00030391186010092497,0.001846414990723133
1782812003188712000,1.6717119140625,0.00040345441084355116,-0.0008462035330012441,0.0009932806715369225
1782812003198783000,1.681782958984375,0.0017645959742367268,-0.002048887312412262,0.0007338888244703412
1782812003208854000,1.69185400390625,-0.0010754539398476481,-0.0012395244557410479,-0.0017892916221171618
1782812003218925000,1.701925048828125,-0.00206828024238348,0.0007376063149422407,0.0016174239572137594
1782812003228996000,1.71199609375,-0.00019750301726162434,-0.0013242748100310564,0.0031653083860874176
1782812003239068000,1.72206787109375,-0.0024651847779750824,-0.0003719283267855644,0.00021559122251346707
1782812003249139000,1.732138916015625,-0.0018771836766973138,-0.00011198362335562706,0.0008812455926090479
1782812003259210000,1.7422099609375,-0.0015288422582671046,-0.0011844385880976915,-0.0019499609479680657
1782812003269281000,1.752281005859375,-0.0009134110296145082,-0.0025895023718476295,-0.000586779962759465
1782812003279352000,1.76235205078125,-0.002671896480023861,0.0010550334118306637,-0.00012179202167317271
1782812003289423000,1.772423095703125,-0.001541066449135542,0.0007779913139529526,0.00013081857468932867
1782812003299494100,1.782494140625,-0.002526702359318733,-0.0009759664535522461,-0.0005299116601236165
1782812003309566000,1.79256591796875,-0.0012882293667644262,-0.000002641347236931324,0.000283227302134037
1782812003319637000,1.802636962890625,0.00033336953492835164,0.0021963308099657297,-0.0034912710543721914
1782812003329708000,1.8127080078125,-0.00022936903405934572,-0.00041320023592561483,0.0006740347598679364
1782812003339778800,1.82277880859375,-0.0002586637856438756,0.00035885011311620474,0.00038082076935097575
1782812003349849900,1.832849853515625,-0.0011191392550244927,-0.001981175970286131,0.0009845888707786798
1782812003359921000,1.8429208984375,-0.0009692033054307103,0.0020276803988963366,0.00016833003610372543
1782812003369991400,1.852991455078125,-0.00031746644526720047,-0.00031162798404693604,0.003028377192094922
1782812003380063500,1.8630634765625,-0.0010253346990793943,0.0008236776920966804,-0.0008457232033833861
1782812003390134500,1.873134521484375,-0.0003575602313503623,0.0007252058130688965,-0.0005753394216299057
1782812003400205300,1.883205322265625,0.0011987910838797688,-0.0010684331646189094,-0.0010658936807885766
1782812003410276400,1.8932763671875,0.00016360520385205746,-0.002357710152864456,0.0005739686312153935
1782812003420347400,1.903347412109375,0.00007119349902495742,0.0006561892805621028,0.001610470935702324
1782812003430418400,1.91341845703125,-0.0006842869333922863,0.0008120913407765329,0.0013843582710251212
1782812003440489500,1.923489501953125,-0.0005942721618339419,-0.0016721051651984453,-0.002096925862133503
1782812003450561500,1.9335615234375,-0.0013555949553847313,-0.0009282582905143499,0.001394297112710774
1782812003460632600,1.943632568359375,0.0008415128686465323,0.001345282420516014,0.0007612637709826231
1782812003470703400,1.953703369140625,-0.0010321778245270252,-0.0007331542437896132,0.0017378743505105376
1782812003480774400,1.9637744140625,0.0001745005720295012,0.00006153318099677563,-0.001991349970921874
1782812003490845400,1.973845458984375,0.0025826292112469673,-0.003071265295147896,0.001362270675599575
1782812003500916500,1.98391650390625,-0.003011607099324465,0.0021924725733697414,-0.0021581617183983326
1782812003510987500,1.993987548828125,-0.0002639488084241748,-0.0011138948611915112,0.0014383690431714058
1782812003521059600,2.0040595703125,0.000151770596858114,0.0005021111574023962,0.0009006768232211471
1782812003531130600,2.014130615234375,0.000989784486591816,-0.0014916514046490192,0.00266286195255816
1782812003541201700,2.02420166015625,-0.0024182626511901617,-0.0028213676996529102,-0.002029628027230501
1782812003551272400,2.0342724609375,0.000269782030954957,-0.002079152036458254,-0.0009935939451679587
1782812003561343500,2.044343505859375,-0.0009118625894188881,0.000889207178261131,-0.0007658937247470021
1782812003571414500,2.05441455078125,0.0011330697452649474,-0.0008807842386886477,-0.0018873342778533697
1782812003581485600,2.064485595703125,-0.00035297416616231203,0.0007211072370409966,0.00034039997262880206
1782812003591557400,2.074557373046875,-0.0003492241958156228,0.00041098822839558125,-0.001192393247038126
1782812003601628400,2.08462841796875,0.00043800618732348084,0.000002725631929934025,0.0006052405806258321
1782812003611699500,2.094699462890625,-0.000022188061848282814,0.0016885065706446767,-0.00015509192598983645
1782812003621770500,2.1047705078125,0.002354150637984276,-0.0013648077147081494,0.0018976725405082107
1782812003631841500,2.114841552734375,-0.000764944008551538,-0.00004799070302397013,0.0006633978337049484
1782812003641912600,2.12491259765625,-0.0004709310596808791,-0.000004048575647175312,-0.001033302047289908
1782812003651983600,2.134983642578125,0.0013795095728710294,-0.00016758928541094065,0.00007676583481952548
1782812003662055400,2.145055419921875,0.00040559162152931094,0.00041005038656294346,-0.0014220612356439233
1782812003672126500,2.15512646484375,0.0005008378648199141,0.000007635215297341347,0.0021985373459756374
1782812003682197500,2.165197509765625,0.0012127008521929383,-0.00119211885612458,-0.00013545708497986197
1782812003692268300,2.175268310546875,0.0012492809910327196,0.0010089953429996967,0.0006658570491708815
1782812003702339300,2.18533935546875,-0.000021845800802111626,-0.0011830526636913419,0.0018408438190817833
1782812003712410400,2.195410400390625,0.0001514555187895894,-0.0002147536724805832,0.0020152563229203224
1782812003722481400,2.2054814453125,-0.00005680369213223457,0.0028225816786289215,0.000786207674536854
1782812003732553500,2.215553466796875,0.0011664056219160557,-0.0018639342160895467,0.001359188579954207
1782812003742624500,2.22562451171875,0.00023323396453633904,-0.0005155758699402213,0.00012880814028903842
1782812003752695600,2.235695556640625,-0.0011564845917746425,0.00029086985159665346,-0.0001375603023916483
1782812003762766600,2.2457666015625,-0.0018835273804143071,-0.0009211348369717598,-0.0013730006758123636
1782812003772837400,2.25583740234375,-0.0008912896737456322,0.0015477108536288142,-0.0017648764187470078
1782812003782908400,2.265908447265625,-0.001256941701285541,0.001014546025544405,-0.0002311619755346328
1782812003792979500,2.2759794921875,0.0005059493123553693,0.001229897141456604,0.0012590282130986452
1782812003803051500,2.286051513671875,-0.0011819620849564672,0.0014365584356710315,-0.0014952130150049925
1782812003813122600,2.29612255859375,0.0008320155320689082,-0.0014177283737808466,0.0005166277987882495
1782812003823193600,2.306193603515625,-0.0016516484320163727,0.0011327809188514948,-0.0005579576827585697
1782812003833264600,2.3162646484375,0.0008566791657358408,-0.000545053044334054,0.0003681605448946357
1782812003843335400,2.32633544921875,-0.0024847891181707382,-0.0004971160087734461,-0.0008987052133306861
1782812003853406500,2.336406494140625,-0.0026420708745718002,0.0019857119768857956,-0.0010233985958620906
1782812003863477500,2.3464775390625,0.001535629853606224,-0.0018726758426055312,-0.000450552674010396
1782812003873549600,2.356549560546875,-0.0009922097669914365,0.0009179897024296224,-0.0017480666283518076
1782812003883620600,2.36662060546875,-0.0012396174715831876,-0.001961686182767153,-0.0011523175053298473
1782812003893691600,2.376691650390625,0.0002552424557507038,-0.0027799317613244057,0.000736965099349618
1782812003903762700,2.3867626953125,-0.0028127192053943872,0.001256355200894177,-0.0018103483598679304
1782812003913833500,2.39683349609375,-0.001281849923543632,0.0017665511695668101,-0.000734558911062777
1782812003923904500,2.406904541015625,0.0005272353300824761,-0.0006811601342633367,0.001666813506744802
1782812003933975600,2.4169755859375,-0.0009503767360001802,0.003227242734283209,-0.0012989961542189121
1782812003944047400,2.42704736328125,-0.00036820978857576847,-0.0011643097968772054,-0.0005738174659200013
1782812003954118400,2.437118408203125,-0.0014727930538356304,0.0014101563720032573,-0.0007865318330004811
1782812003964189400,2.447189453125,-0.0004938150523230433,-0.0003350130282342434,-0.0003529692185111344
1782812003974260500,2.457260498046875,-0.0015158234164118767,-0.0017991531640291214,0.0012424223823472857
1782812003984331300,2.467331298828125,-0.0025715003721415997,-0.0012489440850913525,-0.000779982190579176
1782812003994402300,2.47740234375,-0.0002793516032397747,0.00017565430607646704,-0.002095805713906884
1782812004004473300,2.487473388671875,-0.00282426830381155,0.00019323115702718496,0.00047307938802987337
1782812004014545400,2.49754541015625,-0.0013845994835719466,0.001973644131794572,-0.0021506240591406822
1782812004024616400,2.507616455078125,-0.0001760569866746664,0.000026074470952153206,0.0003783138236030936
1782812004034687500,2.5176875,-0.001145269488915801,0.00006876722909510136,0.0004996609641239047
1782812004044758500,2.527758544921875,0.000698969466611743,-0.000780248548835516,-0.000049482856411486864
1782812004054829600,2.53782958984375,0.0013123061507940292,-0.0020993859507143497,-0.0014685457572340965
1782812004064900400,2.547900390625,-0.0015258246567100286,-0.0003816472599282861,0.0000313465716317296
1782812004074971400,2.557971435546875,-0.0003378024557605386,0.0028314003720879555,-0.0018732441822066903
1782812004085043500,2.56804345703125,-0.0009601832134649158,-0.00045893527567386627,-0.000347519206115976
1782812004095114500,2.578114501953125,-0.0005531406495720148,-0.001672522397711873,-0.000050689501222223043
1782812004105185500,2.588185546875,0.0008665904751978815,-0.0007140508387237787,-0.0008965094457380474
1782812004115256600,2.598256591796875,0.0006760215619578958,-0.000570096424780786,-0.0014316507149487734
1782812004125327600,2.60832763671875,-0.0003519586753100157,0.00006799690891057253,0.0006469465442933142
1782812004135398400,2.6183984375,0.0008588896016590297,-0.0019772991072386503,-0.0029660940635949373
1782812004145469400,2.628469482421875,0.0017097694799304008,0.0009614992304705083,0.0014289205428212881
1782812004155541500,2.63854150390625,0.00027023436268791556,-0.0007564026163890958,0.0028932644054293633
1782812004165612500,2.648612548828125,0.00042709452100098133,0.002120610326528549,-0.0008809674764052033
1782812004175683600,2.65868359375,-0.0007652170024812222,0.0005053768400102854,-0.0008072179043665528
1782812004185754600,2.668754638671875,0.0014334887964650989,-0.0006994372233748436,0.0007438070606440306
1782812004195825700,2.67882568359375,-0.001279734424315393,0.0011169936042279005,0.0030896514654159546
1782812004205896400,2.688896484375,-0.0005217988509684801,-0.00009208149276673794,-0.00044782549957744777
1782812004215967500,2.698967529296875,-0.0007505923276767135,0.0000029924558475613594,-0.002191531239077449
1782812004226039300,2.709039306640625,-0.002115196082741022,-0.0014636104460805655,-0.002126816427335143
1782812004236110300,2.7191103515625,-0.0012245111865922809,0.0003841160796582699,0.000654328556265682
1782812004246181400,2.729181396484375,-0.0011371594155207276,0.0007111523300409317,0.002046895446255803
1782812004256252400,2.73925244140625,-0.002737168688327074,-0.0009419618872925639,-0.0020130029879510403
1782812004266323500,2.749323486328125,-0.000021809828467667103,-0.0011275840224698186,-0.0007844866486266255
1782812004276394200,2.759394287109375,-0.001028793747536838,-0.0008371217409148812,0.00010148511501029134
1782812004286465300,2.76946533203125,0.0014532722998410463,0.0014963399153202772,-0.0021504838950932026
1782812004296536300,2.779536376953125,-0.0014368400443345308,-0.0005994306411594152,-0.0008429897716268897
1782812004306608400,2.7896083984375,-0.00048795563634485006,-0.0004905073437839746,-0.0011007838184013963
1782812004316679400,2.799679443359375,-0.001554802991449833,-0.00033493724185973406,-0.0013046490494161844
1782812004326750500,2.80975048828125,0.0013765383046120405,0.0005588196218013763,-0.00022074245498515666
1782812004336821500,2.819821533203125,-0.0006720792734995484,0.0005048330640420318,-0.0009889809880405664
1782812004346892500,2.829892578125,0.0008592383237555623,-0.00105870864354074,-0.0018153599230572581
1782812004356963300,2.83996337890625,0.0004768526996485889,-0.00034475047141313553,-0.0007586526335217059
1782812004367034400,2.850034423828125,0.0004646021989174187,-0.0005676569417119026,-0.0011706436052918434
1782812004377106400,2.8601064453125,-0.0036180063616484404,0.003822741098701954,-0.0004985540872439742
1782812004387177500,2.870177490234375,-0.0009684273973107338,0.0002948514884337783,0.0010593951446935534
1782812004397248500,2.88024853515625,-0.001394895021803677,-0.0007534074829891324,-0.00024497180129401386
1782812004407319600,2.890319580078125,-0.00016131869051605463,-0.00008069293107837439,-0.0014620363945141435
1782812004417390600,2.900390625,0.00034806341864168644,0.00019360031001269817,-0.00023645497276447713
1782812004427461400,2.91046142578125,-0.0014961756533011794,0.0011739099863916636,-0.0003581614582799375
1782812004437532400,2.920532470703125,-0.0025573098100721836,-0.0005877056391909719,0.0008047926821745932
1782812004447604500,2.9306044921875,0.002556225750595331,-0.0012231358559802175,-0.0010450389236211777
1782812004457675500,2.940675537109375,0.00013542803935706615,0.0008414048352278769,0.000877064245287329
1782812004467746600,2.95074658203125,-0.0024968404322862625,0.000889075396116823,0.0004807859077118337
1782812004477817600,2.960817626953125,0.00010609824676066637,-0.000004679779522120953,0.00019924459047615528
1782812004487888600,2.970888671875,0.0007724211900494993,0.0014640535227954388,0.00045703857904300094
1782812004497959400,2.98095947265625,-0.0007825980428606272,-0.0007903925143182278,0.000171863182913512
1782812004508030500,2.991030517578125,-0.001124281669035554,-0.0005877260118722916,-0.0007575800409540534
1782812004518102500,3.0011025390625,-0.0015122483018785715,-0.0012810896150767803,-0.0003737127990461886
1782812004528173600,3.011173583984375,-0.000028601265512406826,0.000799371802713722,-0.0020578959956765175
1782812004538244600,3.02124462890625,-0.0016658783424645662,-0.001595666748471558,-0.0007201917469501495
1782812004548315600,3.031315673828125,0.0009173880098387599,0.0012882703449577093,-0.0005148620693944395
1782812004558386700,3.04138671875,0.00030778610380366445,0.0028624916449189186,0.0005653019761666656
1782812004568457500,3.05145751953125,0.0011711829574778676,-0.0012869795318692923,0.001961330883204937
1782812004578528500,3.061528564453125,-0.00036629289388656616,-0.0027029067277908325,-0.0003677518689073622
1782812004588600300,3.071600341796875,0.002582891844213009,0.0004883593646809459,0.001810181187465787
1782812004598671400,3.08167138671875,0.00045857171062380075,-0.0007396495202556252,-0.0004355609999038279
1782812004608742400,3.091742431640625,-0.0013076367322355509,0.00014665047638118267,0.0010326397605240345
1782812004618813400,3.1018134765625,-0.0010518633062019944,0.002898863982409239,-0.000999033567495644
1782812004628884500,3.111884521484375,0.0015620291233062744,0.0009150752448476851,-0.00046533611021004617
1782812004638955500,3.12195556640625,-0.0013872499112039804,0.00048768892884254456,0.0008593454258516431
1782812004649026300,3.1320263671875,0.00007029797416180372,0.00071192707400769,0.001884928671643138
1782812004659097300,3.142097412109375,-0.000750565086491406,0.0002488625468686223,-0.000153000233694911
1782812004669169400,3.15216943359375,-0.00026640237774699926,-0.00039748649578541517,0.002151965629309416
1782812004679240400,3.162240478515625,0.0000986569793894887,-0.0010904183145612478,0.0032066418789327145
1782812004689311500,3.1723115234375,-0.00043237744830548763,0.0016659534303471446,0.001037231064401567
1782812004699382500,3.182382568359375,-0.0022596782073378563,0.0009101807372644544,-0.00012944327318109572
1782812004709453600,3.19245361328125,-0.002420799806714058,-0.00036866916343569756,0.00019546240218915045
1782812004719524400,3.2025244140625,-0.00022752652876079082,-0.000820309272967279,0.0004430707194842398
1782812004729595400,3.212595458984375,-0.00014470226597040892,-0.0002096462994813919,-0.0008094139629974961
1782812004739667500,3.22266748046875,0.001819742377847433,-0.0017883048858493567,-0.000472938729217276
1782812004749738500,3.232738525390625,0.0012524891644716263,-0.002078855875879526,0.0014666414353996515
1782812004759809500,3.2428095703125,0.0011691752588376403,0.0011807468254119158,0.0026298651937395334
1782812004769880600,3.252880615234375,-0.0007072879234328866,0.00043612695299088955,0.001043420284986496
1782812004779951600,3.26295166015625,-0.0013140548253431916,0.0006021460285410285,-0.0012381956912577152
1782812004790022400,3.2730224609375,-0.0015271076699718833,0.0006423598388209939,0.0017253700643777847
1782812004800093400,3.283093505859375,0.0010842741467058659,-0.0030524074099957943,0.0002176388807129115
1782812004810165500,3.29316552734375,0.0012677659979090095,-0.0008094932418316603,0.001684774411842227
1782812004820236500,3.303236572265625,-0.0007551971357315779,0.0009984702337533236,-0.002641734667122364
1782812004830307600,3.3133076171875,-0.0017632036469876766,-0.0013198115630075336,0.001258198288269341
1782812004840378600,3.323378662109375,-0.003234939416870475,0.0009063855395652354,0.0010338493157178164
1782812004850449700,3.33344970703125,-0.0011017473880201578,0.000432076514698565,0.001528930850327015
1782812004860520400,3.3435205078125,-0.0005557088879868388,-0.0004972198512405157,-0.001478419522754848
1782812004870591500,3.353591552734375,-0.0003655592445284128,-0.001495106378570199,-0.00116310128942132
1782812004880663300,3.363663330078125,-0.0009854334639385343,-0.0007708317134529352,-0.00027794745983555913
1782812004890734300,3.373734375,0.0009858383564278483,-0.00010557402856647968,-0.0016598617658019066
1782812004900805400,3.383805419921875,-0.00040330993942916393,-0.0009651902364566922,-0.00011628196807578206
1782812004910876400,3.39387646484375,-0.00032234995160251856,0.00010140577796846628,0.0020446069538593292
1782812004920947500,3.403947509765625,0.00023588293697685003,-0.0008680575992912054,0.0007595315109938383
1782812004931018500,3.4140185546875,0.00010432279668748379,-0.0006962837651371956,-0.00005779258208349347
1782812004941089300,3.42408935546875,0.0012293877080082893,-0.0007876744493842125,0.0006012708181515336
1782812004951161300,3.434161376953125,-0.0022926428355276585,-0.0008491934277117252,0.001420991844497621
1782812004961232400,3.444232421875,-0.0013048456748947501,-0.000009975163266062737,-0.0008648433722555637
1782812004971303400,3.454303466796875,0.0016091852448880672,0.003997815772891045,0.0018595705041661859
1782812004981374500,3.46437451171875,0.0012570334365591407,-0.00024270766880363226,-0.00037926368531771004
1782812004991445500,3.474445556640625,0.001344118732959032,-0.0018246254185214639,-0.00038166053127497435
1782812005001516500,3.4845166015625,-0.00046616944018751383,0.00388304959051311,-0.0022819319274276495
1782812005011587300,3.49458740234375,-0.000832620426081121,0.0003620842471718788,0.002300835680216551
1782812005021658400,3.504658447265625,-0.0021125245839357376,0.000846120179630816,0.0004946838598698378
1782812005031730400,3.51473046875,-0.0015727018471807241,0.000881806539837271,0.002205764874815941
1782812005041801500,3.524801513671875,0.00003127800300717354,-0.00008056231308728456,0.00015257415361702442
1782812005051872500,3.53487255859375,0.0013111932203173637,-0.0004880258347839117,-0.0002658084558788687
1782812005061943600,3.544943603515625,-0.0011751913698390126,-0.0037690522149205208,-0.0007911721477285028
1782812005072014600,3.5550146484375,0.001137763960286975,-0.0009301223326474428,-0.00038077900535427034
1782812005082085400,3.56508544921875,0.0007687417091801763,0.0000162952346727252,-0.0005739753833040595
1782812005092156400,3.575156494140625,-0.0006720284000039101,-0.0013003716012462974,0.0009842402068898082
1782812005102228500,3.585228515625,-0.001475777244195342,-0.0017180851427838206,-0.001517044147476554
1782812005112299500,3.595299560546875,-0.00109441252425313,0.0001959287328645587,-0.001088275108486414
1782812005122370600,3.60537060546875,-0.00023773405700922012,-0.002943439641967416,-0.00007959635695442557
1782812005132441600,3.615441650390625,0.0009186104289256036,-0.0006177013274282217,-0.000005294161383062601
1782812005142512600,3.6255126953125,0.00013102864613756537,0.0011058663949370384,0.00045113524538464844
1782812005152583700,3.635583740234375,-0.0013853752752766013,-0.0007642053533345461,0.0017749926773831248
1782812005162654500,3.645654541015625,-0.0005755143938586116,-0.0008343299850821495,0.0013675331138074398
1782812005172726300,3.655726318359375,0.0013523478992283344,0.0000016362173482775688,0.0004615256912074983
1782812005182797300,3.66579736328125,0.00021948444191366434,-0.00041609781328588724,-0.00039203447522595525
1782812005192868400,3.675868408203125,-0.001650321064516902,-0.00016975554171949625,0.0020082728005945683
1782812005202939400,3.685939453125,-0.00038670015055686235,0.0011987322941422462,0.00014050392201170325
1782812005213010400,3.696010498046875,-0.00029162538703531027,-0.001428742310963571,0.00036873682984150946
1782812005223081500,3.70608154296875,-0.0012064670445397496,-0.0002798520727083087,0.0010816480498760939
1782812005233152500,3.716152587890625,0.002338733058422804,-0.0008292623097077012,0.0016656792722642422
1782812005243223600,3.7262236328125,-0.0020886543206870556,-0.00012666336260735989,0.0007299396093003452
1782812005253295400,3.73629541015625,-0.0010974255856126547,-0.001031871885061264,-0.00008791714208200574
1782812005263366400,3.746366455078125,0.0007914496236480772,-0.0007998209912329912,0.0000320346443913877
1782812005273437400,3.7564375,0.0002007604925893247,-0.0008927653543651104,-0.0003224321117158979
1782812005283508500,3.766508544921875,-0.0004655694356188178,0.0008760596974752843,-0.002940115053206682
1782812005293579500,3.77657958984375,-0.0009987341472879052,0.0007586142746731639,0.0007084156386554241
1782812005303650300,3.786650390625,-0.0014290368417277932,-0.002839761320501566,-0.0020753885619342327
1782812005313721300,3.796721435546875,-0.002657286822795868,-0.000845852424390614,0.0001773795229382813
1782812005323793400,3.80679345703125,-0.001005703816190362,-0.0007574016926810145,-0.0014326419914141297
1782812005333864400,3.816864501953125,0.00196904712356627,0.0002788342535495758,0.0018092240206897259
1782812005343935500,3.826935546875,-0.0003681780071929097,0.001000087009742856,-0.0006270508747547865
1782812005354006500,3.837006591796875,-0.0021735348273068666,0.0001571965403854847,-0.0029740948230028152
1782812005364077600,3.84707763671875,0.0005012048641219735,-0.001617093337699771,-0.0004629562608897686
1782812005374148900,3.85714892578125,-0.0010434286668896675,0.0022756492253392935,-0.0021514003165066242
1782812005384220000,3.867219970703125,-0.0005595973925665021,-0.0008096639066934586,0.0007237331010401249
1782812005394290700,3.877290771484375,0.0008577369153499603,0.00039861234836280346,-0.001039812108501792
1782812005404362800,3.88736279296875,0.0005686049116775393,-0.00037990312557667494,0.0002973466762341559
1782812005414433800,3.897433837890625,-0.00014725280925631523,-0.0002523375442251563,-0.0002099854900734499
1782812005424504800,3.9075048828125,-0.0013641990954056382,0.0009221544023603201,-0.001715863007120788
1782812005434576000,3.917575927734375,0.0015618160832673311,0.0002917841775342822,0.0006825798191130161
1782812005444647000,3.92764697265625,-0.002528729848563671,0.001757990918122232,-0.0005461593391373754
1782812005454718000,3.937718017578125,-0.0016016834415495396,0.0010831458494067192,0.0026786625385284424
1782812005464788700,3.947788818359375,-0.00042176363058388233,-0.0015217489562928677,0.0012292290339246392
1782812005474860500,3.957860595703125,-0.0011501380940899253,0.00024126365315169096,-0.00047332982649095356
1782812005484931600,3.967931640625,-0.002092953771352768,-0.001757945865392685,-0.0010145618580281734
1782812005495002600,3.978002685546875,0.0012101647444069386,-0.00043275696225464344,-0.0005311982240527868
1782812005505073700,3.98807373046875,0.0007251056376844645,-0.0007048719562590122,0.0033324072137475014
1782812005515144700,3.998144775390625,-0.0012946357019245625,0.0004642558051273227,0.0007579293451271951
1782812005525215700,4.0082158203125,0.0012518302537500858,-0.00009904964827001095,0.0005539902485907078
1782812005535286800,4.018286865234375,-0.0017247849609702826,-0.0002737530739977956,0.0009665138786658645
1782812005545358600,4.028358642578125,0.0002904576831497252,-0.00014172459486871958,-0.0006990907131694257
1782812005555429600,4.0384296875,-0.0004456400638446212,-0.001472239731810987,0.0008905502036213875
1782812005565500700,4.048500732421875,-0.002185206161811948,-0.0017201449954882264,0.000990529777482152
1782812005575571700,4.05857177734375,-0.0015923865139484406,-0.0014469047309830785,-0.000660097342915833
1782812005585642800,4.068642822265625,-0.0018260283395648003,0.0020239604637026787,0.0006108462112024426
1782812005595713800,4.0787138671875,0.0001572276814840734,-0.0007467921823263168,0.001156527898274362
1782812005605784600,4.08878466796875,-0.00015243131201714277,-0.0009662635857239366,-0.000586007721722126
1782812005615855600,4.098855712890625,0.0007410592515952885,0.0007538722129538655,0.0005583525635302067
1782812005625927700,4.108927734375,0.0016373911639675498,-0.0016450644470751286,0.0020890827290713787
1782812005635998700,4.118998779296875,0.0004994224873371422,-0.0014943296555429697,0.00017959639080800116
1782812005646069800,4.12906982421875,-0.00035843742080032825,-0.00016491569112986326,-0.001319641713052988
1782812005656140800,4.139140869140625,0.0014136299723759294,0.00021618267055600882,0.002095595933496952
1782812005666211800,4.1492119140625,-0.0004946549888700247,-0.002372132148593664,0.0008732753340154886
1782812005676283000,4.159282958984375,-0.0020289020612835884,-0.00006716640200465918,0.002209915779531002
1782812005686353700,4.169353759765625,0.0007391684339381754,0.00032448023557662964,-0.0006167138926684856
1782812005696425700,4.17942578125,0.0007554137264378369,-0.000245968927629292,-0.0015775824431329966
1782812005706496800,4.189496826171875,0.000520003610290587,-0.0026321716140955687,0.0003242023230995983
1782812005716567800,4.19956787109375,0.0010813979897648096,-0.0009410642087459564,0.0013010497204959393
1782812005726638800,4.209638916015625,-0.0019523962400853634,-0.00032198952976614237,0.0014380516950041056
1782812005736710000,4.2197099609375,0.0026146587915718555,0.0018202571664005518,-0.00004959001671522856
1782812005746781000,4.229781005859375,-0.0011832640739157796,-0.002059468999505043,-0.00007647520396858454
1782812005756851700,4.239851806640625,-0.0007768656359985471,0.0019171631429344416,0.002216240158304572
1782812005766922800,4.2499228515625,0.00021578726591542363,-0.0005348731065168977,0.00023584614973515272
1782812005776994800,4.259994873046875,-0.0004057945916429162,0.0003253279719501734,-0.0010259596165269613
1782812005787065900,4.27006591796875,0.0003392163198441267,0.00039420858956873417,-0.000729357183445245
1782812005797137000,4.280136962890625,-0.0008418955840170383,0.0010408241068944335,-0.0015698508359491825
1782812005807208000,4.2902080078125,0.0015326117863878608,0.00017456489149481058,-0.000847559655085206
1782812005817279000,4.300279052734375,-0.0006631645374000072,0.0007740424480289221,-0.0028795513790100813
1782812005827349800,4.310349853515625,0.0011388035491108894,-0.0016891760751605034,0.00035603708238340914
1782812005837420800,4.3204208984375,0.0001774024567566812,0.0003143200883641839,0.0006913291290402412
1782812005847492600,4.33049267578125,-0.0004226658493280411,0.0005695588188245893,0.0007072747685015202
1782812005857563600,4.340563720703125,-0.00014037068467587233,0.002187162870541215,-0.002663488034158945
1782812005867634700,4.350634765625,0.0014423378743231297,0.0010047436226159334,0.001228689099662006
1782812005877705700,4.360705810546875,-0.0005587614141404629,0.0014044840354472399,0.0014569220365956426
1782812005887776800,4.37077685546875,0.000820911314804107,0.00033083907328546047,-0.000888970447704196
1782812005897847800,4.380847900390625,-0.0002592668170109391,-0.0005251008551567793,0.002724939025938511
1782812005907918600,4.390918701171875,0.00029568851459771395,0.0009646556572988629,-0.000958854507189244
1782812005917989600,4.40098974609375,0.0010147419525310397,0.00038275495171546936,0.002608183305710554
1782812005928061700,4.411061767578125,-0.001398488413542509,0.001092099933885038,-0.0008715942967683077
1782812005938132700,4.4211328125,-0.0017321824561804533,0.0005882298573851585,-0.0004268463817425072
1782812005948203800,4.431203857421875,-0.00016193464398384094,0.0004716310650110245,-0.00040412796079181135
1782812005958274800,4.44127490234375,0.0006500632152892649,-0.0011896488722413778,0.0004017445899080485
1782812005968345900,4.451345947265625,0.00006741215474903584,0.0006062312750145793,0.0005615213885903358
1782812005978416600,4.461416748046875,-0.0005027706502005458,-0.000994861125946045,0.0043709068559110165
1782812005988487700,4.47148779296875,-0.00019811210222542286,0.0020954334177076817,-0.002383125014603138
1782812005998559700,4.481559814453125,0.0007334615802392364,0.0002245627110823989,0.0004619299143087119
1782812006008630800,4.491630859375,0.000245689763687551,-0.0013858543243259192,0.0005629539955407381
1782812006018701800,4.501701904296875,-0.000414774171076715,-0.0006127387750893831,-0.0018080583540722728
1782812006028772900,4.51177294921875,-0.00022223324049264193,0.001291051972657442,0.00011308089597150683
1782812006038844000,4.521843994140625,-0.0012142607010900974,0.0015754775376990438,-0.001707456074655056
1782812006048914700,4.531914794921875,-0.00026898400392383337,0.0001773150870576501,0.00020129128824919462
1782812006058985700,4.54198583984375,0.0007864267099648714,0.001307826954871416,0.0008236719877459109
1782812006069056800,4.552056884765625,-0.00045967416372150183,0.0016992953605949879,0.0007550371228717268
1782812006079128800,4.56212890625,-0.0006580796325579286,-0.00033482699654996395,-0.001481751911342144
1782812006089199900,4.572199951171875,0.0008676074794493616,0.0013824297348037362,0.00003157244645990431
1782812006099271000,4.58227099609375,-0.00023946852888911963,0.0011573926312848926,0.0021698246710002422
1782812006109342000,4.592342041015625,0.0001560235396027565,0.0004924326203763485,0.0009632370201870799
1782812006119412700,4.602412841796875,-0.00004531140439212322,-0.001511596143245697,0.00042288159602321684
1782812006129483800,4.61248388671875,-0.00038474530447274446,0.0013463918585330248,-0.0001296343980357051
1782812006139554800,4.622554931640625,-0.0012473431415855885,-0.0010648341849446297,0.0010336344130337238
1782812006149625900,4.6326259765625,0.0003011506050825119,0.00008761091157793999,0.0016906303353607655
1782812006159697700,4.64269775390625,-0.0011606585467234254,0.000286815338768065,0.00036490883212536573
1782812006169768700,4.652768798828125,0.001330590108409524,0.00019259878899902105,0.0004934984026476741
1782812006179839700,4.66283984375,0.0015487029450014234,-0.0009429731871932745,0.0009973684791475534
1782812006189910800,4.672910888671875,-0.0005209071096032858,0.0001161529216915369,0.0004528757999651134
1782812006199981600,4.682981689453125,0.001429858384653926,0.0005260134348645806,-0.0013165284181013703
1782812006210052600,4.693052490234375,-0.0020302562043070793,0.0007200245745480061,-0.00008875250932760537
1782812006220123600,4.70312353515625,-0.0004976070486009121,-0.002227295655757189,0.00018315622583031654
1782812006230195700,4.71319580078125,-0.0014946411829441786,0.0009551256662234664,-0.001328224316239357
1782812006240266800,4.723266845703125,-0.0012645439710468054,0.002554886508733034,-0.0009963945485651493
1782812006250337800,4.733337890625,-0.002236404223367572,-0.0023678108118474483,0.0002581278677098453
1782812006260408800,4.743408935546875,0.0009058596333488822,-0.0008135898970067501,-0.0010087378323078156
1782812006270479600,4.753479736328125,0.001341397175565362,0.00005937553942203522,-0.00022123198141343892
1782812006280550700,4.763550537109375,0.000309422321151942,0.001010923064313829,-0.0010342950699850917
1782812006290621700,4.77362158203125,0.0011292434064671397,0.0006029867799952626,0.002066143788397312
1782812006300692700,4.783692626953125,-0.000747219892218709,-0.0015075684059411287,-0.0004955508047714829
1782812006310764800,4.793764892578125,-0.0006379201076924801,0.000020014122128486633,-0.00008028835873119533
1782812006320835800,4.8038359375,0.0014827551785856485,-0.0004657465033233166,-0.001595094334334135
1782812006330907000,4.813906982421875,-0.00026191992219537497,0.00026957341469824314,0.001680714194662869
1782812006340977700,4.823977783203125,-0.0013612728798761964,0.0010248459875583649,0.0006261023227125406
1782812006351048700,4.834048583984375,0.00010349799413233995,-0.00023513706400990486,0.00004200096009299159
1782812006361119700,4.84411962890625,0.00021934544201940298,-0.0001158274244517088,-0.0008512232452630997
1782812006371190800,4.854190673828125,-0.0017213716637343168,0.00009750050958245993,-0.00280423229560256
1782812006381261800,4.86426171875,0.0011543096043169498,0.0010863321367651224,0.0014570916537195444
1782812006391334000,4.874333984375,-0.0006709962617605925,-0.001187387853860855,0.0006522453622892499
1782812006401405000,4.884405029296875,0.0014435535995289683,0.00030531396623700857,-0.00011527771130204201
1782812006411476000,4.89447607421875,-0.0013486456591635942,0.0023166199680417776,0.0009133130079135299
1782812006421547000,4.904547119140625,0.001136616338044405,-0.0005377561319619417,-0.0003916358982678503
1782812006431618000,4.9146181640625,-0.0006682869279757142,0.00015775917563587427,-0.0010977074271067977
1782812006441688800,4.924688720703125,0.00051362399244681,0.0005119596607983112,-0.0014138247352093458
1782812006451759900,4.934759765625,-0.0006626697722822428,0.000629119691438973,0.0009674719767645001
1782812006461832000,4.94483203125,-0.00027890829369425774,0.0006344460416585207,0.0009919729782268405
1782812006471902700,4.95490283203125,0.0024277260527014732,-0.001448418595828116,0.0017514516366645694
1782812006481973800,4.964973876953125,0.0004737646668218076,0.0004687911132350564,-0.0013695068191736937
1782812006492044800,4.975044921875,-0.0036478769034147263,-0.0002849764423444867,-0.0007642429554834962
1782812006502115800,4.98511572265625,0.001315456349402666,-0.0006048219511285424,-0.0037890614476054907
1782812006512187000,4.995186767578125,-0.0003804044099524617,0.0010271362261846662,-0.002019070088863373
1782812006522258000,5.0052578125,-0.0011505904840305448,0.001062289928086102,-0.0012422261061146855
1782812006532329000,5.015328857421875,-0.00057266338262707,-0.0010745135368779302,0.00016161485109478235
1782812006542400800,5.02540087890625,-0.00022884935606271029,-0.000348802306689322,-0.0005260133184492588
1782812006552471800,5.035471923828125,0.00059454923029989,-0.0004925256362184882,-0.00003130070399492979
1782812006562542800,5.04554296875,0.0010768476640805602,0.0021722333040088415,0.001970597542822361
1782812006572614000,5.05561376953125,0.0013582968385890126,-0.0008701733313500881,0.0005996107356622815
1782812006582684700,5.0656845703125,0.00027172709815204144,-0.0019466232042759657,-0.004020707216113806
1782812006592755700,5.075755615234375,-0.00019620382227003574,-0.0009824633598327637,-0.000622168998233974
1782812006602826800,5.08582666015625,-0.00183964055031538,0.0014010658487677574,-0.0006258974317461252
1782812006612898800,5.09589892578125,0.00039330683648586273,0.00022223126143217087,0.0004366941284388304
1782812006622969900,5.105969970703125,-0.0005593058886006474,-0.0008648711955174804,-0.0007803705520927906
1782812006633041000,5.116041015625,-0.0007404137868434191,0.0005904078716412187,-0.0009075278649106622
1782812006643112000,5.12611181640625,0.0003240517107769847,0.00013926834799349308,-0.0011165860341861844
1782812006653182700,5.1361826171875,0.0012076757848262787,-0.00006503507029265165,0.003713564947247505
1782812006663253800,5.146253662109375,-0.0009287120774388313,0.0008548207115381956,-0.0014377874322235584
1782812006673324800,5.15632470703125,-0.0008822943782433867,-0.00018614670261740685,7.692142389714718e-7
1782812006683395800,5.166395751953125,-0.0004343506880104542,0.002224014140665531,0.00000503024784848094
1782812006693468000,5.176468017578125,0.00007949827704578638,0.00023270840756595135,0.0014226841740310192
1782812006703539000,5.1865390625,-0.0024880552664399147,-0.000716974725946784,0.0010298679117113352
1782812006713610000,5.19660986328125,0.0015593630960211158,-0.00018270453438162804,0.00023075955687090755
1782812006723681000,5.206680908203125,-0.00003240827936679125,0.0018378356471657753,-0.0008430269663222134
1782812006733751800,5.216751708984375,0.00025871716206893325,0.0007696084212511778,0.0006412456277757883
1782812006743822800,5.22682275390625,-0.0015106869395822287,-0.0016978103667497635,-0.0015201759524643421
1782812006753894000,5.236893798828125,-0.00001447903923690319,0.0009061576565727592,-0.000842664681840688
1782812006763965000,5.24696484375,-0.0012853394728153944,-0.00047549023292958736,0.00006440799916163087
1782812006774037000,5.257037109375,-0.00042157527059316635,-0.0008583220187574625,-0.0023232917301356792
1782812006784108000,5.26710791015625,-0.00013741606380790472,0.002206443576142192,-0.0005179347936064005
1782812006794179000,5.277178955078125,0.000026933732442557812,-0.0005111594218760729,0.0000671418965794146
1782812006804249900,5.287249755859375,-0.00003964535426348448,0.0006686209235340357,0.00029537483351305127
1782812006814321000,5.29732080078125,-0.0024059948045760393,0.0031840051524341106,-0.0011618816060945392
1782812006824392000,5.307391845703125,-0.002383890561759472,0.0010931574506685138,-0.0010630784090608358
1782812006834462000,5.3174619140625,-0.0013904818333685398,-0.0002613784745335579,0.0006966087385080755
1782812006844534000,5.327533935546875,-0.000004040077328681946,-0.002564480062574148,-0.0017577605322003365
1782812006854605000,5.33760498046875,-0.001113096484914422,0.0023133910726755857,-0.0009017653646878898
1782812006864675800,5.34767578125,0.0004901264328509569,0.0003927192883566022,0.0018274420872330666
1782812006874747000,5.357746826171875,0.00012032792437821627,-0.0007203968707472086,-0.0027573946863412857
1782812006884818000,5.36781787109375,0.00006706477142870426,0.0018319765804335475,0.00046369852498173714
1782812006894889000,5.377888916015625,0.0007187118753790855,0.0012979016173630953,-0.0008389008580707014
1782812006904960000,5.3879599609375,0.000053187948651611805,-0.0023767282254993916,0.0004119859077036381
1782812006915031000,5.398031005859375,-0.00025165837723761797,-0.0008470257744193077,-0.0011467955773696303
1782812006925102800,5.408102783203125,-0.0022764597088098526,0.001156736514531076,0.00028864823980256915
1782812006935173600,5.418173583984375,0.001322476309724152,0.0008005928248167038,-0.00021764056873507798
1782812006945244700,5.42824462890625,-0.002555086277425289,-0.0001213934738188982,-0.000466113502625376
1782812006955315700,5.438315673828125,-0.00022430706303566694,-0.0012113642878830433,-0.00012910508667118847
1782812006965386800,5.44838671875,-0.001518869656138122,-0.0016001858748495579,0.0015766497235745192
1782812006975457800,5.458457763671875,0.0005142073496244848,0.0003287817817181349,0.0004944503307342529
1782812006985528800,5.46852880859375,0.0012329944875091314,0.0012787312734872103,0.0001359888119623065
1782812006995600000,5.478599853515625,0.0016333680832758546,-0.00014671939425170422,0.0001640627160668373
1782812007005671700,5.488671630859375,0.00012095889542251825,0.0010101578664034605,-0.000010107993148267269
1782812007015742700,5.49874267578125,0.0009047496714629233,0.002255302621051669,-0.0006294018821790814
1782812007025813800,5.508813720703125,-0.0016737228725105524,0.002272879472002387,0.0009093725821003318
1782812007035884800,5.518884765625,0.0012266007252037525,0.0008423348190262914,-0.0015382834244519472
1782812007045955800,5.528955810546875,-0.0008413438918069005,0.016039397567510605,0.00562881538644433
1782812007056027000,5.53902685546875,-0.0025728594046086073,-0.04310400411486626,-0.012735150754451752
1782812007066098000,5.549097900390625,-0.0016402204055339098,0.0020658725406974554,0.0001516197226010263
1782812007076168700,5.559168701171875,0.00044881715439260006,0.007137748878449202,-0.0019701821729540825
1782812007086240800,5.56924072265625,0.0004930256400257349,-0.00029699760489165783,0.00010415405267849565
1782812007096311800,5.579311767578125,-0.0002934058429673314,-0.009503012523055077,-0.004704716149717569
1782812007106382800,5.5893828125,0.0005327067337930202,-0.008122430182993412,-0.0017073281342163682
1782812007116454000,5.599453857421875,-0.0007975584594532847,-0.00040195765905082226,-0.0021837023086845875
1782812007126525000,5.60952490234375,0.0007143181283026934,0.00039565900806337595,-0.000042254338040947914
