time,seconds_elapsed,z,y,x
1782810989926570500,0.068570556640625,-0.15989537840187548,-0.09082341307830065,-0.17972411446571349
1782810989936641500,0.0786416015625,-0.052232876062393185,-0.047507235779985786,-0.17281565025150775
1782810989946712600,0.088712646484375,0.13745909018814562,0.008478234281577169,-0.1288739249333739
1782810989956784400,0.098784423828125,0.19632161352336405,-0.015806677473522723,-0.10722411092221737
1782810989966855400,0.10885546875,0.27320260863006113,-0.05677143280748278,-0.15472104450389743
1782810989976926200,0.11892626953125,0.34239655636548993,-0.10911266461517662,-0.14411547933742402
1782810989986998300,0.128998291015625,0.3107780137866735,-0.18359090942908077,-0.0711233083628118
1782810989997069300,0.1390693359375,0.2611088507324457,-0.19688191428724675,-0.057196051427721974
1782810990007140400,0.149140380859375,0.15979133350551128,-0.19798172875531017,-0.07891732323989271
1782810990017212400,0.15921240234375,0.057200727602839466,-0.2074480607587844,-0.11563611156716942
1782810990027283500,0.169283447265625,-0.06473930641412734,-0.19922588359750806,-0.12030673372671008
1782810990037354500,0.1793544921875,-0.26152035414278507,-0.1373940255952999,-0.11372077946513891
1782810990047426600,0.189426513671875,-0.37744974956810473,-0.08827175583411008,-0.09218772370144725
1782810990057497600,0.19949755859375,-0.34237785166502,-0.06688409989047796,-0.08828077939078212
1782810990067568600,0.209568603515625,-0.2713777312904596,-0.034894495509564874,-0.05057546424418687
1782810990077640400,0.219640380859375,-0.1924503250479698,0.019021547866798934,0.01401464295759797
1782810990087711200,0.229711181640625,-0.056200026127696034,-0.04938194361068308,0.026778262940794228
1782810990097783300,0.239783203125,0.13805997869074343,-0.1438729758184403,0.013058657407015561
1782810990107854300,0.249854248046875,0.28781799395978447,-0.18613167995307595,-0.009554156417399644
1782810990117925400,0.25992529296875,0.4659592231482267,-0.15718414668180047,-0.0359390361264348
1782810990127996400,0.269996337890625,0.6400017848461866,-0.09538220889382064,0.0018203472949564455
1782810990138068500,0.280068359375,0.6147375797301531,-0.010291969172656535,0.1331112702421844
1782810990148139500,0.290139404296875,0.3318886063545942,0.006905833865702152,0.20217063181251285
1782810990158211600,0.300211669921875,-0.13937164581120012,-0.012843188025429844,0.10814297933280467
1782810990168282600,0.31028271484375,-0.510828876966238,-0.019043905829079447,0.015906155792623757
1782810990178353700,0.320353759765625,-0.6611486177712679,0.01181925180517137,-0.06167348910272121
1782810990188425500,0.330425537109375,-0.5043652339100837,-0.02736749753821641,-0.14658902984410524
1782810990198496300,0.340496337890625,-0.1759773291528225,-0.042572482791543007,-0.10819222530201077
1782810990208567300,0.3505673828125,0.13911504070162772,0.04977664201669395,0.04767769697606563
1782810990218639400,0.360639404296875,0.35837329317629335,0.11700206615813076,0.17714315806180236
1782810990228710400,0.37071044921875,0.5039186591863631,0.12051263156235217,0.21437530273869632
1782810990238781400,0.380781494140625,0.5825567270934582,0.1464597774412483,0.2404457096710801
1782810990248853500,0.390853515625,0.577319995483756,0.12948321593813597,0.24617694679945706
1782810990258924500,0.400924560546875,0.6087380470544099,0.040829475049115715,0.15657558632940052
1782810990268995600,0.41099560546875,0.5782213282376527,0.019208448741026223,0.10392565389871597
1782810990279067400,0.4210673828125,0.22150164748728274,0.03053648296315223,0.059619333051890135
1782810990289138400,0.431138427734375,-0.2941898670792579,0.03387826767172664,-0.018606354662030936
1782810990299210500,0.44121044921875,-0.6424941861838102,0.04678863918185234,-0.10190306202992797
1782810990309281300,0.45128125,-0.7726409075319767,0.10526073842737824,-0.12992241107299923
1782810990319352300,0.461352294921875,-0.6921095732241869,0.10087565521094947,-0.10965163033008575
1782810990329424400,0.47142431640625,-0.5084738382726908,0.1125420545419678,-0.01805310469344258
1782810990339495400,0.481495361328125,-0.3223825268626213,0.06653400781117379,0.0745453917659819
1782810990349566500,0.49156640625,-0.28930267955958844,-0.009128222622908652,0.0419986284263432
1782810990359638500,0.501638427734375,-0.34340719471275805,-0.0022943945474922654,-0.05274184849783778
1782810990369709600,0.51170947265625,-0.32938100744783877,-0.016018676256388423,-0.07772913636863231
1782810990379780600,0.521780517578125,-0.25069500874578954,-0.010710596443526446,-0.06474836650341749
1782810990389852400,0.531852294921875,-0.20699965940415857,-0.007782616700232029,-0.038301673604547976
1782810990399923200,0.541923095703125,-0.15227730461359024,0.039811785906553265,0.0511865818798542
1782810990409994200,0.551994140625,0.027706337571144102,0.0596751548923552,0.1597982016377151
1782810990420066300,0.56206640625,0.17146598920822143,0.035592414645850654,0.21322788626924155
1782810990430137300,0.572137451171875,0.15439327385425566,0.002222717550769448,0.21764409527629613
1782810990440208400,0.58220849609375,0.02554068396985531,0.04623407403901219,0.19803587009534238
1782810990450280400,0.592280517578125,-0.07890870154201984,0.0732707687202841,0.16970672445073723
1782810990460351500,0.6023515625,-0.10345277568995952,0.06823591635823249,0.1734086477085948
1782810990470422500,0.612422607421875,-0.043704117169976235,0.035634061830490824,0.1684934031382203
1782810990480494600,0.62249462890625,-0.04122106818258762,0.02270904074050486,0.1562500076368451
1782810990490565600,0.632565673828125,0.03977379198372364,-0.028457813525572417,0.12600626054257152
1782810990500636400,0.642636474609375,0.17993571138978004,-0.0709093002859503,0.08463409345149993
1782810990510708200,0.652708251953125,0.22192367229163645,-0.03371010803058743,0.04788008768036961
1782810990520779300,0.662779296875,0.22719255260527133,0.025970307558774948,0.04600654889345169
1782810990530851300,0.672851318359375,0.22609365145266055,0.05859072065651416,0.024539105711877344
1782810990540922400,0.68292236328125,0.2523994745761156,0.0744791215967387,0.01263517129793763
1782810990550993400,0.692993408203125,0.30107378137409685,0.09862330970689653,0.017006664380431174
1782810990561065500,0.7030654296875,0.2789373528897762,0.14118819371387362,0.027650954122096297
1782810990571136500,0.713136474609375,0.28607202707529067,0.14066139336079359,0.047373453332483766
1782810990581207600,0.72320751953125,0.3360901496976614,0.09296806042417884,0.016955080323666334
1782810990591279600,0.733279541015625,0.36298341732025147,0.0589892915200442,-0.020656272929161786
1782810990601350700,0.7433505859375,0.3647147711575031,0.022607406996935604,-0.046436903134733434
1782810990611421400,0.75342138671875,0.3067588412731886,0.001118628766387701,-0.025290216340124606
1782810990621493200,0.7634931640625,0.2855348514586687,0.03225413706861436,-0.005586714091151953
1782810990631564300,0.773564208984375,0.35443069303035735,0.02078347950540483,0.03591755494698882
1782810990641635300,0.78363525390625,0.35781975094676016,-0.011479133130609989,0.05781754432693124
1782810990651707400,0.793707275390625,0.205534847548604,-0.012972148167341947,-0.026644407428056
1782810990661778400,0.8037783203125,0.010605565166473388,-0.06755889387950301,-0.09351444226056337
1782810990671849500,0.813849365234375,-0.1413379774481058,-0.11555398624166846,-0.1373347331561148
1782810990681921500,0.823921630859375,-0.19476152459979057,-0.14752492245472967,-0.17454335082694888
1782810990691992600,0.83399267578125,-0.20394787061810493,-0.11766608302481472,-0.14341887537539005
1782810990702063400,0.8440634765625,-0.13996727361679076,-0.12454451742693781,-0.12215411515906452
1782810990712135700,0.8541357421875,-0.03250876941680908,-0.13287073948457837,-0.10217661827430129
1782810990722206500,0.86420654296875,0.0714905342400074,-0.12828352129217235,-0.08048807968795299
1782810990732277500,0.874277587890625,0.0658387920886278,-0.12691223293896764,-0.07238865212351084
1782810990742349300,0.884349365234375,0.07447861014008522,-0.12263283858671783,-0.09273863558247684
1782810990752420400,0.89442041015625,0.06746610102951527,-0.1242439635777846,-0.09213906225413084
1782810990762491400,0.904491455078125,0.09271452405452728,-0.13827000471223144,-0.10833820964395999
1782810990772563500,0.9145634765625,0.15033903002738952,-0.16541932945512233,-0.06214183726683259
1782810990782634500,0.924634521484375,0.057549687170982355,-0.16044311194512992,-0.0670410074852407
1782810990792706000,0.9347060546875,-0.09480302076637745,-0.17134820804744957,-0.11450506171062588
1782810990802778000,0.944778076171875,-0.2556377258449793,-0.21365451418347656,-0.17301161121502517
1782810990812849000,0.954848876953125,-0.3946475526064634,-0.23192926227096466,-0.2676335763260722
1782810990822920700,0.964920654296875,-0.5013105225145816,-0.25008239327277987,-0.35955884969905016
1782810990832991700,0.97499169921875,-0.4830296004146337,-0.24690321524739264,-0.3919859321817755
1782810990843062800,0.985062744140625,-0.3129009972900152,-0.24989008557107298,-0.3834482593305409
1782810990853134800,0.995134765625,-0.14751871190965174,-0.22063593403603882,-0.3422612395480275
1782810990863206000,1.005205810546875,0.00717559071779251,-0.26025026114173233,-0.2929562336310744
1782810990873277000,1.01527685546875,0.08720365167856216,-0.24594514733757822,-0.23884748069420456
1782810990883349000,1.025348876953125,-0.04068973778486252,-0.21596045303829012,-0.17978461248129604
1782810990893420000,1.035419921875,-0.16260755997002124,-0.1680363070204854,-0.13548910528942942
1782810990903490800,1.04549072265625,-0.19460428821146486,-0.1188351998694241,-0.07509922625645994
1782810990913563100,1.055563232421875,-0.1630932976603508,-0.07902100281007587,-0.01999152541011572
1782810990923634000,1.065634033203125,-0.14134148457944393,-0.07480027984250337,-0.01040069024413824
1782810990933705000,1.075705078125,-0.11671090119183063,-0.08897204959057271,-0.022989830443263054
1782810990943776800,1.08577685546875,-0.05005085584819317,-0.0867307004045695,-0.054153614991903305
1782810990953847800,1.095847900390625,0.029636428850889206,-0.11298373389486223,-0.07519128845408558
1782810990963918800,1.1059189453125,0.09946516735851764,-0.12131865071561186,-0.0831723503358662
1782810990973991000,1.115990966796875,0.15531857200562954,-0.12150171566493809,-0.10098127100989222
1782810990984062000,1.12606201171875,0.19553835419118404,-0.11675477686617523,-0.09147957543209194
1782810990994133000,1.136133056640625,0.2358639348387718,-0.1252122240880504,-0.0627542700767517
1782810991004205000,1.146205078125,0.3156067491173744,-0.10297047206573187,0.04679404600933194
1782810991014275800,1.15627587890625,0.3131616940528154,-0.07077412959896028,0.12118322430029511
1782810991024347000,1.166346923828125,0.20041735840439795,-0.016457213804125785,0.15557561550661922
1782810991034419000,1.1764189453125,0.08895487926006317,0.0179722214769572,0.15138313225284217
1782810991044490000,1.186489990234375,-0.023998715224862098,0.04443506179302931,0.1347679514080286
1782810991054561000,1.19656103515625,-0.23313421761393546,0.044121684994921084,0.08117343160361051
1782810991064632800,1.2066328125,-0.355643575951457,0.012487871781736612,0.06758899675682187
1782810991074704000,1.216703857421875,-0.3912760303467512,0.011725436041876673,0.02307107898592949
1782810991084775000,1.22677490234375,-0.33825814138650895,-0.027566052317619324,0.036907735028117894
1782810991094847000,1.236846923828125,-0.2771077993750572,-0.04139299068339169,0.10519845031350851
1782810991104918000,1.24691796875,-0.23957389527261255,-0.031740999914705754,0.12534677372053266
1782810991114988800,1.25698876953125,-0.11643617590367793,0.008338350886851548,0.18662249567732214
1782810991125060900,1.267060791015625,-0.03917582609057426,0.05094546660035848,0.28506328842416406
1782810991135132000,1.2771318359375,-0.046076691520214076,0.07177775368355215,0.29867782614827154
1782810991145203000,1.287202880859375,-0.02994680997431278,0.06316175489909946,0.27467764961868524
1782810991155274800,1.297274658203125,0.01360182437300682,0.054601212628930806,0.25108123158439993
1782810991165345800,1.307345703125,0.04074935901761055,0.02807641299255192,0.219168966756016
1782810991175416800,1.317416748046875,0.035738837379217146,0.03693484223075211,0.16391513543725011
1782810991185489000,1.327489013671875,0.06942658744752407,0.032593452025577424,0.0879991859704256
1782810991195560000,1.337559814453125,0.08195289154350757,0.008254325865209102,0.00031184242814779277
1782810991205630700,1.347630615234375,0.06110825643539428,-0.046493309497088194,-0.06699366121217608
1782810991215703000,1.357703125,0.03996142351031303,-0.06366210563667118,-0.13993249456435441
1782810991225773800,1.36777392578125,0.07314122405648231,-0.08072064633481205,-0.1637989617116749
1782810991235844900,1.377844970703125,-0.02527180390059948,-0.04311192343048751,-0.2025467716485262
1782810991245917000,1.3879169921875,-0.10153963554501533,-0.009496434880793094,-0.19790873658433555
1782810991255988000,1.397988037109375,-0.10176292290687561,-0.00923325389996171,-0.22291487528607248
1782810991266059000,1.40805908203125,-0.03381985201537609,-0.02050575854256749,-0.255212047778815
1782810991276130800,1.418130859375,0.11431085431277752,-0.015110329239815474,-0.25466478915959595
1782810991286201900,1.428201904296875,0.2197036581546068,-0.04160948297828436,-0.2217018462345004
1782810991296274000,1.43827392578125,0.2604109315961599,-0.055171559862792485,-0.19533757092207668
1782810991306345000,1.448344970703125,0.3202782480597496,-0.052704439096897836,-0.1758734303869307
1782810991316415700,1.458415771484375,0.29875615208148953,-0.04477086961865425,-0.15699571143761276
1782810991326486800,1.46848681640625,0.27691841428279873,-0.029513386993110177,-0.11111439635902642
1782810991336558800,1.478558837890625,0.2622287946730852,-0.01890095369443297,-0.07544979325979947
1782810991346630000,1.4886298828125,0.24190613761246202,-0.018356909945607184,-0.056119946628808974
1782810991356702000,1.498701904296875,0.18024083181619643,-0.005719765886291861,-0.0392874697715044
1782810991366773000,1.50877294921875,0.11664309665262698,0.008135521791130303,-0.03148264123946428
1782810991376844000,1.518843994140625,-0.002985153290629387,0.012659648152068256,0.002478372812271118
1782810991386915000,1.5289150390625,-0.11073241130411625,0.006267682092636824,-0.027956805200874804
1782810991396987000,1.53898681640625,-0.16190087300539016,0.03131649089232087,-0.06756605427265167
1782810991407058000,1.549057861328125,-0.1965419782757759,0.026077713456004858,-0.07359978147894143
1782810991417130000,1.5591298828125,-0.14711714537143705,-0.002948620672523975,-0.1003822822034359
1782810991427200800,1.56920068359375,-0.09934124871790409,0.009418985730409621,-0.11359598404169081
1782810991437271800,1.579271728515625,-0.1765127512037754,0.005324702154099941,-0.14606778244897722
1782810991447343900,1.58934375,-0.17709902665913105,0.030441826949641107,-0.12980696799978614
1782810991457415000,1.599414794921875,-0.11312719748616218,0.054757572234421965,-0.09709069331213831
1782810991467486000,1.60948583984375,-0.12359247739911079,0.09149448074027895,-0.078688336789608
1782810991477558000,1.61955810546875,-0.12943068203330038,0.10396554751768708,-0.07339242233857513
1782810991487629000,1.629629150390625,-0.08992284750938415,0.09157149149924516,-0.08532412154227495
1782810991497700000,1.6397001953125,-0.095005265340209,0.07487228563278914,-0.11133476111143827
1782810991507772000,1.64977197265625,-0.09604980595707893,0.054906771446764466,-0.14768632356151937
1782810991517843000,1.659843017578125,0.02350713231563568,0.06368848218694328,-0.12669263537153602
1782810991527913700,1.669913818359375,0.10430851573646067,0.07153934181779623,-0.11188976464569568
1782810991537985800,1.67998583984375,0.11686346140503882,0.1124495174203068,-0.06602452391907572
1782810991548056800,1.690056884765625,0.11728899334073066,0.11568163120932877,-0.033051351860910655
1782810991558127900,1.7001279296875,0.1734147851884365,0.11393602965101599,0.03286503550857305
1782810991568200000,1.710199951171875,0.14264672195911407,0.13590842668004333,0.06729805098623037
1782810991578271000,1.72027099609375,0.08984569061994552,0.1280892773617059,0.07569383114874363
1782810991588342000,1.730342041015625,0.10110650482475757,0.09297317499071359,0.0779598763845861
1782810991598413800,1.740413818359375,0.17661153540313243,0.07478950272016227,0.09223857710584997
1782810991608484900,1.75048486328125,0.2106581819117069,0.05429324265830218,0.1027457964643836
1782810991618556000,1.760555908203125,0.24413258149027822,0.04542188087329268,0.13033289157003164
1782810991628627700,1.770627685546875,0.1782820989638567,0.0755357179775834,0.18097469904869795
1782810991638698800,1.78069873046875,0.08323767065703869,0.10328896343037486,0.19155337620824575
1782810991648769800,1.790769775390625,0.05916589019596576,0.07879187022931873,0.17693638344332574
1782810991658841900,1.800841796875,0.046186581635475156,0.0652918257303536,0.13659429005235432
1782810991668913000,1.810912841796875,-0.009843348622322083,0.03930763577669859,0.1184416705071926
1782810991678984000,1.82098388671875,-0.0365425549775362,0.011118483124673366,0.09701821259781718
1782810991689056000,1.831055908203125,-0.018245850786566733,0.022081191165745258,0.0936766470849514
1782810991699127000,1.841126953125,0.022195465195178985,0.014418182257190345,0.08884060523062944
1782810991709198000,1.851197998046875,0.050066053417325014,0.027675138715282082,0.08248743681162596
1782810991719270000,1.861269775390625,0.08679682444334029,0.023813056459650397,0.08883739036023616
1782810991729340700,1.871340576171875,0.0916021788984537,-0.0009087854079902172,0.07524915612116456
1782810991739411700,1.88141162109375,0.09554419452250003,-0.021726094117760657,0.07033405768126248
1782810991749483800,1.89148388671875,0.04697743975222111,-0.062474357156828045,0.041057109792530536
1782810991759554800,1.901554931640625,0.026019991919398307,-0.08305449610985816,-0.017551731042563915
1782810991769625900,1.9116259765625,0.012940145593881605,-0.10322188954353331,-0.057684127205610274
1782810991779698000,1.921697998046875,-0.005567570999264717,-0.11153094127066433,-0.0797873840726912
1782810991789768700,1.931768798828125,-0.0950923591017723,-0.07510353710539638,-0.11925532497763633
1782810991799839700,1.94183984375,-0.15789631353914738,-0.05693813114389777,-0.14555924840494988
1782810991809911800,1.951911865234375,-0.1504056655228138,-0.052414077848196024,-0.1644780300170183
1782810991819982800,1.96198291015625,-0.18643559480309485,-0.020362185353413224,-0.15111702866256235
1782810991830054000,1.972053955078125,-0.2679541865825653,-0.024147695241495966,-0.15405980411618947
1782810991840125700,1.982125732421875,-0.2784779186844826,-0.05310695548318326,-0.1937802584774792
1782810991850196700,1.99219677734375,-0.22058511716425416,-0.05464600161872804,-0.22492519219517706
1782810991860267800,2.002267822265625,-0.12465513819456099,-0.03735116794668138,-0.16073489796593785
1782810991870339800,2.01233984375,-0.016855273211002348,-0.055243017663806675,-0.13811317018270491
1782810991880410600,2.02241064453125,0.03483984271287918,-0.09677417470887303,-0.18087503806650637
1782810991890481700,2.032481689453125,0.08546586810052394,-0.12504581801258027,-0.1964298962034285
1782810991900553700,2.0425537109375,0.04106616988182068,-0.1414412186268717,-0.18170725110694766
1782810991910624800,2.052624755859375,0.09178747233748435,-0.155721453718096,-0.125251935043931
1782810991920695800,2.06269580078125,0.16861001525521277,-0.12068323888890445,-0.06613280659914016
1782810991930768000,2.072767822265625,0.1743599570840597,-0.08217932071052492,0.03704173667132854
1782810991940839000,2.0828388671875,0.14530629655718802,-0.07908953800164163,0.0393036902539432
1782810991950910000,2.092909912109375,0.11282792227864265,-0.10989581434950232,0.030263328577578064
1782810991960981800,2.102981689453125,0.06693827776312827,-0.12821465730704368,0.0649171471990645
1782810991971052800,2.113052734375,-0.025380524972081184,-0.10727211478240788,0.11433759618923067
1782810991981123600,2.12312353515625,-0.08848200105130671,-0.06019114159047603,0.11986235096007584
1782810991991195600,2.133195556640625,-0.12523849104046822,-0.040771132458001375,0.1649587992712855
1782810992001266700,2.1432666015625,-0.11693711116313933,-0.04326258394755423,0.17886296759173273
1782810992011337700,2.153337646484375,-0.14084288740754128,-0.034194165220484136,0.22132073796242474
1782810992021409800,2.163409912109375,-0.1615121659487486,-0.0011870178274810312,0.23564254717305302
1782810992031480800,2.173480712890625,-0.09063830230236053,0.005885331711545586,0.23452011901438236
1782810992041552000,2.1835517578125,-0.01845394057929516,-0.011342501138895749,0.21923004929348824
1782810992051624000,2.1936240234375,-0.023797055172920224,-0.00238090378716588,0.17634280146434902
1782810992061695000,2.203695068359375,-0.1212520517528057,-0.001286678809672594,0.10944982414767146
1782810992071765800,2.213765869140625,-0.12668050654232502,-0.011118190863728523,0.062249827685952185
1782810992081836800,2.2238369140625,-0.03005319295823574,0.009919774859398604,0.0626522710070014
1782810992091908600,2.23390869140625,0.020589783564209936,-0.010824249418452381,0.05824088430553674
1782810992101979600,2.243979736328125,-0.028123101678490636,0.024981369586661455,0.031971155408769845
1782810992112050700,2.25405078125,-0.09861468800902366,-0.0018129677060991524,-0.03498743449002504
1782810992122122800,2.264122802734375,-0.03440671199262142,0.012465294623747467,-0.08185966030210257
1782810992132193800,2.27419384765625,0.1130915416508913,-0.02232712875083089,-0.049075873336195945
1782810992142264800,2.284264892578125,0.1978366942614317,-0.04599325102046132,-0.08038432705253362
1782810992152337000,2.2943369140625,0.1945247932344675,-0.052426718134060496,-0.11935191721990704
1782810992162408000,2.304407958984375,0.14114333165884016,-0.05903956040255725,-0.17879370174780487
1782810992172478700,2.314478759765625,0.1468459272146225,-0.07946019794493914,-0.1886946257762611
1782810992182550800,2.32455078125,0.2191641444504261,-0.10220599049925803,-0.191834531237185
1782810992192621800,2.334621826171875,0.29649463689029215,-0.11556158502623438,-0.19615458639338612
1782810992202692900,2.34469287109375,0.22156419132947922,-0.10308832629173993,-0.20370500177294015
1782810992212764700,2.3547646484375,0.07126432426869869,-0.05690101400390267,-0.20939809884801505
1782810992222835700,2.364835693359375,0.014034955093264578,-0.07381751588284968,-0.24180019301995634
1782810992232906800,2.37490673828125,0.011996727263927458,-0.07835720513910055,-0.23688611749336122
1782810992242978800,2.384978759765625,0.0100865097284317,-0.11209902348220348,-0.2454104924716055
1782810992253049900,2.3950498046875,0.07928980981409549,-0.13350253458209335,-0.25810893826410175
1782810992263120600,2.40512060546875,0.13007365611195565,-0.13037570779845117,-0.19976839297637342
1782810992273193000,2.41519287109375,0.13539748148322103,-0.09190678786821663,-0.1615845005325973
1782810992283263700,2.425263671875,0.17126842080950735,-0.0942141149625182,-0.11727949486002326
1782810992293334800,2.435334716796875,0.13928864370286465,-0.10850538290441035,-0.06880377937406301
1782810992303406600,2.445406494140625,0.021374211940169332,-0.1006185751773417,-0.06488514462560414
1782810992313477600,2.4554775390625,-0.07282324414849281,-0.10139577009491622,-0.06882365311831236
1782810992323548700,2.465548583984375,-0.08706336642503738,-0.10350545572526752,-0.002175590473413467
1782810992333620700,2.475620849609375,-0.09352174878418446,-0.0801405083592981,0.04677329548224807
1782810992343691800,2.48569189453125,-0.1029395654708147,-0.06928864028155804,0.07706088171824813
1782810992353762800,2.4957626953125,-0.15043138448596,-0.08421594110466539,0.07363032274767756
1782810992363835000,2.5058349609375,-0.25210136841237546,-0.08709814547747373,0.0852738526597619
1782810992373905700,2.51590576171875,-0.3172919257253408,-0.0730358639858663,0.035716771677881475
1782810992383976700,2.525976806640625,-0.26220541379749773,-0.04344656221233308,0.044280309622734784
1782810992394048800,2.536048828125,-0.1845429129242897,-0.04267937723211944,0.060022068633884186
1782810992404119800,2.546119873046875,-0.1178191546946764,-0.07549392466247082,0.017415829703211785
1782810992414190800,2.55619091796875,-0.0517313562810421,-0.084195702034235,-0.018715075733512637
1782810992424262700,2.5662626953125,0.03031681233048439,-0.08576623928658664,-0.015293284591287374
1782810992434333700,2.576333740234375,0.19514555548131465,-0.08067775704115629,-0.0032712767556309697
1782810992444404700,2.58640478515625,0.248830968439579,-0.04849931555725634,0.025728461626917123
1782810992454476800,2.596476806640625,0.16986907540559767,-0.02333835161998868,-0.004800970540940762
1782810992464547800,2.6065478515625,0.18849778802990913,-0.007729644403979182,-0.025695143879204987
1782810992474618600,2.61661865234375,0.21381167750656604,-0.025808760321512816,-0.007100187394022941
1782810992484690700,2.626690673828125,0.20710428882241247,-0.016507774947583674,-0.0326648367613554
1782810992494761700,2.63676171875,0.21825462839007376,-0.04275616879537701,-0.03350625602155924
1782810992504832800,2.646832763671875,0.22412381268441675,-0.04333382255285978,-0.0567189354352653
1782810992514904800,2.65690478515625,0.19305998137891292,-0.05129486455991864,-0.04726458613052964
1782810992524975900,2.666975830078125,0.11408815147280692,-0.04197122896276414,-0.060492170363664624
1782810992535047000,2.677046875,0.001602174499630928,-0.042726504309475416,-0.054863955218344924
1782810992545118700,2.68711865234375,-0.027977555727958677,-0.041708632503822445,-0.07439516964033245
1782810992555189800,2.697189697265625,-0.028169278907775878,-0.04534888870231807,-0.07839227645248174
1782810992565260800,2.7072607421875,-0.03917465704679489,-0.07271686116456985,-0.10207081981226801
1782810992575332900,2.717332763671875,-0.058145899498462675,-0.07509243118949234,-0.12596329818367957
1782810992585403600,2.727403564453125,-0.027325813820958136,-0.06721665631309151,-0.13077990468516945
1782810992595474700,2.737474609375,-0.0583843844294548,-0.05477598467394709,-0.09913388957753777
1782810992605546800,2.747546630859375,-0.11573650320172309,-0.03242167565524578,-0.08930515400245785
1782810992615617800,2.75761767578125,-0.11990297523140907,-0.002265679909661412,-0.0640517625413835
1782810992625688800,2.767688720703125,-0.1091962877780199,0.012462810405716299,-0.031791561058163643
1782810992635761000,2.777760986328125,-0.07365384975373744,0.029293899023532865,-0.01134089370369911
1782810992645832000,2.78783203125,-0.0024509002834558484,0.029674641969427464,-0.027180121739953756
1782810992655903000,2.797903076171875,0.023448095604777335,-0.01312960375137627,-0.02840849449113011
1782810992665973800,2.807973876953125,0.03256254543066025,-0.01864405632391572,-0.04548442471548915
1782810992676045600,2.818045654296875,0.11590893715918063,-0.039293534186109896,-0.028505378994345663
1782810992686116600,2.82811669921875,0.1683908195465803,-0.06997326154485345,-0.0064256491333246225
1782810992696187600,2.838187744140625,0.10967734929323196,-0.044590179289504886,0.008555939160287379
1782810992706259700,2.848259765625,0.07330313661992549,-0.05790076563097536,-0.025995588130503892
1782810992716330800,2.858330810546875,0.09341127414703368,-0.039818288712576026,-0.06901347660198807
1782810992726401800,2.86840185546875,0.0473959574252367,-0.03153619805760682,-0.04376081579327583
1782810992736473900,2.878473876953125,-0.05457797788381576,-0.04198744944520295,-0.07273907299637794
1782810992746545000,2.888544921875,-0.0695510906100273,-0.07337211020290851,-0.101989717400074
1782810992756616000,2.898615966796875,-0.018630466189980505,-0.08166194577291608,-0.09236951000913977
1782810992766687700,2.908687744140625,-0.00987783541381359,-0.07999079769030212,-0.08492591600492597
1782810992776758800,2.9187587890625,-0.011215806019306182,-0.07173442599847912,-0.06895531667396426
1782810992786829800,2.928829833984375,0.04154956948459148,-0.05038768658712506,-0.029845833817869424
1782810992796902000,2.93890185546875,0.049186932495236396,-0.03144011727198958,0.02490779289379716
1782810992806973000,2.948972900390625,0.025943419551849364,-0.04246208121962845,0.029649142201989886
1782810992817044000,2.9590439453125,-0.019183423897624015,-0.05855433416888117,0.0375369728423655
1782810992827116000,2.969115966796875,0.013255202892422675,-0.0777533209618181,0.008431435997784138
1782810992837187000,2.97918701171875,0.005516133072972297,-0.08651917654573917,0.039395167929679155
1782810992847257900,2.9892578125,0.00797813927233219,-0.051171895767375825,0.0502792577765882
1782810992857330000,2.999329833984375,0.018481997630000115,-0.03629449850060046,0.044633945365995166
1782810992867401000,3.00940087890625,0.036789807736873625,-0.04476436681263148,0.04725844865068793
1782810992877472000,3.019471923828125,0.035846973928809166,-0.05857413484789431,0.07430953718349337
1782810992887543800,3.029543701171875,0.007160977670550346,-0.05238244060091674,0.08848083200752735
1782810992897614800,3.03961474609375,-0.029023849910497664,-0.062434755798801776,0.06169833128303289
1782810992907686000,3.049685791015625,-0.10523790554106235,-0.06440576361082494,0.05465513477325439
1782810992917758000,3.059758056640625,-0.1293780750632286,-0.054304129378497594,0.0630539836756885
1782810992927829000,3.0698291015625,-0.059932782915234566,-0.07011705392971634,0.05928893205374479
1782810992937899800,3.079899658203125,0.004395020088553428,-0.047551659443601964,0.047012072674185036
1782810992947971800,3.089971923828125,0.028570260924100876,-0.053758624324947595,0.01643003353625536
1782810992958043000,3.10004296875,0.0479798947930336,-0.059930225631967184,-0.01799699059203267
1782810992968114000,3.110114013671875,0.08841010485887527,-0.05052439164407551,-0.013249503803998232
1782810992978185000,3.12018505859375,0.13127894024848938,-0.06812229991592467,-0.011653028392791748
1782810992988257000,3.130257080078125,0.09155307905972003,-0.06322941330783069,-0.002613105107843876
1782810992998328000,3.140328125,0.05438859279155731,-0.032357670508325095,0.00010682137534022331
1782810993008399000,3.150399169921875,0.041973932376503945,-0.020395356970652936,-0.0006121405489742756
1782810993018471000,3.160470947265625,0.012801029384136199,-0.013620748269185422,0.02063698370680213
1782810993028542000,3.1705419921875,0.03494914830625057,-0.039048327253386375,0.01617196712195873
1782810993038612700,3.18061279296875,0.02903846295773983,-0.051368952709436415,0.027937369848042726
1782810993048684800,3.190684814453125,0.03800035257041454,-0.06640826253965497,0.04946078100055456
1782810993058755800,3.200755859375,0.08760521821677685,-0.062035015891492365,0.06442293394133448
1782810993068827000,3.210826904296875,0.053555064576864236,-0.0675237495008856,0.044452597449719904
1782810993078899000,3.22089892578125,-0.011051555368304253,-0.10295096364766358,0.01609539475440979
1782810993088970000,3.230969970703125,-0.04991700033545494,-0.08619009072184562,-0.04248816550895571
1782810993099041000,3.241041015625,-0.05286591326892376,-0.09014109336994588,-0.026902181581407784
1782810993109113000,3.251113037109375,-0.1516740780234337,-0.049785336779803034,-0.005554711517691612
1782810993119184100,3.26118408203125,-0.22643618128001688,-0.008248699842020868,-0.010213204848021268
1782810993129255000,3.2712548828125,-0.1732616404533386,-0.017569705090671777,-0.01065729535371065
1782810993139327000,3.281326904296875,-0.10039397264122962,-0.020421002868562934,-0.005388268909603357
1782810993149397800,3.291397705078125,-0.008601824128627776,-0.02157886766679585,-0.00944806569442153
1782810993159468800,3.30146875,0.030623686322569846,-0.04254267217516899,0.006225742647051811
1782810993169540900,3.311540771484375,0.06135024849772453,-0.031446473947539924,0.007370967159420251
1782810993179612000,3.32161181640625,0.0555740031838417,-0.01966148973815143,0.007902443687617779
1782810993189683000,3.331682861328125,0.030772739404439923,-0.011633373844251036,0.02177519395649433
1782810993199755000,3.341755126953125,0.04821194998323917,0.006751812347769737,0.04119681052416563
1782810993209826000,3.351825927734375,0.062495911401510236,0.03464402787983417,0.03234334972202778
1782810993219897000,3.36189697265625,0.10472527984380721,0.037896088478341694,0.03768310331478715
1782810993229969200,3.37196923828125,0.08015373316705227,0.019094576570391653,0.02035582867786288
1782810993240040000,3.3820400390625,0.04691489591002464,0.008746347165852784,-0.024750264244526622
1782810993250111000,3.392111083984375,-0.024613632252812385,-0.00975537807792425,-0.08171046108976006
1782810993260182000,3.40218212890625,-0.0738736299842596,-0.015107625826075673,-0.10486439605355262
1782810993270253800,3.41225390625,-0.06619125878810882,-0.013155688040703535,-0.10479030790403485
1782810993280324900,3.422324951171875,-0.07159341009259224,-0.021949892936274407,-0.10554857892543076
1782810993290396000,3.43239599609375,-0.06898761150836945,-0.006927461175620556,-0.09214943751767277
1782810993300468000,3.442468017578125,-0.025845219874382017,-0.004096183272451162,-0.09106777976080775
1782810993310539000,3.4525390625,0.018378537255525587,0.0022588117774575947,-0.07455766672566533
1782810993320610000,3.462610107421875,0.020835867279767988,0.005033829448744654,-0.07795709990561007
1782810993330682000,3.47268212890625,-0.0768973617196083,-0.00413768432661891,-0.12378551575317978
1782810993340753000,3.4827529296875,-0.18859598770737646,-0.02926657262519002,-0.17928148526474832
1782810993350824000,3.492823974609375,-0.19613105938732622,-0.049021878126636144,-0.20192133322656153
1782810993360896000,3.50289599609375,-0.11245149018168449,-0.028795959438756107,-0.16519538450613616
1782810993370966800,3.512966796875,-0.016193594431877137,0.0018502309765666722,-0.08578706287890672
1782810993381037800,3.523037841796875,0.006769932526350021,0.04835954176038503,-0.02322232402488589
1782810993391110000,3.53310986328125,-0.03844342016279697,0.06690203740596772,0.011667933700978756
1782810993401181000,3.543180908203125,-0.02621756031811237,0.05374101560302078,0.00015329086557030677
1782810993411252000,3.553251953125,-0.017915011397004126,0.018969415820762513,-0.005007745159417391
1782810993421324000,3.563323974609375,-0.004422492617368698,-0.0163688779335469,-0.03632423605173826
1782810993431395000,3.57339501953125,0.009102759388089179,-0.02413943886980414,-0.055620911065489054
1782810993441465900,3.5834658203125,0.12367664855122565,-0.000759366999939084,-0.02782791812419891
1782810993451538000,3.593537841796875,0.18408406324088572,0.01923807669430971,0.019180501288175583
1782810993461609000,3.60360888671875,0.1987251675337553,0.036557898677140474,0.08219912138953804
1782810993471680000,3.613679931640625,0.15343641152083873,0.06011266952678561,0.09829890005812049
1782810993481751000,3.6237509765625,0.019691957941651343,0.03319156404919922,0.062339990187436335
1782810993491822800,3.63382275390625,-0.0586895048558712,0.005521393769979476,0.0077272332511842245
1782810993501894000,3.643893798828125,-0.09913082083761691,-0.024824790785461664,-0.04917611884027719
1782810993511965000,3.65396484375,-0.11053951908051966,-0.026561478384956715,-0.09237798557654023
1782810993522037000,3.664037109375,-0.09685586164295673,-0.007616027961671352,-0.12808219003379345
1782810993532107800,3.674107666015625,-0.019498481196165082,0.010958616387844086,-0.08891279368400573
1782810993542178800,3.6841787109375,0.09223112445175648,0.028734803836047648,-0.017996552200615405
1782810993552251000,3.6942509765625,0.141813193744421,0.02436535658016801,0.0013178046002984046
1782810993562322000,3.704322021484375,0.14826047018766403,0.03503141976222396,0.039133740514516825
1782810993572393000,3.71439306640625,0.1357166304349899,0.04505458193086088,0.05522811235561967
1782810993582465000,3.724465087890625,0.06884615721106528,0.059191536093875764,0.03897197408154607
1782810993592536000,3.7345361328125,-0.019363456639647482,0.043132162500917906,-0.0184346513569355
1782810993602607000,3.744607177734375,-0.08689093246757984,0.006449030008912086,-0.08641732360646129
1782810993612679000,3.754678955078125,-0.0653384413510561,-0.008605842716619372,-0.12381854123994707
1782810993622750000,3.76475,-0.02315641918182373,-0.01443279530443251,-0.11138882938623428
1782810993632820700,3.77482080078125,0.01158756194114685,0.009086319709941745,-0.053711131921410554
1782810993642892800,3.784892822265625,0.05184475352764129,0.018891162952780722,-0.02719312735199928
1782810993652963800,3.7949638671875,0.06875146466493606,0.04464936213083565,0.0025679507918655873
1782810993663035000,3.805034912109375,0.0316974530339241,0.028710692308098078,0.018673282418400047
1782810993673106000,3.81510595703125,0.07022913600206375,0.0010475362915545702,0.00772854842543602
1782810993683178000,3.825177978515625,0.04476268631219864,-0.014780951154977082,0.01484904795512557
1782810993693249000,3.8352490234375,0.04862579148113727,-0.0027156156342476607,0.0009969020828604698
1782810993703320000,3.845320068359375,0.0076888009369373315,0.004357318426668644,0.003317600115388632
1782810993713392000,3.85539208984375,-0.01369768596291542,-0.013236278996244072,0.008119885830581187
1782810993723463000,3.865462890625,-0.017123568758368492,-0.006187018071860075,-0.01607595940157771
1782810993733534000,3.875533935546875,0.006043956339359283,-0.01881912062987685,-0.017488748808950183
1782810993743605800,3.885605712890625,0.0767360336780548,-0.026930896219238637,-0.00947919148504734
1782810993753676800,3.8956767578125,0.11521744776368141,-0.005645166280120611,0.004391512957215309
1782810993763747800,3.905747802734375,0.08990238924324512,-0.009559855505824088,-0.0000017535656690597534
1782810993773820000,3.91581982421875,0.07352993111312389,0.0007144318796694279,0.03195157392546534
1782810993783891000,3.925890869140625,0.03338321416378021,0.001661576536670327,-0.012849836961925029
1782810993793962000,3.9359619140625,0.034243045863509174,-0.038278073533251876,-0.0539686138138175
1782810993804034000,3.946033935546875,0.03687865506410599,-0.04395042008124292,-0.08664747910052538
1782810993814104800,3.956104736328125,0.039331308913230896,-0.02217997536510229,-0.07300824532657861
1782810993824175900,3.96617578125,0.09325345323681831,-0.026830139258503912,-0.0557549127086997
1782810993834248000,3.976248046875,0.19446341843605042,-0.01598725820481777,-0.053353842916339635
1782810993844319000,3.986319091796875,0.2635001297831535,-0.02158179027624428,-0.0346408130094409
1782810993854390000,3.99639013671875,0.21129180364012717,0.004532090471684932,-0.06813041015714406
1782810993864461000,4.0064609375,0.0906575915247202,-0.025835867524147033,-0.08331585045978426
1782810993874532900,4.016532958984375,0.0012760112851858138,-0.021608605217933653,-0.08290931548550724
1782810993884604000,4.02660400390625,-0.06540566136837005,-0.015461407699808477,-0.09550240120738744
1782810993894674700,4.0366748046875,-0.13363164085447787,-0.05508570821024477,-0.1239307694427669
1782810993904747000,4.0467470703125,-0.1645785677820444,-0.0625057752083987,-0.14298559852465986
1782810993914817800,4.05681787109375,-0.12718319536745548,-0.06493154105059802,-0.1489671571522951
1782810993924888800,4.066888916015625,-0.10517302361130713,-0.10217800651378929,-0.18033055592626332
1782810993934961000,4.0769609375,-0.1325233873516321,-0.0651871963120997,-0.18891732861623167
1782810993945032000,4.087031982421875,-0.05996376257538795,-0.03514284424744546,-0.11820581592470407
1782810993955103000,4.09710302734375,0.04013093485832214,-0.05127740196846425,-0.052202773185074325
1782810993965175000,4.107175048828125,0.12083236503601073,-0.03867978620193899,0.05196852603778243
1782810993975246000,4.11724609375,0.1604524277627468,-0.05852488887868821,0.08001388630494474
1782810993985316900,4.12731689453125,0.1479302153199911,-0.09736892573162913,0.0936119112856686
1782810993995389000,4.137388916015625,0.10793898119330406,-0.09868022752590477,0.08469897538125515
1782810994005459700,4.147459716796875,0.017225275567173955,-0.10317753894515334,0.06739917327314615
1782810994015530800,4.15753076171875,-0.07248188336491584,-0.09896832375228404,0.05737856838777661
1782810994025601800,4.167601806640625,-0.10062895044088363,-0.12740027218423783,0.06176584356129169
1782810994035673900,4.177673828125,-0.03204875068962574,-0.11548077487498522,0.09484861347377299
1782810994045745000,4.187744873046875,0.04338438369631767,-0.09865173208378254,0.11790084162876009
1782810994055816000,4.19781591796875,0.03258241917490959,-0.10499671719633043,0.12003390813469886
1782810994065888000,4.207887939453125,0.0012117138773202894,-0.11320435437560081,0.08569748489931225
1782810994075959000,4.217958984375,-0.000661094257235527,-0.10862550215274094,0.05071516497582197
1782810994086030000,4.228030029296875,0.0056254386663436885,-0.11760960359722375,0.03809066120237112
1782810994096102000,4.238101806640625,0.02625029354393482,-0.1150743129659444,0.044360389121621845
1782810994106173000,4.2481728515625,0.06498129847645759,-0.16604849420413373,0.0018688626118004321
1782810994116243700,4.25824365234375,0.08999825083315371,-0.1521766207180917,-0.02003624133467674
1782810994126315800,4.268315673828125,0.09208090232610702,-0.1324895581472665,-0.026064123322069643
1782810994136386800,4.27838671875,0.09477730180323124,-0.09769706170745193,-0.01774038548246026
1782810994146457900,4.288457763671875,0.027469606205821034,-0.07464278772585094,-0.010853256317228078
1782810994156530000,4.298530029296875,-0.07793897972702979,-0.04683642384633421,-0.027688071262091395
1782810994166601000,4.30860107421875,-0.08114683585762977,-0.06106288292370736,-0.04541413595825433
1782810994176672000,4.318672119140625,-0.073973583227396,-0.08934219807721674,-0.04289002430811524
1782810994186742800,4.32874267578125,-0.06311550460457802,-0.08508863228596747,-0.07551116805821657
1782810994196815000,4.338815185546875,-0.06566343552172184,-0.08752491952218115,-0.07166399111077189
1782810994206886000,4.348885986328125,-0.08685293854475021,-0.07169489770568907,-0.0383801456682384
1782810994216957000,4.35895703125,-0.06935293768942356,-0.03202675805352628,-0.0036817572526633736
1782810994227028700,4.36902880859375,0.026790391770005223,-0.021887495224550364,0.03544979130476713
1782810994237099800,4.379099853515625,0.11842998006939888,-0.04174216944724321,0.07915083973482251
1782810994247170800,4.3891708984375,0.10933891111910342,-0.06575052928328513,0.030533231560140848
1782810994257243000,4.399242919921875,0.030191140124201772,-0.09113719173520803,-0.044572570567578074
1782810994267314000,4.40931396484375,-0.0381458985209465,-0.08077186506539583,-0.06834419903829693
1782810994277385000,4.419385009765625,-0.0277805718511343,-0.055312429638206956,-0.008768412867188453
1782810994287457000,4.42945703125,-0.03183423115611076,-0.012667100806161761,0.026451661334931847
1782810994297527800,4.43952783203125,-0.05284253239333629,-0.003441007299348712,0.03401026002094149
1782810994307598800,4.449598876953125,-0.026820786908268928,-0.010066343723237513,0.026034751097112892
1782810994317670000,4.459669921875,0.0025227964758872986,-0.012179609550163149,0.04642375139221549
1782810994327742000,4.469741943359375,-0.058898179170489305,-0.004285276103764772,0.027857290349155663
1782810994337813000,4.47981298828125,-0.0282335763156414,-0.007660597755759954,0.03172492556273937
1782810994347884000,4.489884033203125,0.0679395637601614,-0.02712714944370091,0.05466580229774117
1782810994357955800,4.499955810546875,0.1450502759695053,-0.02035473269931972,0.0787558490678668
1782810994368027000,4.51002685546875,0.17141747389137743,0.006422288132458925,0.08261486258357763
1782810994378098000,4.520097900390625,0.11326982082724571,-0.00035575463511049746,0.043819998634606595
1782810994388170000,4.530169921875,0.016147417202591895,-0.01540931218639016,0.00881079070419073
1782810994398240800,4.54024072265625,-0.1165904896825552,0.018103081315010785,-0.017125030063092708
1782810994408311800,4.550311767578125,-0.165066059038043,0.001407236449420452,-0.011974369301646947
1782810994418384000,4.5603837890625,-0.1462047067016363,-0.011239917547255753,-0.015319295815378426
1782810994428455000,4.570454833984375,-0.08349193767905234,-0.011990955110266804,-0.03390066216662526
1782810994438526000,4.58052587890625,-0.050285249125957485,-0.020638664207234977,-0.05334449056610465
1782810994448598000,4.590597900390625,0.02018003371953964,-0.06362060458250343,-0.0817471398383379
1782810994458669000,4.6006689453125,0.030080665487051007,-0.05524550188183784,-0.11167539124265312
1782810994468740000,4.610739990234375,-0.0772808080792427,-0.04624883321672678,-0.1438951145850122
1782810994478811000,4.620810791015625,-0.1086912608653307,-0.01774323502667248,-0.15762261116430162
1782810994488882700,4.630882568359375,-0.027382512444257736,0.00979256828315556,-0.09225655115395784
1782810994498953700,4.64095361328125,0.018317746978998184,0.006620148792117833,-0.07023454282954335
1782810994509024800,4.651024658203125,0.09577040449380875,-0.00765402188450098,-0.07770122544839977
1782810994519096800,4.661096923828125,0.18254034093022345,-0.0162932554140687,-0.10095058361068367
1782810994529168000,4.67116796875,0.24046762924194334,-0.03168218239955604,-0.10610270567685365
1782810994539239000,4.681239013671875,0.18675766636431215,-0.0395581764716655,-0.09451192886531352
1782810994549311000,4.69131103515625,0.1289993048787117,-0.033385552251338955,-0.10159341155886649
1782810994559382000,4.701382080078125,0.06936813525855541,0.005056771932914853,-0.0927308906674385
1782810994569453000,4.711453125,0.008702361893653868,0.005061448108032346,-0.10576996659114957
1782810994579525000,4.721525146484375,-0.01975041013062,-0.009885580328851938,-0.14710808528214692
1782810994589596000,4.731595947265625,0.001765256106853485,-0.011330299244448542,-0.18586627048254012
1782810994599667000,4.7416669921875,-0.008828034099936485,0.018101400814577936,-0.11994988311305642
1782810994609738000,4.751738037109375,-0.0726186614871025,0.04223550592213869,-0.07952595665752887
1782810994619809800,4.761809814453125,-0.07164250993132591,0.04937624452225864,-0.08816679762229322
1782810994629880800,4.771880859375,-0.008355155891180037,-0.0018604601096361875,-0.09408785823434591
1782810994639952000,4.781951904296875,0.014463409638404845,-0.044112771036103365,-0.12913798269703983
1782810994650024000,4.79202392578125,0.04603168333470821,-0.040263256001099944,-0.10819441725909709
1782810994660095000,4.802094970703125,0.05083411518037319,-0.00020560557469725607,-0.07701251253187656
1782810994670165800,4.812165771484375,-0.01698036089539528,0.009758446817845106,-0.009479776006937026
1782810994680238000,4.822238037109375,-0.06738076083362102,0.04068440402261913,-0.004211918606609106
1782810994690308900,4.832308837890625,-0.01854629503786564,0.031024083817005155,-0.0034833120711147783
1782810994700380000,4.8423798828125,0.04795183774232864,-0.012763619983196257,-0.005058890824764966
1782810994710452000,4.852451904296875,0.06829553759098053,0.011325111612677574,0.0012044073536992073
1782810994720523000,4.86252294921875,0.08553834881484508,-0.00457717172242701,0.012400924150645733
1782810994730593800,4.87259375,0.12305354821681976,-0.027734686882793902,0.01317395434975624
1782810994740664800,4.882664794921875,0.06707856301665306,-0.016911095051467418,-0.021471388704329727
1782810994750737000,4.89273681640625,-0.003924479967355728,0.009706862761080265,0.0048562078595161436
1782810994760808000,4.902807861328125,0.02523205641210079,0.02767857278138399,0.025751111850142477
1782810994770878700,4.912878662109375,0.03566401857733726,0.02742737449929118,0.04567980115711689
1782810994780950800,4.92295068359375,-0.02833469860255718,0.04307232207246124,0.06595978811979293
1782810994791021800,4.933021728515625,-0.10552841292023658,0.038696152814850206,0.044098669445514674
1782810994801092900,4.9430927734375,-0.11567571292519568,0.02322919215708971,0.004827858547866344
1782810994811165000,4.9531650390625,-0.10817162090539932,0.023908698853850364,-0.0015739713184535502
1782810994821236000,4.963236083984375,-0.14217384375035763,-0.001147927926108241,-0.021443770045042037
1782810994831307000,4.97330712890625,-0.09643149875104427,-0.02298968431279063,-0.03985825539678335
1782810994841378800,4.98337890625,-0.02658113293349743,-0.030959494148194787,-0.09155264066830276
1782810994851449900,4.993449951171875,0.050794952213764184,-0.028280265001580117,-0.10145634117573499
1782810994861521000,5.00352099609375,0.135944009450078,-0.04618387822173536,-0.08126257119178772
1782810994871592000,5.013592041015625,0.2183580887645483,-0.029071926835924387,-0.03961012585461139
1782810994881664000,5.0236640625,0.17457681470513342,0.008071662774682044,-0.021690146021544933
1782810994891734800,5.03373486328125,0.0508510663151741,0.030187852188572287,0.005570639739185572
1782810994901805800,5.043805908203125,-0.07363806766271591,0.053631052422523494,0.003924333836883306
1782810994911878000,5.0538779296875,-0.17193419124186038,0.01872296677902341,-0.01969429602921009
1782810994921949000,5.063948974609375,-0.15427227782309055,-0.007268456633016467,-0.02732245282009244
1782810994932020000,5.07402001953125,-0.11227028839588164,-0.03147365421541035,-0.03431464979499578
1782810994942092000,5.084092041015625,-0.035460020437836644,-0.02014898099415004,0.009809154091775418
1782810994952163000,5.0941630859375,-0.008995791882276534,-0.027898279946669935,-0.005341214897483587
1782810994962234000,5.104234130859375,0.0267173265337944,-0.027895722663402556,-0.03538564002737403
1782810994972306000,5.114305908203125,0.02322831537425518,-0.0066818158514797684,-0.01896992727741599
1782810994982377000,5.124376953125,0.012234043151140211,-0.013727496579289436,-0.032231559910625214
1782810994992447700,5.13444775390625,0.010126841738820076,-0.031988325739279386,-0.0231130184315145
1782810995002518800,5.144518798828125,0.04907645785808563,-0.027827333602309226,-0.013827011431008576
1782810995012590800,5.1545908203125,0.08892156151235103,-0.03517228953763842,-0.014446604634076356
1782810995022662000,5.164661865234375,0.08011807733178138,-0.005814823758602142,0.03016176789924502
1782810995032733000,5.17473291015625,0.04544540787935257,0.024719065388664602,0.039366526357084514
1782810995042805000,5.184804931640625,0.017675357422232627,0.0042049774091690775,0.030158260767906904
1782810995052876000,5.1948759765625,0.016904957571625707,-0.03730557523928583,-0.003289835325628519
1782810995062947000,5.204947021484375,0.028304303464293478,-0.06401274570524693,-0.04761106148064136
1782810995073019100,5.21501904296875,0.03181260384619236,-0.06111870476417243,-0.0629486236050725
1782810995083090000,5.22508984375,0.02001812115609646,-0.0420830187741667,-0.05734320481345057
1782810995093161000,5.235160888671875,0.018302549409866333,-0.02427694764435291,-0.04666530506312847
1782810995103232000,5.24523193359375,0.06552782644331455,-0.017538506234809754,-0.037480566480010746
1782810995113303800,5.2553037109375,0.08753975176513194,-0.00438004171513021,0.028032062394171952
1782810995123374800,5.265374755859375,0.0721311702311039,-0.02769442793764174,0.05342617750018835
1782810995133446000,5.27544580078125,0.0410042105615139,-0.049248453424125906,0.023039076412469148
1782810995143518000,5.28551806640625,-0.040946342894434926,-0.04253171238973737,-0.01765709111317992
1782810995153589000,5.295589111328125,-0.0975111106812954,-0.07687851088866592,-0.024277970557659862
1782810995163660000,5.305659912109375,-0.09367898517251014,-0.046371802009269596,-0.020372049160301685
1782810995173730800,5.315730712890625,-0.10014379727244377,-0.04773848725259304,-0.03593728256076574
1782810995183801900,5.3258017578125,-0.1500526143014431,-0.04659560082778334,-0.005889496430009604
1782810995193873000,5.335872802734375,-0.178320677408576,-0.056321314419806,-0.01270969783887267
1782810995203945000,5.345945068359375,-0.0926046339392662,-0.05811616194732487,-0.03085048081576824
1782810995214016000,5.35601611328125,0.032167408633232114,-0.05451389967165887,-0.005552957952022552
1782810995224087000,5.366087158203125,0.07802665801048278,-0.045466304536908864,-0.001903933925181627
1782810995234159000,5.3761591796875,0.10622282492518424,-0.019120295533537862,-0.0025697043575346468
1782810995244230100,5.386230224609375,0.06630173342525959,-0.003571794072166085,0.02260974508449435
1782810995254301000,5.396301025390625,0.03940729675889015,-0.026067265127226708,-0.011356237403303384
1782810995264372000,5.4063720703125,0.054366380959749216,-0.05069156490452587,-0.053932665717601774
1782810995274443800,5.41644384765625,0.010794365736842155,-0.05600925279594957,-0.057008127640187735
1782810995284514800,5.426514892578125,-0.047643794706463814,-0.06336882177852093,-0.0747647336050868
1782810995294585900,5.4365859375,0.033007366588711735,-0.08480112058147787,-0.10722513383552432
1782810995304658000,5.446657958984375,0.1211778174728155,-0.07396532685570419,-0.09565145428925752
1782810995314729000,5.45672900390625,0.10044014987051486,-0.08925218170620501,-0.10123831451088189
1782810995324800000,5.466800048828125,0.14695523280799389,-0.06740114603452384,-0.04979629656523466
1782810995334872000,5.4768720703125,0.19016893611252306,-0.04344312814623117,0.006041179860383271
1782810995344943000,5.486943115234375,0.10657178449332713,-0.05590148157253861,0.030709757170826194
1782810995355014000,5.497013916015625,0.07349076814651488,-0.06321341202110052,0.02336757771447301
1782810995365085000,5.5070849609375,-0.002975216418504715,-0.06647212155610323,-0.016476356896013022
1782810995375157000,5.517156982421875,-0.11324643995165824,-0.09189064045101404,-0.09096402712538838
1782810995385228000,5.52722802734375,-0.11679799495339394,-0.07274659871570766,-0.1147981994383037
1782810995395299000,5.537299072265625,-0.09592880992591381,-0.0742868138950318,-0.0713575555101037
1782810995405371000,5.547370849609375,-0.07474222951233386,-0.06708258160464466,-0.05612900671809912
1782810995415442000,5.55744189453125,0.024995325046777723,-0.09275507526062428,-0.025735622020065782
1782810995425513000,5.567512939453125,0.0642576603770256,-0.092246906542778,-0.0055940206147730345
1782810995435585000,5.5775849609375,-0.009415478599071502,-0.0587496375452727,-0.0006320142932236194
1782810995445655800,5.58765576171875,-0.09274667275846003,-0.05994900339767337,-0.0380716642409563
1782810995455726800,5.597726806640625,-0.046509822240471836,-0.11449658614322543,-0.1273810560271144
1782810995465798000,5.6077978515625,0.004277531188726425,-0.08818206825666129,-0.12026245619356632
1782810995475870000,5.617869873046875,-0.024029694885015485,-0.027290450246632098,-0.026724779187887904
1782810995485941000,5.62794091796875,0.057253334572911256,-0.053223275339230894,0.05277662755027413
1782810995496012000,5.638011962890625,0.22624387357831,-0.058311976780369874,0.04948649996370077
1782810995506083800,5.648083740234375,0.2298983044326305,-0.0782549868736416,-0.02987286795526743
1782810995516155000,5.65815478515625,-0.0015641805768013,-0.07941263247616588,-0.1124967906281352
1782810995526226000,5.668225830078125,-0.0487292518556118,-0.038844694440066815,-0.11636559488549827
1782810995536298000,5.678298095703125,-0.13771861790716647,-0.004632043714821338,-0.04070844248533249
1782810995546368800,5.68836865234375,-0.17655016060471534,-0.07282068686522543,-0.13137144083753227
1782810995556439800,5.698439697265625,0.014832827472686766,-0.056068800963461396,-0.17123451853990554
1782810995566510800,5.7085107421875,0.0801788676083088,-0.019040435230359434,-0.13656681752353905
1782810995576583000,5.7185830078125,-0.13780162001550197,-0.002567512400448322,-0.23338936141878366
1782810995586654000,5.728654052734375,-0.7098965743273496,0.030672347769886255,-0.4109555671982467
1782810995596725000,5.73872509765625,-0.32069968834221363,0.049241950618103145,-0.2365627307578921
1782810995606797000,5.748797119140625,-0.05473521427214145,0.03429002681039273,-0.12232976398691535
1782810995616868000,5.7588681640625,0.21936521998047828,-0.1815170622970909,-0.26624329101145267
1782810995626939000,5.76893896484375,0.34927053378820416,-0.2756057973142713,-0.3441676576912403
1782810995637011000,5.779010986328125,0.6448287666112185,-0.2385715863622725,-0.2559792327590287
1782810995647081700,5.789081787109375,0.8389163374722003,-0.0840863233756274,0.0174510471470654
1782810995657152800,5.79915283203125,0.5930091475248337,0.09776895789988338,0.2819615230165422
1782810995667223800,5.809223876953125,0.1837970629930496,0.14173399102836848,0.45537893855348227
1782810995677295900,5.8192958984375,-0.07721183449625968,0.1826999884713441,0.5603054400578141
1782810995687367000,5.829366943359375,-0.2196422833561897,0.18244389481842516,0.511922663552314
1782810995697438000,5.83943798828125,-0.49125499244630333,0.0033220570947974917,0.23316738923117517
1782810995707510000,5.849510009765625,-0.33468262098729606,-0.1297217008691281,0.06823197083547711
