time,seconds_elapsed,z,y,x
1782661027694995500,0.074995361328125,-1.0337047500789165,0.03465745361698791,-0.26133725266084074
1782661027705066500,0.08506640625,-1.0455711289614438,0.02542533222818747,-0.310233385515958
1782661027715136500,0.095136474609375,-0.765831227517128,0.061410910910088566,-0.3139236183360219
1782661027725207600,0.10520751953125,-0.33435704229474067,0.0828158285157755,-0.19300006788522003
1782661027735278600,0.115278564453125,0.07985211987197399,0.06901330307205207,-0.061243134861439466
1782661027745349400,0.125349365234375,0.4986211373001337,0.08450863130777142,0.11261647148504852
1782661027755419400,0.13541943359375,0.7560738036125898,0.14416034139245748,0.3624840894959867
1782661027765490400,0.145490478515625,0.764424867850542,0.14358824059292674,0.3582749473683536
1782661027775561500,0.1555615234375,1.0572136359602213,0.009175568895973265,0.03903188757523894
1782661027785631500,0.165631591796875,1.0996399882793426,-0.014108705316064878,0.06368862831741572
1782661027795702500,0.17570263671875,0.4507628230601549,-0.04304129217995796,0.002007540430128574
1782661027805773600,0.185773681640625,0.01793313157558441,-0.11945316737098619,-0.18330986399799584
1782661027815844600,0.1958447265625,-0.0364203899025917,-0.11181898269811645,-0.17203224478885532
1782661027825914600,0.20591455078125,-0.14136252736747265,-0.08172607878400012,-0.15909575245678423
1782661027835985400,0.2159853515625,-0.3097597766548395,-0.04199982486958615,-0.16259426209703087
1782661027846056400,0.226056396484375,-0.42681379219591614,0.040787773065548386,-0.10025997099801898
1782661027856127500,0.23612744140625,-0.4442845669567585,0.0874417256176006,-0.040547406704723836
1782661027866197500,0.246197509765625,-0.4247855012387037,0.1463432292563375,-0.039690643744915724
1782661027876268500,0.2562685546875,-0.2825976289629936,0.18532080196160822,0.03198810654357075
1782661027886339300,0.26633935546875,-0.07092997774779797,0.17428152155298737,0.18706629392206667
1782661027896410400,0.276410400390625,0.13978373374342917,0.14015508780647068,0.19010814583599567
1782661027906480600,0.286480712890625,0.37420156142711636,0.09337292403117753,0.17875760752111672
1782661027916551700,0.2965517578125,0.5932067159235477,0.0490396421121899,0.18162717160806058
1782661027926622700,0.306622802734375,0.5302946249365806,0.01848827210715972,0.17916107375547288
1782661027936692500,0.3166923828125,0.16056465596556663,0.08503597051696851,0.17382438890263438
1782661027946763500,0.326763427734375,-0.17024901463389397,0.12884136523748746,0.12839753959327935
1782661027956834600,0.33683447265625,-0.336176658937335,0.1359136143118143,0.09938991016522049
1782661027966905600,0.346905517578125,-0.5561527042925357,0.12436612865272909,0.0905598302386701
1782661027976975400,0.356975341796875,-0.6925520562946796,0.10995385554651729,0.05085048179328441
1782661027987046400,0.36704638671875,-0.7009300085395574,0.07525103298441972,0.008797346700727939
1782661027997117400,0.377117431640625,-0.495041525247693,0.013001349145651328,-0.03645940673872828
1782661028007188500,0.3871884765625,-0.17895780626833438,-0.04684127811796497,-0.07033288863748312
1782661028017258500,0.397258544921875,0.1948205613106489,-0.05694595825732685,-0.013252280282974243
1782661028027329500,0.40732958984375,0.298759074690938,-0.027948000839911398,0.042820466203242535
1782661028037400600,0.417400634765625,0.2119265944123268,0.05507247883591335,0.07440919816568493
1782661028047471600,0.4274716796875,0.16860241647064686,0.0916837562346831,0.1476163270652294
1782661028057541600,0.437541748046875,0.12055763974785803,0.043007467542169615,0.1978698658786714
1782661028067612400,0.4476123046875,0.050261283728480335,-0.03310147461295128,0.15574293489754198
1782661028077683500,0.457683349609375,0.046130467534065245,-0.0642284068830777,0.03133402654901147
1782661028087754500,0.46775439453125,0.11578911017179488,-0.05890105611416511,-0.061180883280187844
1782661028097824500,0.477824462890625,0.15910452028512953,-0.0922699860242661,-0.10899272802993655
1782661028107895600,0.4878955078125,0.177000242459774,-0.12576220438731833,-0.13321151574626564
1782661028117966300,0.49796630859375,0.056928340402245516,-0.13154531783340498,-0.17434052173122763
1782661028128036600,0.50803662109375,0.022474282136559484,-0.10217652694275602,-0.20188655417412518
1782661028138107600,0.518107666015625,0.13030161964893341,-0.08524152129273861,-0.17044687529355287
1782661028148178700,0.5281787109375,0.202610484534502,-0.06231370496870949,-0.08915303218066692
1782661028158249700,0.538249755859375,0.2212204924583435,-0.005476933573745191,-0.01946633249223232
1782661028168319500,0.548319580078125,0.2828273460656404,0.03787396797807887,0.024682313574850557
1782661028178390500,0.558390625,0.34422260274887084,0.03063176003117114,0.06692278793305158
1782661028188461600,0.568461669921875,0.09982757093012333,0.0020371318507939576,0.06957929379120469
1782661028198532600,0.57853271484375,-0.05539806209504604,-0.022714191839657723,0.01775456013828516
1782661028208602400,0.588602294921875,-0.1612140597850084,-0.020242522762808947,-0.005634352625161409
1782661028218673400,0.59867333984375,-0.17533786220550537,0.008969488397240637,-0.015754033970832824
1782661028228744400,0.608744384765625,-0.03156359752118587,0.05588874995512887,0.028981472073495388
1782661028238815500,0.6188154296875,0.0660135641336441,0.05200293976403773,0.09207447258532046
1782661028248885500,0.628885498046875,0.091415131893754,0.029808022558130323,0.09993380778357386
1782661028258956500,0.63895654296875,0.10368366183638572,-0.00606249664304778,0.12487784103453159
1782661028269027600,0.649027587890625,-0.016650106027722357,-0.04371511348802596,0.02623173497393727
1782661028279097600,0.65909765625,-0.24607962390482424,-0.08271804896341636,-0.10575111576020717
1782661028289168600,0.669168701171875,-0.397775913760066,-0.06633854003800078,-0.18517872660979628
1782661028299239700,0.67923974609375,-0.37878187495470045,-0.05687553250277415,-0.18973434408754108
1782661028309310500,0.689310546875,-0.227241652444005,-0.09310794381890446,-0.18300182096213102
1782661028319380500,0.69938037109375,-0.03856324715018272,-0.08522044197209179,-0.16664923657625913
1782661028329451500,0.709451416015625,0.10974632287621497,-0.08761526468675583,-0.12303542803823947
1782661028339522600,0.7195224609375,0.19111118539869784,-0.10401797182466835,-0.08313903258815407
1782661028349593300,0.72959326171875,0.2016828482955694,-0.09552353532696142,-0.05445639733076095
1782661028359663400,0.739663330078125,0.3097235362976789,-0.08058865398559718,-0.011161007092148064
1782661028369734400,0.749734375,0.4260357935607433,-0.08708603491457179,0.04150821456089616
1782661028379805400,0.759805419921875,0.22810966745018957,-0.08687389000123366,0.07708338581100106
1782661028389876500,0.76987646484375,-0.032439795833826064,-0.03043389937151223,0.10499708252251147
1782661028399946500,0.779946533203125,-0.10346446612775326,-0.01042998940385878,0.11775281146019696
1782661028410017300,0.790017333984375,-0.07419102537035942,-0.02430436537424102,0.15172390851452947
1782661028420088300,0.80008837890625,0.0014168810606002807,-0.0495478199631907,0.21617665307223796
1782661028430158300,0.810158447265625,-0.04844283612966537,-0.04646985555626452,0.21146993668600916
1782661028440229400,0.8202294921875,-0.1450771639764309,-0.014723923738114535,0.18455270366594195
1782661028450300400,0.830300537109375,-0.11405600276887416,0.00035423853145912285,0.18231135447993874
1782661028460371200,0.84037109375,0.01277004972398281,-0.023634685951750722,0.17943609130457042
1782661028470441200,0.850441162109375,0.04314648328721523,-0.048461741759534924,0.1808273995324969
1782661028480512300,0.86051220703125,-0.0327910934895277,-0.04345087306126952,0.1390270701572299
1782661028490583300,0.870583251953125,-0.14716449164450168,-0.009756126996595412,0.10103943093791604
1782661028500654300,0.880654296875,-0.16457798326015471,0.011831599830091,0.09281023951396346
1782661028510724400,0.890724365234375,-0.09898936654031276,0.007295125444233417,0.08892448412179946
1782661028520795400,0.90079541015625,0.07233166123926639,-0.00042509354427456853,0.07147942832410335
1782661028530866400,0.910866455078125,0.19264380179345605,-0.013375797064788638,0.08416033845990896
1782661028540936200,0.920936279296875,0.14092179786264897,0.01628616808615625,0.031084289571642873
1782661028551007200,0.93100732421875,0.055692076605558395,0.010938779176212847,-0.007637363010644912
1782661028561078300,0.941078369140625,0.045835868501663206,0.005289009786210954,-0.01722103778347373
1782661028571149300,0.9511494140625,0.12650865710675716,-0.023799539390951394,-0.03610270225554704
1782661028581219300,0.96121923828125,0.22743396014571188,-0.04862210168670863,-0.03184402189776301
1782661028591290000,0.9712900390625,0.0554085834890604,-0.045835576240718365,-0.08046674463897943
1782661028601361200,0.981361083984375,-0.1122895776182413,-0.04932769267279655,-0.1758639319062233
1782661028611432200,0.99143212890625,-0.0026338556349277493,-0.10902842039782554,-0.23371464785039422
1782661028621502500,1.00150244140625,0.12840952229201794,-0.1644434701602906,-0.21763810392692684
1782661028631573500,1.011573486328125,0.1957926212131977,-0.14409768795240668,-0.13544117449447513
1782661028641644300,1.021644287109375,0.19631693734824657,-0.08275828964225948,-0.10178455021679401
1782661028651714300,1.03171435546875,-0.022834932142496107,-0.04992733906637877,-0.12520794977173208
1782661028661785300,1.041785400390625,-0.1439309165507555,-0.03994377825576812,-0.10969196234047413
1782661028671856400,1.0518564453125,0.011694529446959494,-0.05075717748664319,-0.064203738232702
1782661028681927400,1.061927490234375,0.18222411458790302,-0.09630407297909259,0.038039077145606275
1782661028691997200,1.0719970703125,0.25590835947990415,-0.10768591974768787,0.08921747571900486
1782661028702068200,1.082068115234375,0.22595161263346672,-0.07106587908715009,0.10638239940106868
1782661028712139300,1.09213916015625,0.010162497574090957,-0.032856888734735544,0.1049682948194444
1782661028722210300,1.102210205078125,-0.10151567014753818,-0.009560440027713776,0.12063333533257245
1782661028732280300,1.1122802734375,-0.07741992428898811,-0.041879495558701456,0.11422346829026937
1782661028742351400,1.122351318359375,-0.04077098632752895,-0.06737133541814982,0.14392799394130706
1782661028752422400,1.13242236328125,-0.006522679767012596,-0.0558453674711287,0.15535159749239683
1782661028762492400,1.142492431640625,-0.04733867428004741,-0.06332933001834899,0.11309008034616708
1782661028772563500,1.1525634765625,-0.1340571727901697,-0.0681981416311115,0.09508636775240302
1782661028782634200,1.16263427734375,-0.16063304502665995,-0.06921473479513078,0.06168561793193221
1782661028792705300,1.172705322265625,-0.11218787080943583,-0.08255180728472769,0.09019508857950567
1782661028802775300,1.182775390625,-0.04387304399609566,-0.059440140560083086,0.09903861250951886
1782661028812846300,1.192846435546875,-0.01813011545240879,-0.07036054382938892,0.10284268096759915
1782661028822917400,1.20291748046875,-0.02529927642941475,-0.05865386728690937,0.06779460233151913
1782661028832988200,1.21298828125,0.009721183547377586,-0.0656716005618684,0.056602469448745245
1782661028843058400,1.223058349609375,0.07113923658430577,-0.09386753001455217,0.03009673983901739
1782661028853129500,1.23312939453125,0.09790098678171634,-0.13443789746975526,0.008409224165976047
1782661028863200500,1.243200439453125,0.07515724005401134,-0.15781230678381397,-0.016722879002988338
1782661028873270300,1.253270263671875,0.010913023680448532,-0.14507104476289823,0.015350421606004238
1782661028883341300,1.26334130859375,-0.03372106781601906,-0.09698480351855977,0.0073415949344635
1782661028893412400,1.273412353515625,-0.027906244057416915,-0.06689907826390117,0.034683190846443175
1782661028903483400,1.2834833984375,0.02910334488749504,-0.05608644621800631,0.058554188038408755
1782661028913553200,1.29355322265625,0.08822422689795494,-0.07884926297236233,0.05369111204668879
1782661028923624200,1.303624267578125,0.08818038775622844,-0.11261380460392684,0.04101794682592153
1782661028933695200,1.3136953125,0.07265782445371151,-0.1467899957763031,0.012032236968725919
1782661028943765500,1.323765625,0.008596563431620597,-0.13943219862570985,0.01794642944857478
1782661028953836500,1.33383642578125,-0.00046703298985958095,-0.10928182890331371,0.03539367720335722
1782661028963907300,1.3439072265625,-0.027643209207057953,-0.08868552426677197,0.031594723311811686
1782661028973978400,1.353978271484375,-0.09192834211289883,-0.10018454940794035,0.04018047308847308
1782661028984048400,1.36404833984375,-0.07752747631669044,-0.13177687983326614,0.026903789016604424
1782661028994119400,1.374119384765625,-0.14293781386017798,-0.11693641704339533,0.013103519462049006
1782661029004190500,1.3841904296875,-0.2214239060759544,-0.09096044692881405,0.0034340661019086837
1782661029014261200,1.39426123046875,-0.15858955650031567,-0.06740901881372556,0.01502133578211069
1782661029024331300,1.404331298828125,-0.043753801530599594,-0.09617461964683606,0.014311433947086333
1782661029034402300,1.41440234375,0.10415595552325248,-0.0875377242048271,0.023202450280636548
1782661029044473300,1.424473388671875,0.25518705946803094,-0.08969512143442407,0.03313464623019099
1782661029054543400,1.43454345703125,0.30051030227243897,-0.08244838344287127,0.08340820491835474
1782661029064614400,1.444614501953125,0.2745715588957071,-0.020694266851991414,0.0956736661210656
1782661029074685400,1.454685546875,0.1844604953378439,-0.006474949901457875,0.05831219597607851
1782661029084756500,1.464756591796875,0.0590203442454338,-0.023478892601840197,0.029552988351136445
1782661029094826500,1.474826416015625,-0.015298106896877288,-0.04144992676870897,-0.040420273193717
1782661029104897300,1.484897216796875,-0.03533960892856121,-0.11211396532300859,-0.10029080452769994
1782661029114968300,1.49496826171875,-0.0055681555211544035,-0.10092119311941787,-0.10481047390922904
1782661029125038300,1.505038330078125,0.03652560384273529,-0.09516947945859283,-0.09350684347599744
1782661029135109400,1.515109375,0.1428846223682165,-0.08889423511400818,-0.05916895893588662
1782661029145180400,1.525180419921875,0.21745032626986502,-0.11260982254855334,0.010380378108471632
1782661029155251200,1.535251220703125,0.21927987978458402,-0.10397977697243914,0.013895985013991594
1782661029165321500,1.545321533203125,0.08165244729220866,-0.11069045359222218,-0.022875264152884482
1782661029175392500,1.555392578125,-0.03498363509774208,-0.09497074201609938,-0.047243689472973346
1782661029185463600,1.565463623046875,-0.09255611862242222,-0.08694529300332068,-0.030343992598354814
1782661029195533300,1.575533203125,-0.07637596819400787,-0.09017247488889843,-0.02227759052067995
1782661029205604400,1.585604248046875,-0.06590425854027271,-0.07963500652257352,0.010809709436446428
1782661029215675400,1.59567529296875,-0.042618075498938555,-0.10010984020391478,0.005860270335525274
1782661029225746400,1.605746337890625,-0.06986731695234775,-0.15161611902480945,0.024310265392065048
1782661029235816200,1.615816162109375,-0.05567454094886779,-0.14236045236364006,0.0018660861328244208
1782661029245887200,1.62588720703125,-0.08124854266643523,-0.10850246029496192,0.04714461301267147
1782661029255958300,1.635958251953125,-0.16654080776572228,-0.05611141626248136,0.057711891995370385
1782661029266028300,1.6460283203125,-0.18904490051865577,-0.05416178003204986,0.044520255858451124
1782661029276099300,1.656099365234375,-0.12370412108004092,-0.01689193369327113,0.0843611217290163
1782661029286170400,1.66617041015625,-0.07995207311511039,-0.015295312151592223,0.1216841595597565
1782661029296241400,1.676241455078125,-0.06350947235822678,0.008833952384069562,0.1280596859410405
1782661029306311400,1.6863115234375,-0.046377135771512985,0.01862895008632913,0.12196882172003387
1782661029316382500,1.696382568359375,-0.07017360642254353,0.01716770016103983,0.11999679099470376
1782661029326453500,1.70645361328125,-0.06995616427958011,0.005521247639507055,0.1149311781682074
1782661029336523300,1.716523193359375,0.004626490756869316,0.004388864342402666,0.10618789974227547
1782661029346594300,1.72659423828125,0.06821545809209346,0.009082483785040675,0.1212412380978465
1782661029356665300,1.736665283203125,0.07180266892910003,-0.0009326046749949454,0.1383103001900017
1782661029366736400,1.746736328125,0.062353288060426705,-0.004591529041342437,0.1189163022816181
1782661029376806100,1.75680615234375,0.054663318079710005,-0.022799495502933857,0.09897226927503942
1782661029386877200,1.766877197265625,0.030488077244162557,-0.02258252828400582,0.07457388720810412
1782661029396948200,1.7769482421875,0.005510287854075432,-0.012731891404371708,0.06070405954867601
1782661029407018200,1.787018310546875,-0.03407294999361038,-0.01216989187374711,0.05158712550476193
1782661029417089000,1.797089111328125,-0.09230418968796729,-0.019855605804454533,0.03950871130675077
1782661029427160000,1.80716015625,-0.15477262856066226,-0.04668417416037991,0.018581950873136518
1782661029437231000,1.817231201171875,-0.12472703438699245,-0.06249116216115653,-0.024638474433124065
1782661029447301000,1.827301025390625,-0.12997078025937078,-0.0646019803026691,-0.015713117438554764
1782661029457372200,1.8373720703125,-0.08089666048884392,-0.07466140109477565,-0.023242928421497343
1782661029467443000,1.84744287109375,0.055010524082183834,-0.08630242852251976,-0.033162411019951106
1782661029477513000,1.857512939453125,0.08599076875746249,-0.08910325648849829,0.014980273119360208
1782661029487584000,1.867583984375,0.05713116949796676,-0.0660224050272256,0.030312866807729003
1782661029497655000,1.877655029296875,0.07867021661102772,-0.04878876349050552,0.03689107615426183
1782661029507726000,1.88772607421875,0.06425415324568748,-0.03882398044560104,0.08763371365889906
1782661029517796000,1.897796142578125,0.0010568155765533446,-0.025676366113498807,0.07637319171503186
1782661029527867100,1.9078671875,-0.1420791512042284,-0.0025158552784472705,0.06547668077796698
1782661029537938200,1.917938232421875,-0.1909042646497488,0.02636148056713864,0.0681954382173717
1782661029548008200,1.92800830078125,-0.10880991880893706,-0.0011996033144183456,0.06599237521514296
1782661029558079000,1.938078857421875,-0.028061726880073547,-0.01923133642626926,0.06306070567741989
1782661029568150000,1.94814990234375,0.10468728592097759,-0.02474531407477334,0.0798630796574056
1782661029578221000,1.958220947265625,0.2951373770624399,-0.05889668133314699,0.09450053068846463
1782661029588291000,1.968291015625,0.35077801574170586,-0.10291541741024703,0.08560235396176576
1782661029598362000,1.978362060546875,0.3088613665103912,-0.1055744440190494,0.0582730330094695
1782661029608433000,1.988432861328125,0.1746089634090662,-0.07868382501127198,0.012437456768751144
1782661029618503200,1.998503173828125,-0.03573299216032028,-0.07174383314764127,-0.04167538782134652
1782661029628574200,2.00857421875,-0.11093699396550655,-0.05791190807949751,-0.018346096290647984
1782661029638645200,2.018645263671875,-0.11154548125267028,-0.041830012127477674,0.016759850012511013
1782661029648716300,2.02871630859375,-0.11859773785173892,-0.05777233521202579,0.05373918897211551
1782661029658786000,2.0387861328125,-0.13940496355891227,-0.02617609579656273,0.08323606322184204
1782661029668857000,2.048857177734375,-0.15571078619360923,-0.0309389810831286,0.06545929125174879
1782661029678928100,2.05892822265625,-0.13068097435533998,-0.021984836385492233,0.049237493638694285
1782661029688998000,2.068997802734375,-0.09936053794026374,-0.010342146723624318,0.06624050475731491
1782661029699069000,2.07906884765625,-0.04975801038146019,0.017304916674643754,0.0898043356962502
1782661029709140000,2.089139892578125,0.0020610241830348965,0.005929773641470819,0.09570815291255712
1782661029719210200,2.099210205078125,0.05053659353852272,-0.05046676143901423,0.1048472987882793
1782661029729281300,2.10928125,0.008170446974039076,-0.08077767375167459,0.07846227294877171
1782661029739352000,2.11935205078125,-0.09425824636518955,-0.07321065429719165,0.048289691394567485
1782661029749423000,2.129423095703125,-0.19189853638410567,-0.028618264784291386,0.015892711789160966
1782661029759493000,2.1394931640625,-0.22172727293670177,-0.008868457441870122,-0.00794336021989584
1782661029769564200,2.149564208984375,-0.1659124467343092,-0.028212296065595,-0.01117386657372117
1782661029779635200,2.15963525390625,-0.05937865616381168,-0.02457099868748337,-0.008838993885368109
1782661029789705000,2.169705078125,0.07821896571218967,-0.049928800371102984,-0.007075052952766418
1782661029799776000,2.17977587890625,0.19810849694013594,-0.036070590084232385,0.022715689677000044
1782661029809847000,2.189846923828125,0.25121698679327964,-0.04588264851914718,0.0424921110317111
1782661029819918000,2.19991796875,0.29855975272655483,-0.008269815695285797,0.06850275060087442
1782661029829988000,2.209988037109375,0.2831792282432318,0.01785676013743505,0.0674785221196711
1782661029840059100,2.22005908203125,0.2245925992399454,0.03273264130055904,0.08110036636739969
1782661029850130200,2.230130126953125,0.22692717966735362,0.04492036109194159,0.09374737423360348
1782661029860200200,2.2402001953125,0.20256606087088583,0.02949557734178379,0.07958645467311143
1782661029870271200,2.250271240234375,0.1543435894936323,0.0073306899479590355,0.08372925356626511
1782661029880342000,2.260342041015625,0.081398180270195,0.03202683111876249,0.06321311976015567
1782661029890412000,2.270412109375,-0.032143443235754965,0.024770247586630285,0.02856529248803854
1782661029900483000,2.280483154296875,-0.11378127748072146,0.01506448080409318,0.019433307005465028
1782661029910554000,2.29055419921875,-0.1365069040298462,0.0069999784225597975,0.030166736335307358
1782661029920625200,2.300625244140625,-0.12600246115028857,-0.007423172270692884,0.05396875994428992
1782661029930695200,2.310695068359375,-0.08422083647549151,-0.016731244972534476,0.05773278865292668
1782661029940766200,2.32076611328125,-0.04655307686030864,-0.017315200606640428,0.053393152013421055
1782661029950837200,2.330837158203125,-0.042377252480387685,-0.041051903894450514,0.05819353803247213
1782661029960907000,2.340906982421875,-0.060978492575883864,-0.03829591971719637,0.051414545416831964
1782661029970978000,2.35097802734375,-0.06041735156178474,-0.04754712939895689,0.03246478414461017
1782661029981049000,2.361049072265625,-0.0007329904496669769,-0.06313908640956506,0.026146102517098188
1782661029991119000,2.371119140625,-0.014648703077435493,-0.03007642770335078,0.04647358188331127
1782661030001190100,2.381190185546875,-0.06995908688902855,-0.008373824059031903,0.011248246984183788
1782661030011261000,2.391260986328125,-0.062247489598393435,-0.033672662097029384,-0.020094693523645398
1782661030021332000,2.40133203125,0.03973988971412182,-0.06376196754826233,-0.015527531738579273
1782661030031402000,2.411402099609375,0.06551905861496925,-0.07059577735736966,0.024000176529586314
1782661030041473000,2.42147314453125,0.023723989936709402,-0.04779096635850146,0.035175212147086854
1782661030051544000,2.4315439453125,0.07713467760682105,-0.00755437916861847,0.032124007882922884
1782661030061614000,2.441614013671875,0.17680676571428774,-0.04019373442884534,0.10405936328098177
1782661030071685000,2.45168505859375,0.16848960374593733,-0.02898055875804275,0.13068185113817452
1782661030081756200,2.461756103515625,-0.005285831448435783,0.01678595256814733,0.0722061351634562
1782661030091826200,2.471826171875,-0.22623685931563375,0.028225831400603054,-0.019623130489140748
1782661030101897000,2.48189697265625,-0.1753103896766901,0.0018271058293059467,-0.020417787998169658
1782661030111968000,2.491968017578125,-0.058900517258048055,-0.029077571125421673,0.06921089887022971
1782661030122039000,2.5020390625,-0.06074643738567829,0.0072408197074197225,0.07961231976673007
1782661030132109000,2.512109130859375,-0.04778934065699577,0.010007800202723592,0.03360737830847502
1782661030142180000,2.52218017578125,-0.01001812066733837,-0.005611337075755,0.028326953687518832
1782661030152251000,2.5322509765625,0.008008534410595894,-0.03867896421803161,0.05130699338912963
1782661030162321200,2.542321044921875,0.04813187048435211,-0.041211770631279794,0.027853929348289966
1782661030172392200,2.55239208984375,0.11737141092717647,-0.03579880567183718,-0.0031099487140774725
1782661030182463200,2.562463134765625,0.12122516374588012,-0.05964368204185739,-0.017078706703335046
1782661030192534300,2.5725341796875,0.1062900449424982,-0.05066264933729544,-0.013397241711616515
1782661030202604000,2.58260400390625,0.08817688062489032,-0.045705647984426466,-0.02458499068021774
1782661030212675000,2.592675048828125,0.04659165530502796,-0.04075856523737311,-0.0518805554933846
1782661030222746000,2.60274609375,0.0000023380875587463378,-0.02944631310626864,-0.02872968926951289
1782661030232815900,2.61281591796875,-0.046830724757909774,-0.014338924742210655,-0.02281754261627793
1782661030242887000,2.622886962890625,-0.06666530604064465,-0.016042659920174628,-0.03180763541013002
1782661030252958000,2.6329580078125,-0.018450433447957038,0.009604370500985532,0.005994418109208345
1782661030263028200,2.6430283203125,0.12179273450076579,-0.003768650084827095,0.0383484353557229
1782661030273099300,2.653099365234375,0.2380950548917055,-0.025365637930203227,0.10360358233749865
1782661030283170000,2.663170166015625,0.21649054132699966,0.017655976868327705,0.16850597035884857
1782661030293241000,2.673240966796875,0.10897709206938742,0.05148782984875142,0.16356033065021036
1782661030303311000,2.68331103515625,-0.04080021242201328,0.04409143598712981,0.11436492258757353
1782661030313382100,2.693382080078125,-0.1417477272927761,0.014840992512833327,0.07184723872318863
1782661030323453200,2.703453125,-0.09742167883217334,-0.00810808579493314,0.06109583534523844
1782661030333523000,2.71352294921875,-0.10445464620888233,-0.046420554788131264,0.04283361794576049
1782661030343594000,2.723593994140625,-0.13218027300238608,-0.0664517728878185,-0.028236791186034678
1782661030353665000,2.7336650390625,-0.0902472571581602,-0.0843297950089909,-0.08196955041736363
1782661030363735300,2.7437353515625,0.04602934524714947,-0.09739924780465661,-0.040758711367845535
1782661030373806000,2.75380615234375,0.13974983147382736,-0.08421844358900561,0.004937456402182579
1782661030383877000,2.763877197265625,0.12522913869023322,-0.0699070827071555,0.015917700099945066
1782661030393947100,2.773947021484375,0.08135667921602725,-0.027179993875790384,0.0935227716974914
1782661030404018400,2.784018310546875,0.030113398712873458,-0.006976241353945806,0.09174918615370989
1782661030414089500,2.79408935546875,-0.015700842478871345,0.011711096989270298,0.07626841616630554
1782661030424160500,2.804160400390625,-0.052689387658238405,0.03659302478944883,0.09235241274386644
1782661030434230500,2.81423046875,-0.045482817280292506,0.047040394586371256,0.12945946973636746
1782661030444301300,2.82430126953125,-0.06394084951281548,-0.011536489341035485,0.11563786513283848
1782661030454372400,2.834372314453125,-0.1043511858344078,-0.033013978992588816,0.09890957930237054
1782661030464442400,2.8444423828125,-0.14053016819655895,0.021820750131271778,0.08830167604833841
1782661030474513400,2.854513427734375,-0.12231880420148372,0.035449800437921654,0.13447700563743709
1782661030484584400,2.86458447265625,-0.1571843658775091,0.001557321577752009,0.17718860463872552
1782661030494655500,2.874655517578125,-0.19859598819613455,-0.011578008661512285,0.1551942149735987
1782661030504725500,2.8847255859375,-0.25941198368668555,-0.06593476327639072,0.05878551257625222
1782661030514796500,2.894796630859375,-0.24492051699757575,-0.12389682150739244,-0.07155877717062831
1782661030524867600,2.90486767578125,-0.12335633055567741,-0.1611124077751301,-0.14377134207487105
1782661030534937300,2.914937255859375,0.06825695914626122,-0.16515572834918274,-0.11982552608102559
1782661030545008400,2.92500830078125,0.13789923517107963,-0.11438267743997275,-0.0834457604497671
1782661030555079400,2.935079345703125,0.052256841459870335,-0.06036355728162452,-0.0717268272139132
1782661030565149400,2.9451494140625,0.07052490407824516,-0.006775339353829622,-0.01880406919121742
1782661030575220500,2.955220458984375,0.10642039332389831,0.024090905286651105,0.02072612329497933
1782661030585291300,2.965291259765625,0.1300064360946417,0.02994883753461763,0.09636880877837538
1782661030595361500,2.975361572265625,0.1559814198285341,0.035190720243472605,0.10919716456085443
1782661030605432600,2.9854326171875,0.1275315704137087,0.017636742444895208,0.07850362787246704
1782661030615503600,2.995503662109375,0.07775894698500632,-0.003619523937720805,0.049805064393579956
1782661030625574700,3.00557470703125,-0.006908464214205741,-0.027379516769573092,0.0019045184470713138
1782661030635644400,3.01564453125,-0.032821488627791405,-0.05448976987740024,-0.0689401191048324
1782661030645715500,3.025715576171875,0.018372107514739035,-0.06053204571632668,-0.03678381638750434
1782661030655786500,3.035786376953125,0.06250058757662773,-0.02604810376903042,-0.007327274148166179
1782661030665856300,3.045856201171875,0.04524316330552101,-0.04205792086552828,-0.05597966137528419
1782661030675927300,3.05592724609375,0.01080722521841526,-0.06201852141441777,-0.08641849265024065
1782661030685998300,3.065998291015625,-0.03476619295477867,-0.0002979052343405783,-0.02239215681105852
1782661030696068600,3.076068603515625,-0.0374836352199316,-0.005264660796243697,0.04217939182072877
1782661030706139600,3.0861396484375,0.007113046875596046,-0.05021857709791511,0.03523381046652794
1782661030716210400,3.09621044921875,0.05423778614401817,-0.08211250255201011,-0.056362230952084064
1782661030726280400,3.106280517578125,0.0713292061984539,-0.1295743100213818,-0.1073182189464569
1782661030736351500,3.1163515625,0.022341011145710944,-0.0685447813780047,-0.07257964465096592
1782661030746422500,3.126422607421875,-0.026653029125928877,-0.0026779322386719286,0.0019369594119489192
1782661030756493600,3.13649365234375,-0.01052490114569664,-0.005333926640171557,0.033020664461702105
1782661030766563300,3.146563232421875,0.08231821772456169,-0.0187016499963589,0.04816124270930886
1782661030776634400,3.15663427734375,0.11696575273573398,-0.06457659013308584,0.015321780033409595
1782661030786705400,3.166705322265625,0.08980828121900558,-0.08596134173357858,-0.010535276409238577
1782661030796775700,3.176775634765625,0.06618482904732227,-0.009563764495961368,0.030592852792888876
1782661030806846500,3.186846435546875,0.024123802909255025,0.04651585012245923,0.13239128540456294
1782661030816917500,3.19691748046875,0.014727613532543182,0.07186736819576471,0.21574410687386988
1782661030826987500,3.206987548828125,0.03911854294538498,0.09469267399339004,0.228999455896765
1782661030837058600,3.21705859375,-0.007403554254770278,0.07851053253728896,0.1565584890641272
1782661030847129600,3.227129638671875,-0.011510989573597908,-0.0062134859536774455,-0.00818944393545389
1782661030857199400,3.237199462890625,-0.04946808752417564,-0.08305263294633478,-0.05916267532557249
1782661030867270400,3.2472705078125,-0.09514438154995442,-0.12967336821537465,-0.09870105111822486
1782661030877341400,3.257341552734375,-0.11715572234988211,-0.14680908406926318,-0.12457067478150129
1782661030887412500,3.26741259765625,-0.07678688708245754,-0.12271034253602847,-0.07573065602779389
1782661030897482500,3.277482421875,0.00021101240217685698,-0.0957009377204813,-0.008630027309805154
1782661030907553500,3.287553466796875,0.00034662148058414456,-0.06835773437330499,0.06412979621365666
1782661030917624600,3.29762451171875,0.010032733714580536,-0.022363478705845773,0.11739289210662245
1782661030927694600,3.307694580078125,-0.01224456454515457,-0.0007443886265158652,0.14239070137143134
1782661030937765400,3.317765380859375,-0.1199760404676199,0.02807814829191193,0.13349661629796028
1782661030947836400,3.32783642578125,-0.173645086812973,0.04871041929097846,0.14605989140346645
1782661030957906400,3.337906494140625,-0.15968845765292644,0.05816014721952378,0.14929434328004718
1782661030967977500,3.3479775390625,-0.10724106205701828,0.024037713794689625,0.13399360603466628
1782661030978048500,3.358048583984375,-0.09923194312453269,0.027570984221063553,0.0723803226865828
1782661030988118500,3.368118408203125,-0.1434732359111309,0.02962987124593928,0.023456717302650212
1782661030998189600,3.378189453125,-0.1987806971132755,0.012856047507002949,0.036674656924605364
1782661031008260600,3.388260498046875,-0.18154256206452846,-0.017939707446843384,0.006981675580888986
1782661031018331600,3.39833154296875,-0.038277415946125985,-0.053848896424286065,0.005175064550340175
1782661031028401400,3.4084013671875,0.06046878948807716,-0.05283827634332701,-0.029511195036023855
1782661031038472400,3.418472412109375,0.16757774959802627,-0.0493820532085374,-0.04646744440346956
1782661031048543500,3.42854345703125,0.2603635853230953,-0.010525211672950535,0.01599412633702159
1782661031058613500,3.438613525390625,0.28984979204833505,0.015389748969394712,0.0461585245847702
1782661031068684500,3.4486845703125,0.25894085904359815,0.024775983207672832,0.051874271883070464
1782661031078755300,3.45875537109375,0.27551380818188187,0.006042732496652752,0.025873276925086973
1782661031088825300,3.468825439453125,0.26364684477746486,-0.02988874137783423,0.053827744038403035
1782661031098896400,3.478896484375,0.21523089665472506,-0.012417473426647483,0.04884820206016302
1782661031108967400,3.488967529296875,0.1412637431681156,-0.019107892709691078,0.05728621392920613
1782661031119037400,3.499037353515625,0.007901566904783249,-0.00645540495077148,0.062053136070072644
1782661031129108500,3.5091083984375,-0.04622866721153259,0.012944164181873202,0.042668636642396444
1782661031139179500,3.519179443359375,-0.07756020954251289,0.01430047416165471,0.046639147708565
1782661031149250600,3.52925048828125,-0.0940291137844324,0.007144885052274912,0.03882131356447935
1782661031159320600,3.539320556640625,-0.045648236975073815,-0.0484929954143241,-0.0033919805258512494
1782661031169391400,3.549391357421875,-0.013614683854579925,-0.09936448346301913,-0.025467472603172062
1782661031179462400,3.55946240234375,-0.02002279733121395,-0.09962043098546564,0.027376082703471184
1782661031189532400,3.569532470703125,-0.0119949736982584,-0.10440326308151707,0.050757688943296665
1782661031199603500,3.579603515625,-0.044238954699039455,-0.10247119904039427,0.033491935235261915
1782661031209674200,3.58967431640625,-0.06340308937430382,-0.10312986387852578,-0.009516308625042437
1782661031219744500,3.59974462890625,-0.014850363129377365,-0.12512739534880965,-0.008874357459694147
1782661031229815600,3.609815673828125,0.028047113832831382,-0.12963815077152102,0.011431640727072954
1782661031239886600,3.619886474609375,0.09894026670157909,-0.08648132875338196,0.0805212513051927
1782661031249956400,3.629956298828125,0.12859130859971046,-0.034962683641258624,0.1373975692592561
1782661031260027400,3.64002734375,0.04929799165427685,-0.025856270991358905,0.14036416397988796
1782661031270098400,3.650098388671875,0.016174889731407165,-0.009423917633853852,0.12248773102760314
1782661031280168400,3.66016845703125,-0.02276069786250591,-0.02403261749446392,0.08974456833302974
1782661031290239500,3.670239501953125,-0.07247253101468086,-0.03727792004738003,0.05337473957389593
1782661031300310300,3.680310302734375,-0.1274514909148216,-0.048084834738541395,0.04507175226137042
1782661031310381300,3.69038134765625,-0.16115969924926757,-0.035206538867112246,0.05092442381232977
1782661031320451600,3.70045166015625,-0.148269822537899,-0.032079712083470074,0.04143047314956784
1782661031330522600,3.710522705078125,-0.08210019105970859,-0.06957755849184467,0.032816520191729065
1782661031340593700,3.72059375,-0.031176059508323667,-0.09964470691019668,0.02482815178632736
1782661031350663400,3.730663330078125,-0.018125439277291298,-0.11418673474276438,0.015858078867197034
1782661031360734500,3.740734375,0.0061836570709943766,-0.09833837355198338,0.009202712631225586
1782661031370805500,3.750805419921875,0.011100655207037924,-0.06869595335172489,0.035220950984954834
1782661031380875500,3.76087548828125,-0.007076806518435477,-0.04746102201808244,0.013322422909736632
1782661031390946300,3.7709462890625,-0.0035147301226854323,-0.04017345882579684,-0.012432926724106072
1782661031401017300,3.781017333984375,0.05869710364043712,-0.05899168440653011,-0.014592296715080737
1782661031411088000,3.791087890625,0.07849310647845267,-0.09593850933602079,-0.009436959778517485
1782661031421159000,3.801158935546875,0.0014566285490989685,-0.10641484036594628,-0.039915538541972634
1782661031431230000,3.81122998046875,0.009540566283464431,-0.09730711254179478,-0.011567395935952662
1782661031441301000,3.821301025390625,0.07753975127637386,-0.06558196778334677,0.02719838804900646
1782661031451371000,3.83137109375,0.052202480924129484,-0.026664445569086818,0.0503751193664968
1782661031461441800,3.84144189453125,0.07767945200800895,-0.027717754014302043,0.04437470990791917
1782661031471512800,3.851512939453125,0.12658230686485766,-0.02876985688311979,0.06639730275422334
1782661031481582800,3.861582763671875,0.07286591424643993,-0.04241869873562827,0.11297039948925375
1782661031491654000,3.87165380859375,-0.020726561686396597,-0.03330866935653612,0.09991890247538686
1782661031501725000,3.881724853515625,-0.08110065862834454,-0.03774884376106784,0.08168211177811026
1782661031511794700,3.891794677734375,-0.13859481621980665,-0.061331196737382555,0.04109861084669828
1782661031521865700,3.90186572265625,-0.16119243247509002,-0.07496219240594655,0.02984378799125552
1782661031531936800,3.911936767578125,-0.11992869419455528,-0.09203322725947946,0.0001781330458819866
1782661031542006800,3.9220068359375,-0.07268997315764426,-0.08704484438765793,-0.016293693805485964
1782661031552077800,3.932077880859375,0.02200608010292053,-0.08500884504802525,0.014053221402317285
1782661031562148900,3.94214892578125,0.07844517568349837,-0.06928394584013149,0.04799290040507912
1782661031572219000,3.952218994140625,0.13254209205210207,-0.05764677260359749,0.07782032178342342
1782661031582290000,3.9622900390625,0.1489671571522951,-0.05291961621753871,0.025972937907278535
1782661031592360700,3.972360595703125,0.1465799697548151,-0.0583306997471489,0.021026129154860972
1782661031602430700,3.9824306640625,0.1451116507679224,-0.022543073056451975,0.07519903336912394
1782661031612501800,3.992501708984375,0.19194588265717027,-0.02906054692538455,0.05333952213004231
1782661031622572800,4.00257275390625,0.12789806563854217,-0.026332473668362943,0.04611906935721635
1782661031632643800,4.012643798828125,0.037193712362647055,-0.03793992762006819,0.0068348144561052315
1782661031642713900,4.0227138671875,-0.022381927677989005,-0.038120727547071874,-0.016676847904175517
1782661031652785000,4.032784912109375,-0.09887304668426514,-0.03697911976389587,-0.009117518565803766
1782661031662856000,4.04285595703125,-0.08755144220292568,-0.06452827574564143,-0.03126052292138338
1782661031672926000,4.052926025390625,-0.189618901014328,-0.07458804359761997,-0.09039616410955786
1782661031682996700,4.062996826171875,-0.13643150070607662,-0.06113930916078388,-0.10348784700334071
1782661031693067800,4.07306787109375,-0.010005845707654953,-0.07484539762586355,-0.04828954526409507
1782661031703137800,4.0831376953125,0.025618425381183623,-0.0734844662698917,-0.004605594099313021
1782661031713208800,4.093208740234375,0.06587327888011932,-0.06934267202373594,0.0173234752446413
1782661031723280000,4.10327978515625,0.09653437460362911,-0.09788924154499545,0.0032049335211515426
1782661031733350000,4.113349853515625,0.09248948312699794,-0.0951716531493701,-0.0005585106655955314
1782661031743421000,4.1234208984375,0.12221008313000202,-0.08706809739908203,0.030456659192591905
1782661031753492000,4.133491943359375,0.07261690792143344,-0.05203426648406312,0.07461553439274429
1782661031763562000,4.14356201171875,-0.039052491971850394,-0.038055516823753716,0.03936287309527397
1782661031773632800,4.1536328125,-0.08000760269463061,-0.030907791360421103,0.02173603098988533
1782661031783703800,4.163703857421875,-0.11879413720667362,-0.034622382303606716,0.042362493302673096
1782661031793773800,4.17377392578125,-0.15905249783694744,-0.04007776163266971,0.04163929359465837
1782661031803844900,4.183844970703125,-0.16533084745407103,-0.043292485895473506,0.008115355785936116
1782661031813916000,4.193916015625,-0.1288765552818775,-0.0527259842084255,0.0005120411753654479
1782661031823986000,4.20398583984375,-0.032547347861528395,-0.08186977070416324,0.022254794166982172
1782661031834057000,4.214056884765625,0.06910217779874801,-0.08244173450637608,0.05128288186118007
1782661031844128000,4.2241279296875,0.1081593459457159,-0.07460448327576741,0.07615180404931306
1782661031854199000,4.234198974609375,0.11937164483368395,-0.03846108368365094,0.08005144183635711
1782661031864268800,4.244268798828125,0.13816402358710764,-0.007330781279504299,0.09569500117003917
1782661031874339800,4.25433984375,0.12135901925861835,-0.010375263541936873,0.08486147246658801
1782661031884411000,4.264410888671875,0.05256605353951454,-0.0045910267178434876,0.08092311010435223
1782661031894481000,4.27448095703125,0.008021978414058686,-0.016027087891707197,0.08743293038979172
1782661031904551700,4.2845517578125,-0.03605155659019947,-0.03794991015796549,0.06568550122305751
1782661031914622700,4.294622802734375,-0.08051087604165076,-0.029424338736478237,0.05268924152776599
1782661031924693000,4.30469287109375,-0.12445055553317069,-0.0004444740981794894,0.05778378818780183
1782661031934764000,4.314763916015625,-0.11255904220938683,-0.025126422346848993,0.03563639991804957
1782661031944835000,4.3248349609375,-0.08109715149700641,-0.06882844802443869,0.04385682351365685
1782661031954904800,4.33490478515625,-0.06253975054323672,-0.07587722489163279,0.010948241124302148
1782661031964975900,4.344975830078125,0.0014157120168209075,-0.0796415458612144,-0.0035107845999300478
1782661031975047000,4.355046875,0.017909166178107262,-0.06793809332228265,0.022838000882416963
1782661031985117000,4.365116943359375,0.00010638298392295837,-0.047107194478577,0.012117138773202895
1782661031995187700,4.375187744140625,-0.018525836771726607,-0.06480178632424212,-0.009963467870652675
1782661032005258800,4.3852587890625,0.013785364246368408,-0.09247575599574484,-0.04229176615402102
1782661032015328800,4.395328857421875,0.06599836656451225,-0.11525271087330766,-0.008449410045892
1782661032025399800,4.40539990234375,0.06943535527586936,-0.09537678380003198,0.025395868671685456
1782661032035470800,4.415470947265625,0.06303367154002189,-0.05445361171863042,0.036495208704471586
1782661032045540900,4.425540771484375,0.045588031220436094,-0.0008104487332049756,0.017233897265046833
1782661032055612000,4.43561181640625,0.021187749457359312,0.016229131536139176,0.008495879536122084
1782661032065683000,4.445682861328125,-0.012518120789527892,-0.0029426475894637405,0.07082374089434743
1782661032075754000,4.45575390625,-0.02072422359883785,-0.015427578495442866,0.12105009943991898
1782661032085823700,4.46582373046875,-0.016181903994083403,-0.021037636929564178,0.15937120839729904
1782661032095894800,4.475894775390625,-0.0678349343419075,-0.004755049039982259,0.14647241772711275
1782661032105965800,4.4859658203125,-0.13060907816290854,0.007837872285116463,0.10075009260252117
1782661032116035800,4.496035888671875,-0.12957213633060455,-0.013680369501933454,0.07356266433894634
1782661032126106600,4.506106689453125,-0.049881929022073744,-0.04711040021581575,0.06533887974247336
1782661032136177700,4.516177734375,0.0032177930027246474,-0.07370116862733848,0.05228402172774076
1782661032146248000,4.526248046875,0.014201543831825255,-0.06376436956790275,0.04791223638430237
1782661032156319000,4.536319091796875,0.05568564686477184,-0.06123948159962892,0.027339842346310615
1782661032166390000,4.54639013671875,0.11066694485247135,-0.05749496130906045,0.016701543954014776
1782661032176459800,4.556459716796875,0.08647124575078487,-0.04991071672514081,0.04575651965513825
1782661032186530800,4.56653076171875,0.06339782867729664,-0.023742311044689265,0.03877703603133559
1782661032196601900,4.576601806640625,0.012677110743522643,-0.018454598166421053,0.04208250731751322
1782661032206672000,4.586671875,-0.022452070304751395,0.003113565443269908,0.06046776657477021
1782661032216742700,4.59674267578125,-0.039486207213997836,-0.0048040027482435105,0.08218933064788579
1782661032226813700,4.606813720703125,-0.01713058302104473,-0.012831698517035693,0.06508461272045969
1782661032236884000,4.616884033203125,0.024380408018827435,-0.050917592212744056,0.03271832051426172
1782661032246955000,4.626955078125,0.12008593058288097,-0.0580367035029456,0.03232522954344749
1782661032257026000,4.637026123046875,0.14234920031726359,-0.06440264007197692,0.0439800115019083
1782661032267095800,4.647095703125,0.1599637674629688,-0.0559003673276864,0.03918590909317136
1782661032277166800,4.657166748046875,0.11802899805307387,-0.06244625444035046,0.019432576353102922
1782661032287238000,4.66723779296875,0.050476972305774685,-0.04377074353224598,0.022618220651894807
1782661032297308000,4.677307861328125,-0.0041167876690626146,-0.07562601747638545,0.04662073526903986
1782661032307378700,4.687378662109375,-0.08353110064566135,-0.08595435487036593,0.0493665268458426
1782661032317449700,4.69744970703125,-0.15943477515280247,-0.08299892999771982,-0.0068862523823976516
1782661032327520000,4.70752001953125,-0.20947978578209875,-0.09738720117383635,-0.03085910251364112
1782661032337591000,4.717591064453125,-0.23399171122610568,-0.09523382253223098,-0.04442191005051136
1782661032347661800,4.727661865234375,-0.13258651571571825,-0.05567408429114148,0.01468304373845458
1782661032357731800,4.73773193359375,0.006644844841957092,-0.036586750312289223,0.061604515519738196
1782661032367803000,4.747802978515625,0.05621814630627632,-0.024915894001862032,0.10280030313059688
1782661032377874000,4.7578740234375,-0.008623451438546181,-0.039298128162836655,0.07542728916704654
1782661032387945000,4.767945068359375,-0.006817863321304321,-0.03944804889438674,0.04354585786834359
1782661032398014700,4.7780146484375,0.07098433828353881,-0.06454118089298717,0.04759381808489561
1782661032408085200,4.788085205078125,0.053442836374044414,-0.06394949861015192,0.064071344024688
1782661032418155500,4.798155517578125,0.029049568873643874,-0.013216240855213253,0.06002396833002567
1782661032428226600,4.8082265625,0.03531155187785625,-0.012370757341245188,0.09067147391960025
1782661032438297600,4.818297607421875,0.04292085783779621,0.0015206519623287022,0.1183829260572791
1782661032448368400,4.828368408203125,0.04014204077422619,0.020907425545481962,0.102275986995548
1782661032458438400,4.8384384765625,0.01975567082762718,-0.01683428522190079,0.052965281990170476
1782661032468509400,4.848509521484375,0.03809270702898502,-0.03220463537108153,0.043957361278682945
1782661032478580500,4.85858056640625,0.01860065557360649,-0.05203012003190815,0.07446428935378789
1782661032488650200,4.868650146484375,-0.02394903086423874,-0.05524373918301426,0.06821721165776252
1782661032498721300,4.87872119140625,-0.06579787555634975,-0.03173429617928341,0.021202070243656633
1782661032508792300,4.888792236328125,-0.08188742509186267,-0.013836573843797668,0.050760027030855415
1782661032518862600,4.898862548828125,-0.059949149528145784,-0.004522400194732472,0.07238207625225186
1782661032528933400,4.908933349609375,-0.03701835579574108,-0.009573308642441406,0.08605243581682444
1782661032539004400,4.91900439453125,-0.002261515191197395,-0.03773302513742819,0.03094283527433872
1782661032549074400,4.929074462890625,-0.011588730984926222,-0.05293362647658214,0.0004132569760084152
1782661032559145500,4.9391455078125,-0.09971592724919319,-0.022159553631581366,0.0019420739784836768
1782661032569216500,4.949216552734375,-0.15213701936006546,-0.01489522518441081,0.01930018214508891
1782661032579286300,4.959286376953125,-0.24060966806113718,0.001115267765522003,0.04293985479921102
1782661032589357300,4.969357421875,-0.23976328036487102,0.003037029608339071,0.0205368843331933
1782661032599428400,4.979428466796875,-0.2168587901175022,0.030759843390248714,0.024561317543685436
1782661032609498600,4.98949853515625,-0.16953998958170413,0.04480082636550069,0.03768105748817324
1782661032619569400,4.9995693359375,0.002266191366314888,-0.010715199553407728,0.05060147546827793
1782661032629640400,5.009640380859375,-0.034579145950078966,-0.04653252726262435,0.048830958664417265
1782661032639710500,5.01971044921875,0.09490297400951385,-0.10553221231251954,-0.02151595849841833
1782661032649781500,5.029781494140625,0.2459989598840475,-0.1308974849165417,-0.020715894161909817
1782661032659852500,5.0398525390625,0.31590602432489395,-0.13221910717543214,0.04012070572525263
1782661032669922300,5.04992236328125,0.3432248238831758,-0.10214251507529988,0.05511588415279984
1782661032679993300,5.059993408203125,0.29083529595434665,-0.07434924813937395,0.04347264650166034
1782661032690064400,5.070064453125,0.15762684894800186,-0.038149259521812195,0.028927111537754534
1782661032700134400,5.080134521484375,-0.01992401313185692,-0.012328479968942702,0.004176701162755489
1782661032710205400,5.090205322265625,-0.14707915144860745,0.03171274193460122,0.007676964368671178
1782661032720276500,5.1002763671875,-0.134985393550992,0.022777612464688717,0.02687704714015126
1782661032730346500,5.110346435546875,-0.05094868147075176,0.0015429733919911086,0.036567981679737564
1782661032740417500,5.12041748046875,0.013130115208029746,-0.007332023388519883,0.023605185862630603
1782661032750488300,5.13048828125,0.04366027802824974,-0.059711724043078715,-0.008065233033895492
1782661032760558300,5.140558349609375,0.08717325654029846,-0.08758444942338392,-0.03816182674244046
1782661032770629400,5.15062939453125,0.14480126964449883,-0.08187352443067357,-0.013812982905656098
1782661032780700400,5.160700439453125,0.1475683962702751,-0.05742651744903996,0.002136865898221731
1782661032790770200,5.170770263671875,0.16497838075459004,-0.05450414546262473,0.015211159265786409
1782661032800841200,5.18084130859375,0.19078794479370115,-0.06530928832180798,0.04245601680502295
1782661032810912300,5.190912353515625,0.16109540184140203,-0.056117425878159696,0.03409092404171824
1782661032820982500,5.200982421875,0.06379647260606289,-0.01599361488036811,0.02512377373203635
1782661032831053600,5.211053466796875,-0.03935936596393585,-0.011570336811710148,-0.019107436051964757
1782661032841124400,5.221124267578125,-0.10214812283217907,-0.02992156593520194,-0.026912264584004877
1782661032851194400,5.2311943359375,-0.0831108294069767,-0.007817176556959748,0.035813948442041874
1782661032861265400,5.241265380859375,-0.07157353634834289,-0.026316161854378878,0.037216216455399985
1782661032871336400,5.25133642578125,-0.04614040440618992,-0.06128724799780175,0.03176949535682797
1782661032881406200,5.26140625,-0.010465279912948608,-0.07703994852807372,0.030922669269144533
1782661032891477200,5.271477294921875,-0.03135141607522964,-0.0379430146262981,0.04671601233705878
1782661032901548300,5.28154833984375,-0.07452537189126014,-0.0058874871360138055,0.10094108512997627
1782661032911618600,5.29161865234375,-0.09992460156381129,0.009772347479034214,0.10668737369701266
1782661032921689600,5.301689697265625,-0.13350304603874683,-0.021419914245419204,0.03360767056941986
1782661032931760400,5.311760498046875,-0.18793080179691313,-0.05031197273610159,0.0005745850175619125
1782661032941830400,5.321830322265625,-0.19943828423917292,-0.07174302943004295,-0.008755261124670505
1782661032951901400,5.3319013671875,-0.0022638532787561416,-0.04410740074124187,0.03566781796962023
1782661032961972500,5.341972412109375,0.11487608698010444,-0.06698991661882027,0.06429404686465859
1782661032972042200,5.352042236328125,0.1567144102782011,-0.07284393987664953,0.0907562295936048
1782661032982113300,5.36211328125,0.15421791728734968,-0.05254249000083655,0.09519318912774324
1782661032992184300,5.372184326171875,0.11978490180969238,-0.015782839940208942,0.06841156518608331
1782661033002254600,5.382254638671875,-0.01658990027308464,0.02763862436348572,0.10309358698874711
1782661033012325400,5.392325439453125,-0.22553309496045112,0.06879641805151478,0.08621186416223645
1782661033022396400,5.402396484375,-0.28494916052520275,0.06521960074435919,0.012644669778645038
1782661033032466400,5.412466552734375,-0.15973054322898386,-0.004173705488070846,-0.013324322605878115
1782661033042537500,5.422537353515625,-0.061681087887287135,-0.016562172015942633,0.01611746045574546
1782661033052608500,5.4326083984375,0.029900048223137854,-0.019762612025067208,0.03678527769222855
1782661033062678300,5.44267822265625,0.0907879399061203,-0.033229722368810326,0.0005073650002479553
1782661033072749300,5.452749267578125,0.09833645558953284,0.038276009440328926,0.004389174869656563
1782661033082820400,5.4628203125,0.053336453390121455,0.11355247369352728,0.05632394476830959
1782661033092890600,5.472890625,0.11633330005109309,0.11221296871807425,0.06468158487752079
1782661033102961400,5.48296142578125,0.2715437355071306,0.07670540107777342,0.08550897658988833
1782661033113032400,5.493032470703125,0.3249742969214916,0.007600063207559287,0.09645677932277322
1782661033123102500,5.5031025390625,0.35432723265588284,-0.02522049383847043,0.09659560327157378
1782661033133173500,5.513173583984375,0.31082828266918655,-0.06704296198030933,0.05559416918903589
1782661033143244500,5.52324462890625,0.1620855819225311,-0.05759153528502211,0.024910423242300746
1782661033153314300,5.533314208984375,-0.025048516538739202,-0.0592691131084226,-0.03457578494921326
1782661033163385300,5.54338525390625,-0.15903087052702902,-0.03768184293946251,-0.07020078669041395
1782661033173456400,5.553456298828125,-0.17506489048302173,-0.027840375746972856,-0.050123044301569455
1782661033183526400,5.5635263671875,-0.18056056528985498,-0.027700720681110395,-0.00496332149580121
1782661033193597400,5.573597412109375,-0.06608838293552398,-0.02318550827899016,0.029523908387124535
1782661033203668500,5.58366845703125,-0.032845454025268554,-0.04378049774128012,0.056071139051020145
1782661033213738500,5.593738525390625,-0.029426000970602034,-0.005561241723177954,0.09778948923125863
1782661033223809500,5.6038095703125,-0.0213145907074213,0.0312858308925759,0.12501798015758395
1782661033233880300,5.61388037109375,-0.09416238477528095,0.06723584507075138,0.15494140925630925
1782661033243950300,5.623950439453125,-0.04743804300129413,0.06694914621701464,0.16919935945048928
1782661033254021400,5.634021484375,-0.07816928135156631,0.009033530076779425,0.14333718844130636
1782661033264092400,5.644092529296875,-0.17798048566877842,-0.05147760071568191,0.056849429947137826
1782661033274162200,5.654162109375,-0.26697452789545056,-0.06872738053645007,0.012367460272461175
1782661033284233200,5.664233154296875,-0.39537352879345417,-0.014287021025037393,-0.006267097570747136
1782661033294304300,5.67430419921875,-0.4218225597798824,0.029741597125260158,0.011071282982081175
1782661033304374500,5.68437451171875,-0.30715748520195485,0.049169597767945376,0.06878536693453788
1782661033314445600,5.694445556640625,-0.15207681360542774,0.07471550590218975,0.07811623599007725
1782661033324517400,5.704517333984375,0.23536826027631758,0.026201632096618414,0.10998013163208961
1782661033334587400,5.71458740234375,0.3380459599405527,-0.04213155235731974,0.07700710570439696
1782661033344658400,5.724658447265625,0.41416532302498815,-0.0954224313063547,0.11054083425477146
1782661033354729500,5.7347294921875,0.4247024991303682,-0.09260233238432555,0.09831219793111086
1782661033364799500,5.744799560546875,0.45934477344453334,-0.11535060915667562,0.0712016342960298
1782661033374870300,5.754870361328125,0.576740149769187,-0.11201517199049703,0.06764978703334927
1782661033384941300,5.76494140625,0.0722135878175497,0.07514018845451063,0.06493278315961361
1782661033395011300,5.77501123046875,-0.7031681428551674,0.21155363291408866,-0.08564034788459539
1782661033405082000,5.78508203125,-0.9901146146774291,0.08626125626191497,-0.30583792703598733
1782661033415153200,5.795153076171875,-1.0992354991316795,0.04809513693684712,-0.4411037449635565
1782661033425223200,5.80522314453125,-1.147702300658822,0.034357265094015745,-0.4836250820897519
1782661033435294200,5.815294189453125,-0.9325602513313292,-0.07444569425117224,-0.41142829927653074
1782661033445365200,5.825365234375,-0.3122492553830147,-0.013716518527548759,-0.18881971346065402
