time,seconds_elapsed,z,y,x
1782811360561128200,0.070128173828125,-0.1740507450044155,-0.04735350652299821,0.18496040768399832
1782811360571199000,0.080198974609375,0.012507599395513535,-0.11497874363698064,0.16278233201503753
1782811360581270000,0.09027001953125,0.19964988116323948,-0.13853344142138957,0.12161913149952888
1782811360591342000,0.100342041015625,0.4297171124219894,-0.15976627212949096,0.1474469618476927
1782811360601413000,0.1104130859375,0.577866523450613,-0.13816132017336785,0.2139195217952132
1782811360611485000,0.12048486328125,0.5679015942752361,-0.08306151037253438,0.2777634868048131
1782811360621556000,0.130555908203125,0.4705915591239929,-0.0007312368839979171,0.2809064610056579
1782811360631627000,0.140626953125,0.3765250359386205,0.07831511956304311,0.2820022934183478
1782811360641699000,0.150698974609375,0.2547948452800512,0.050200128125771876,0.2449837914921343
1782811360651770000,0.16077001953125,0.06789747818410397,0.007583221670612692,0.15831249312460421
1782811360661841200,0.170841064453125,-0.14987199703752993,0.03125438544154167,0.07912541303262115
1782811360671913200,0.180913330078125,-0.3136421710461378,0.05340849571302533,0.05584799781963229
1782811360681984000,0.19098388671875,-0.38466041159927844,0.050077597724646324,0.05962605505362153
1782811360692056000,0.20105615234375,-0.3952332435399294,0.07493819047585129,0.06447656382471323
1782811360702127000,0.211127197265625,-0.46152679365873334,0.07203786592446267,0.036474896568804975
1782811360712198100,0.2211982421875,-0.5631921014100313,0.05304141596630215,0.0005317687891423702
1782811360722270000,0.23127001953125,-0.5026707049518824,0.04812047230750322,-0.04605287225320935
1782811360732341000,0.241341064453125,-0.2751122416436672,0.05492291886396706,-0.023602701644599437
1782811360742412000,0.251412109375,-0.021353753674030303,0.002912307250127196,0.0041748014666140075
1782811360752484000,0.261484130859375,0.14739771587848663,-0.02429543314911425,0.008250234211981296
1782811360762555100,0.27155517578125,0.22264672586917875,0.015395210595801472,0.012659136695414781
1782811360772627200,0.281627197265625,0.2109679785132408,0.037806145172566176,0.06490019606426357
1782811360782698200,0.2916982421875,0.20001345377862453,0.024548604192584752,0.07518851197510958
1782811360792769000,0.30176904296875,0.18698738346695898,-0.00011463935561478137,0.008098989173024892
1782811360802840800,0.3118408203125,0.1646171462267637,-0.030741759744286536,-0.05537848061174154
1782811360812911900,0.321911865234375,0.13357201962172985,-0.06896605726368725,-0.10745938098281621
1782811360822983000,0.33198291015625,0.1415209327995777,-0.04290777916051447,-0.07982464734315872
1782811360833055000,0.342054931640625,0.144562200191617,-0.006803104143589735,-0.06224646668508649
1782811360843126000,0.3521259765625,0.11688216610550879,0.04297945615723729,-0.01545183615386486
1782811360853198000,0.362197998046875,0.0984866777151823,0.09939546312317252,0.03426891095712781
1782811360863269000,0.37226904296875,0.025503274568915366,0.10596621981561183,0.02329831187054515
1782811360873340200,0.382340087890625,-0.05510521662831306,0.04763137361630797,-0.007023030504584312
1782811360883412200,0.392412109375,-0.05508300479650497,-0.037081191898882385,-0.1161611583545804
1782811360893483000,0.40248291015625,0.005991933891177177,-0.08203910852223634,-0.18459215889349578
1782811360903554000,0.412553955078125,0.1166986262321472,-0.12101444360464811,-0.2164234674401581
1782811360913625900,0.4226259765625,0.24369594363868236,-0.1496361424550414,-0.1938908792451024
1782811360923697000,0.43269677734375,0.2811661348551512,-0.1323712655298412,-0.1616182566717267
1782811360933769000,0.44276904296875,0.25043548102676866,-0.055103901454061265,-0.07842194093838334
1782811360943840000,0.452840087890625,0.23710487481057643,-0.04941752638071775,-0.03844312790185213
1782811360953911000,0.4629111328125,0.22066402761936185,-0.11721928910538554,-0.043391836350411175
1782811360963983000,0.472983154296875,0.20287118129730222,-0.15718495039939878,-0.09522460717931389
1782811360974054100,0.48305419921875,0.1676724421441555,-0.1843432986989617,-0.1462419699721038
1782811360984125200,0.493125244140625,0.13363690155148505,-0.2109349530264735,-0.15662892395183442
1782811360994197200,0.503197265625,0.10611059672236442,-0.22892887487858532,-0.1549256271652877
1782811361004268000,0.51326806640625,0.09030337125957012,-0.20671806598380207,-0.14739508552998304
1782811361014339800,0.52333984375,0.11821370697021484,-0.22375322580635545,-0.15455255606919527
1782811361024411000,0.533410888671875,0.20799802279174326,-0.24005992522388694,-0.1270046239301562
1782811361034482000,0.54348193359375,0.2797662049293518,-0.29193785036876796,-0.08798632648885249
1782811361044554000,0.553553955078125,0.23341011194586753,-0.2985641366407275,-0.0705171591632068
1782811361054625000,0.563625,0.12163316002488135,-0.2648589970462024,-0.09837766438275575
1782811361064696000,0.573696044921875,0.11020166542828082,-0.27001184976473447,-0.13930194157585502
1782811361074768100,0.58376806640625,0.21700842772126197,-0.3063127049408853,-0.14423106854110956
1782811361084839200,0.593839111328125,0.3216945445984602,-0.3476601759821176,-0.15977555141448974
1782811361094911000,0.603910888671875,0.2732861952602863,-0.31138211715966463,-0.171788499160856
1782811361104982000,0.61398193359375,0.23353110797703264,-0.28808702015951276,-0.16871113754212855
1782811361115053000,0.624052978515625,0.20081074163615703,-0.3284241451144218,-0.18118819566890595
1782811361125124900,0.634124755859375,0.14976269144415855,-0.31911344206407666,-0.16806655602827666
1782811361135195400,0.6441953125,0.15690964058935641,-0.33763884044438597,-0.1951627988770604
1782811361145266400,0.654266357421875,0.21351707847416398,-0.36108196761310096,-0.1540269247598946
1782811361155338500,0.66433837890625,0.2417506547898054,-0.356894014403969,-0.11403028380572795
1782811361165409500,0.674409423828125,0.2401864742130041,-0.33440424243733285,-0.09802548994421958
1782811361175480300,0.684480224609375,0.21017770491838453,-0.3088024759300053,-0.09301686800196766
1782811361185552400,0.694552490234375,0.1954875007867813,-0.3008000789992511,-0.06563844721093773
1782811361195623400,0.70462353515625,0.14994564679563044,-0.2766884049192071,-0.07038754143416881
1782811361205695500,0.714695556640625,0.11183365054428576,-0.327409780440107,-0.08222337904796004
1782811361215766500,0.7247666015625,0.1471890415638685,-0.36554333093613384,-0.04645560783520341
1782811361225837600,0.734837646484375,0.30696108584702014,-0.409967944400385,0.004919482354074716
1782811361235909400,0.744909423828125,0.45323418160974976,-0.43771629448235033,0.03824161398038268
1782811361245980400,0.75498046875,0.4110679415315389,-0.47625528397411104,0.02518076461628079
1782811361256051500,0.765051513671875,0.29033903687000273,-0.49847719878479835,-0.000580137975513935
1782811361266123500,0.77512353515625,0.28506138872802256,-0.5415432372469454,0.04432780202627182
1782811361276194600,0.785194580078125,0.3560013033479452,-0.5643685247782617,0.10893223001435398
1782811361286266600,0.7952666015625,0.3680237495750189,-0.5700583339177072,0.15840060979947446
1782811361296337400,0.80533740234375,0.2499362993329763,-0.5502823509544134,0.15850290113016963
1782811361306408400,0.815408447265625,0.10894318979978561,-0.546160448718816,0.16814546648338435
1782811361316480500,0.82548046875,0.04206453326940536,-0.5709980989858507,0.21550357611626386
1782811361326551600,0.835551513671875,0.03680442078411579,-0.6012408962320536,0.2727761999115348
1782811361336622600,0.84562255859375,-0.010840542966127395,-0.5873302251055836,0.32301731763482094
1782811361346694400,0.8556943359375,-0.1010959834307432,-0.5680466287691146,0.35186098867282267
1782811361356765400,0.865765380859375,-0.16481120749413966,-0.5733545989841222,0.3156134711191058
1782811361366837500,0.87583740234375,-0.09972469507753848,-0.5797778369646519,0.2837809935286641
1782811361376908500,0.885908447265625,0.01693944436311722,-0.589940407603979,0.2964589810550213
1782811361386979300,0.895979248046875,0.062468438872694966,-0.5531166245322674,0.34214477356150746
1782811361397051600,0.9060517578125,0.10935644677579402,-0.5166737305369228,0.4343481332235038
1782811361407122400,0.916122314453125,0.21043898620307444,-0.49446825540438294,0.475470271076262
1782811361417193500,0.926193359375,0.298309577357769,-0.5290138644110411,0.4486225961610675
1782811361427265300,0.936265380859375,0.33805531229078767,-0.5799369730491191,0.40174247930347917
1782811361437336300,0.94633642578125,0.27835692265331746,-0.6345612012274563,0.35077713895887136
1782811361447407400,0.956407470703125,0.12237082664966582,-0.7204916911650449,0.2854208696901798
1782811361457479400,0.9664794921875,-0.08058394127786159,-0.7922923873327672,0.2035872206121683
1782811361467550500,0.976550537109375,-0.28333237297832964,-0.7445626679085194,0.17880013148859142
1782811361477622500,0.98662255859375,-0.51030280726552,-0.6828291922468692,0.21868454423993824
1782811361487693600,0.996693603515625,-0.5999643734902144,-0.5690612857043743,0.283270121397078
1782811361497764400,1.006764404296875,-0.6130044723272323,-0.4661516404477879,0.38126287811547516
1782811361507836400,1.01683642578125,-0.6546890663683415,-0.3709213341800496,0.463363507566601
1782811361517907500,1.026907470703125,-0.6294318755149841,-0.30898367771580815,0.5288777438759803
1782811361527978500,1.036978515625,-0.5262924035578966,-0.3140662782097235,0.5467775577038526
1782811361538050300,1.04705029296875,-0.3252355782061815,-0.33441067217811943,0.5276416262097656
1782811361548121300,1.057121337890625,-0.0460147321999073,-0.4287683237971738,0.5435293695628642
1782811361558193400,1.067193359375,0.1961848354011774,-0.5691983926201238,0.5392663052909076
1782811361568264400,1.077264404296875,0.20827274807989596,-0.6628272185079753,0.5094917831435799
1782811361578335500,1.08733544921875,0.23417934275269506,-0.7045023871336132,0.5059004806533456
1782811361588407600,1.097407470703125,0.3353051367998123,-0.7894111328080297,0.5090379018962383
1782811361598478600,1.107478515625,0.3715957628428936,-0.8838709661599248,0.494117542270571
1782811361608549400,1.11754931640625,0.29577216783463955,-0.930904593078792,0.440499495460093
1782811361618621400,1.127621337890625,0.20779519369602203,-0.9863014130648226,0.41226358105689287
1782811361628692500,1.1376923828125,0.12625965078175067,-1.0590727808956055,0.3628571605920791
1782811361638763500,1.147763427734375,0.007712181812524795,-1.0989670574538408,0.37066710369065403
1782811361648835300,1.15783544921875,-0.10047872831523418,-1.0997414028272032,0.38036885188519953
1782811361658906400,1.16790625,-0.1359264737933874,-1.1037048996306955,0.40799832482784987
1782811361668978400,1.177978515625,-0.09669044194817543,-1.107687904852256,0.44850642243549227
1782811361679049500,1.188049560546875,-0.035088264515995976,-1.1131344067551194,0.49307899300307034
1782811361689120500,1.19812060546875,-0.0037011926054954527,-1.1635959622960537,0.4986278593018651
1782811361699192600,1.208192626953125,-0.026275427985191342,-1.1917759087283164,0.47662134080752727
1782811361709263600,1.218263671875,-0.14110475321412086,-1.1933126898415385,0.4360312640048563
1782811361719334400,1.22833447265625,-0.26022388459146023,-1.1925316224664448,0.4395065388999879
1782811361729406500,1.238406494140625,-0.17264204725027082,-1.22759811354205,0.46419425930231806
1782811361739477500,1.2484775390625,0.0655693274974823,-1.2998694228962062,0.49182665485441684
1782811361749549300,1.25854931640625,0.1167296058923006,-1.273582596734166,0.5380303337551653
1782811361759620400,1.268620361328125,0.060226212903857226,-1.2068640261363237,0.5408079817749559
1782811361769691400,1.27869140625,0.14394436055421828,-1.2046652009177952,0.5786788627468049
1782811361779763500,1.288763427734375,0.35105917077064513,-1.1804063734520227,0.6617291941381991
1782811361789834500,1.29883447265625,0.5283809002697467,-1.1580853091157972,0.7429064251340926
1782811361799905500,1.308905517578125,0.5188327352017164,-1.1360095247775315,0.7337918291777372
1782811361809977600,1.3189775390625,0.36138416543006896,-1.0610190195925533,0.7252744684621691
1782811361820048600,1.329048583984375,0.20652444310784338,-1.0359984139740466,0.6944963222302496
1782811361830120400,1.339120361328125,0.08379822714924812,-1.0439157629698514,0.6801812350213527
1782811361840191500,1.34919140625,-0.0909574512541294,-1.0655420499749482,0.589506838492304
1782811361850262500,1.359262451171875,-0.29772739355564115,-1.0380929751005024,0.4882791915059089
1782811361860334300,1.369334228515625,-0.4550964683502912,-0.9858158945702016,0.4385499688275158
1782811361870405400,1.3794052734375,-0.5495365010231733,-0.9048530369773506,0.42730040666908026
1782811361880476400,1.389476318359375,-0.6285030702322721,-0.8396240473501384,0.3973676252201199
1782811361890548500,1.399548583984375,-0.6948889748096466,-0.7592740609586238,0.43036812367662786
1782811361900619500,1.40961962890625,-0.6916776115477085,-0.6662219755128026,0.40474443759843703
1782811361910690600,1.419690673828125,-0.624409663438797,-0.650496802310273,0.40853769240155813
1782811361920762600,1.4297626953125,-0.4992646959006786,-0.6434054558098316,0.38949309245273467
1782811361930833400,1.43983349609375,-0.39926995171010493,-0.6104865712221712,0.34449615899324415
1782811361940905500,1.449905517578125,-0.4367237763136625,-0.6048262804381549,0.2611797240115702
1782811361950976300,1.459976318359375,-0.6882482216209173,-0.5940272019935772,0.13424728853479026
1782811361961047300,1.47004736328125,-0.9127724317997693,-0.6464145744979382,-0.05470481913387775
1782811361971119400,1.480119384765625,-0.9794798234164714,-0.7117004088789224,-0.3054353375844657
1782811361981190400,1.4901904296875,-0.9396697910755872,-0.8219647642798721,-0.5162302976183593
1782811361991261400,1.500261474609375,-0.8670125511437654,-1.0198093495868146,-0.5694457549773156
1782811362001333500,1.51033349609375,-0.8272685697764158,-1.16043947102651,-0.49462929118499155
1782811362011404500,1.520404541015625,-0.9950485639482736,-1.1950710778161882,-0.3339725730217993
1782811362021475600,1.5304755859375,-1.230167233377695,-1.098940096381679,-0.21327304058521984
1782811362031547600,1.540547607421875,-1.4131775299072264,-0.9140762078747153,-0.1454594412922859
1782811362041618400,1.550618408203125,-1.5503969661206005,-0.6555475828938185,-0.10859013857841492
1782811362051690200,1.560690185546875,-1.5151409438222645,-0.479706410808675,-0.1296358492165804
1782811362061761300,1.57076123046875,-1.43519646949172,-0.3885729819331318,-0.17488105834871528
1782811362071832300,1.580832275390625,-1.2867062822014093,-0.3851045021049678,-0.20795418365001678
1782811362081904400,1.590904296875,-1.0664596032112836,-0.4787248889580369,-0.2217471466809511
1782811362091975400,1.600975341796875,-0.8788035267025232,-0.6606900603488087,-0.23509616533666847
1782811362102046500,1.61104638671875,-0.8532780403017998,-0.864886571965739,-0.32146322006061673
1782811362112118500,1.621118408203125,-0.8700374519228935,-0.9889735548835247,-0.38747722258567807
1782811362122189600,1.631189453125,-0.8582125740945339,-0.9127766695834696,-0.32421617203056813
1782811362132260600,1.641260498046875,-0.8034235838085413,-0.6964008406773209,-0.19668957005292176
1782811362142332400,1.65133251953125,-0.7864467300444841,-0.40231834296267477,-0.027384558270871637
1782811362152403500,1.661403564453125,-0.830149678170681,-0.1788242064839229,0.08432984980791806
1782811362162475300,1.671475341796875,-0.8609954828113316,-0.05077843947038054,0.09060074677094816
1782811362172546300,1.68154638671875,-0.7496756270080804,0.07225030309874564,0.05778349592685699
1782811362182617000,1.6916171875,-0.5327946250587702,0.14137809026278556,0.04053177074417472
1782811362192689200,1.701689208984375,-0.2601806299716234,0.20025544584095478,-0.013467530468851328
1782811362202760200,1.71176025390625,-0.022440379866957662,0.2244602780971676,-0.10054974772483109
1782811362212831200,1.721831298828125,0.2688420753329992,0.2407636895790696,-0.226391173094511
1782811362222903300,1.7319033203125,0.5952671555846929,0.25608590800389647,-0.330811040250957
1782811362232974300,1.741974365234375,0.9522679913640022,0.2572587511755526,-0.38276086158826944
1782811362243046400,1.75204638671875,1.3552367975920439,0.23275742019079623,-0.3456649105116725
1782811362253117400,1.762117431640625,1.7298007625907659,0.2045308581378311,-0.28944720259681345
1782811362263188500,1.7721884765625,2.020131616154313,0.12755685098543762,-0.26299919452369214
1782811362273260300,1.78226025390625,2.156484206405282,0.03456628646850586,-0.27659035137221216
1782811362283331300,1.792331298828125,2.166152198460698,-0.06103066115453839,-0.2513835755318403
1782811362293402000,1.802402099609375,2.11734111354053,-0.09809797065854071,-0.22035335423499344
1782811362303474200,1.81247412109375,1.9725433510273693,-0.04322992378696799,-0.17473448948487638
1782811362313545200,1.822545166015625,1.7271014405041931,0.01656345065757632,-0.11933335864990949
1782811362323616300,1.8326162109375,1.431269066914916,0.08248181078843772,-0.14055501037687063
1782811362333688300,1.842688232421875,1.2278519421726464,0.09595423662811517,-0.11228241722509265
1782811362343759400,1.85275927734375,1.1355465834408998,0.03669891458302736,-0.08718670054376125
1782811362353831200,1.8628310546875,1.0125234303623438,-0.05275068939141929,-0.07831804217249154
1782811362363902200,1.872902099609375,0.8675918123364448,-0.12644845135211943,-0.08481441845446824
1782811362373973200,1.88297314453125,0.8162287048459053,-0.21778343068175016,-0.08633402923718095
1782811362384045300,1.89304541015625,0.9200269329726696,-0.32087416812628505,-0.07595321273729205
1782811362394116400,1.903116455078125,1.1379103899627923,-0.4493851780313998,-0.04098404455631971
1782811362404187100,1.913187255859375,1.3473521818220615,-0.5673479789804667,0.0006809680014848708
1782811362414259200,1.92325927734375,1.5024930591732262,-0.6579642886467277,0.0754614836975932
1782811362424330200,1.933330322265625,1.5691747318267821,-0.7507645912885665,0.12840659968256948
1782811362434401300,1.9434013671875,1.6195809769839047,-0.8478716512136161,0.1806660714909434
1782811362444473300,1.953473388671875,1.6475053412199019,-0.9218168120641261,0.20135376247167586
1782811362454544400,1.96354443359375,1.6349281837195158,-0.979760393923521,0.2106675342619419
1782811362464616200,1.9736162109375,1.5909014104664325,-1.0696780538011341,0.20503829620331523
1782811362474687200,1.983687255859375,1.4534417357563971,-1.1319569614510983,0.1281130235634744
1782811362484758300,1.99375830078125,1.238157063087821,-1.2268819280967116,0.07531257674619556
1782811362494830300,2.003830322265625,1.0093851323366165,-1.301015085799992,0.06474018319696187
1782811362504901000,2.013901123046875,0.6856418385148048,-1.3516919645920396,0.04224851153418421
1782811362514972200,2.02397216796875,0.38727439348995685,-1.4109651145547628,0.01719970273450017
1782811362525044200,2.034044189453125,0.13433365164399147,-1.4638222599953412,0.00033420039042830464
1782811362535115300,2.044115234375,0.024172318226099013,-1.511091376170516,0.0240432850189507
1782811362545186300,2.054186279296875,-0.06459551402926444,-1.5681725690469144,0.07578121717125177
1782811362555258400,2.06425830078125,-0.1638981843024492,-1.5976503002047537,0.09462912550419568
1782811362565329400,2.074329345703125,-0.26970833677351475,-1.6497484439715742,0.14047960705310106
1782811362575401200,2.084401123046875,-0.4274316318333149,-1.7048545373827217,0.20202055581733583
1782811362585472300,2.09447216796875,-0.5491425332695246,-1.7462319651708005,0.27191139977574347
1782811362595543300,2.104543212890625,-0.6513491082906723,-1.714291351030767,0.33768735576123
1782811362605615400,2.114615478515625,-0.6720908675462007,-1.6905936645790933,0.42483942338302727
1782811362615686100,2.12468603515625,-0.6340349853962659,-1.7026064661949871,0.5141035147227346
1782811362625757200,2.134757080078125,-0.5269575894683599,-1.7025784091442822,0.5647719179473817
1782811362635829200,2.144829345703125,-0.352758375903964,-1.727262476284802,0.5925710483685136
1782811362645900300,2.154900390625,-0.2006546742916107,-1.7688491629093885,0.572884204993397
1782811362655971300,2.164971435546875,-0.14374270050227642,-1.9135124853879213,0.440453756622225
1782811362666043400,2.17504345703125,-0.5362491494268179,-2.1751783854812383,0.12757584794685245
1782811362676114400,2.185114501953125,-1.3336316995054482,-2.2209442574866114,-0.2199000575095415
1782811362686186200,2.195186279296875,-1.9455214885890482,-1.988329533702135,-0.3991571389853954
1782811362696257300,2.20525732421875,-1.9722300472944974,-1.7535273828759788,-0.32219869472831486
1782811362706328300,2.215328369140625,-1.588431220960617,-1.648221380534768,-0.1148036062657833
1782811362716400400,2.225400390625,-1.2452969979703425,-1.6150019786305725,0.08540288586691021
1782811362726471200,2.23547119140625,-1.1754466321527957,-1.481002819637954,0.1309320265069604
1782811362736542200,2.245542236328125,-1.3153051846981048,-1.2858037804037332,0.04719868128746748
1782811362746614300,2.2556142578125,-1.5010224020987748,-1.1266943647477776,-0.013827449822425841
1782811362756685300,2.265685302734375,-1.6404191823512315,-0.9182766552392393,-0.0677634765408933
1782811362766756400,2.27575634765625,-1.6551853743284939,-0.7406575502287596,-0.09099866004735231
1782811362776828400,2.285828369140625,-1.5926006155997514,-0.5635172417111695,-0.11062164440602064
1782811362786899500,2.2958994140625,-1.5002280368506908,-0.4217012714877724,-0.08151976082324981
1782811362796971300,2.30597119140625,-1.258584349566698,-0.3000153583623469,-0.017779986840486525
1782811362807042300,2.316042236328125,-1.0438865368753671,-0.18154782276153564,0.1097343401774764
1782811362817113300,2.32611328125,-0.9918447994709014,-0.04872779055088758,0.23305150776654482
1782811362827185400,2.336185302734375,-1.0401274766027926,0.1295981475546956,0.2995855886429548
1782811362837256200,2.346256103515625,-1.1731938847899437,0.37854704328551886,0.3193684397384524
1782811362847327200,2.3563271484375,-1.2805904296696184,0.6533638091139495,0.33981077765598894
1782811362857399300,2.3663994140625,-1.2125269472688436,0.9538912086516618,0.3771320619210601
1782811362867470300,2.37647021484375,-0.8512246149033308,1.239780426505953,0.3884542509242892
1782811362877541400,2.386541259765625,-0.30376082850098607,1.475885330493748,0.4670946569189429
1782811362887613200,2.39661328125,0.22990298060774803,1.6565999173015356,0.61473860264346
1782811362897684200,2.406684326171875,0.6976771442234516,1.7342828764408826,0.7550384692154825
1782811362907756300,2.41675634765625,1.0572060371756553,1.7596933581598102,0.7710778959989547
1782811362917827300,2.426827392578125,1.2917618120253085,1.7284031707525251,0.7266521865561604
1782811362927898400,2.4368984375,1.3929232619076966,1.6766718144714832,0.6387224125601351
1782811362937970400,2.446970458984375,1.4119225614100694,1.6498403600387275,0.5695525763526559
1782811362948041200,2.457041259765625,1.3945184221446514,1.6186783290557563,0.5545714264504611
1782811362958112300,2.4671123046875,1.3500357218176127,1.5586808103412388,0.537745671594888
1782811362968184300,2.477184326171875,1.3442916252076624,1.4938503185123204,0.507351702374965
1782811362978255400,2.48725537109375,1.2731903825461863,1.426993435422331,0.45429041266441345
1782811362988326400,2.497326416015625,1.2237760710358618,1.3189393034167587,0.4238289311662316
1782811362998398200,2.507398193359375,1.0585966147512196,1.2113364223100245,0.39884690399244427
1782811363008469200,2.51746923828125,0.8848708639174699,1.1015960907831788,0.4178786444596946
1782811363018541300,2.527541259765625,0.7501759777456521,0.9583825287215411,0.42278482894077896
1782811363028612400,2.5376123046875,0.6160919169485569,0.7865623192481697,0.4152117633379996
1782811363038683100,2.54768310546875,0.4602747477710247,0.6458955190598964,0.36944662198498845
1782811363048755500,2.55775537109375,0.3144990801364183,0.5831310198500752,0.313339680968225
1782811363058826200,2.567826171875,0.2117787103742361,0.536765574516356,0.2975118511088192
1782811363068897300,2.577897216796875,0.1510714359551668,0.4433827958114445,0.3003216478325426
1782811363078969300,2.58796923828125,0.18667115712463855,0.31613559529706836,0.2885560989759862
1782811363089040400,2.598040283203125,0.36723055337071414,0.18670286743715406,0.28611060552001
1782811363099111400,2.608111328125,0.6089870533794164,0.09718860072866081,0.26307868950068947
1782811363109183200,2.618183349609375,0.8387444880366325,0.01828121436089277,0.30788945273831486
1782811363119254300,2.628254150390625,1.0060936895757913,-0.04560527461618185,0.2960562454730272
1782811363129326300,2.638326416015625,1.0934130765885115,-0.09041326137483119,0.2732375338129699
1782811363139397000,2.648397216796875,1.0911614982694386,-0.17117109791487453,0.2948389786377549
1782811363149468200,2.65846826171875,1.1065466989278792,-0.2416885493390262,0.3263243963561952
1782811363159540200,2.668540283203125,0.9987065019339323,-0.29493608233667906,0.34977731426656244
1782811363169611000,2.678611083984375,0.9127975662410259,-0.33924649483673275,0.3490526532538235
1782811363179682000,2.68868212890625,0.7989829710125923,-0.38193851235471665,0.28841420628726483
1782811363189754000,2.698754150390625,0.5523959821075201,-0.40853228557407856,0.25066475973799823
1782811363199825200,2.7088251953125,0.2845148607611656,-0.3727450059432536,0.2069356542572379
1782811363209897000,2.71889697265625,0.11478548608720301,-0.32559863936491307,0.1432755213819444
1782811363219968000,2.728968017578125,0.040453590941429134,-0.2788615111745894,0.1276943597599864
1782811363230039000,2.7390390625,-0.07777180646657943,-0.24761903536655008,0.13721607521250842
1782811363240111000,2.749111083984375,-0.3107037795066833,-0.19518281875178217,0.12902926162555814
1782811363250182100,2.75918212890625,-0.671189534792304,-0.1335752344921231,0.1136323705293238
1782811363260253200,2.769253173828125,-0.9692144499897957,-0.1406337747015059,0.053098260720074175
1782811363270325200,2.7793251953125,-1.1516022307068108,-0.1826844986412674,-0.06826806506216526
1782811363280396000,2.78939599609375,-1.3232073361247778,-0.2683200242202729,-0.16429741275310517
1782811363290467000,2.799467041015625,-1.5106962393730878,-0.2710265797652304,-0.2091876709677279
1782811363300539100,2.8095390625,-1.656557831725478,-0.2035973766800016,-0.23412454382553696
1782811363310610200,2.819610107421875,-1.8249287775278091,-0.10789543431252241,-0.24915406291410325
1782811363320681200,2.82968115234375,-1.9935276868671177,-0.020915581452474,-0.34545857428461313
1782811363330753000,2.8397529296875,-2.069023949617147,0.038733050759136675,-0.6579597586020827
1782811363340824000,2.849823974609375,-2.0076368762403725,0.031177082421630618,-1.1137946242295205
1782811363350896000,2.859896240234375,-1.7822510807961225,-0.1318076402977109,-1.4083781668014823
1782811363360967200,2.86996728515625,-1.404656954321265,-0.4426593038424849,-1.3799218876458703
1782811363371038200,2.8800380859375,-1.053282726252079,-0.8001338215481489,-1.2000057577393948
1782811363381110300,2.8901103515625,-0.8841519019931554,-0.9864486395157873,-1.1014205880858003
1782811363391181000,2.90018115234375,-0.9559604161411523,-0.930369463288784,-1.0998325882419944
1782811363401252000,2.910252197265625,-1.1400263592034579,-0.7661986725900322,-1.1223178301639853
1782811363411324000,2.920323974609375,-1.2850193520277737,-0.5780483097583056,-1.065902115458995
1782811363421395000,2.93039501953125,-1.3024872041791677,-0.42559813279584047,-1.0134440523386001
1782811363431466000,2.940466064453125,-1.1434826371371745,-0.27094657333157957,-0.980460797277838
1782811363441538000,2.9505380859375,-0.9085738110661506,-0.15085209411606193,-0.9728392163582146
1782811363451609000,2.960609130859375,-0.6737935798108577,-0.050977176912873984,-1.013649511782825
1782811363461681200,2.97068115234375,-0.4492857362449169,0.09257774593234061,-1.0780575404159725
1782811363471752200,2.980752197265625,-0.20695289765298366,0.22047676141895353,-1.0703721004799007
1782811363481823000,2.990822998046875,0.01666355003118515,0.25559118328951297,-1.072054062217474
1782811363491895300,3.000895263671875,0.27432547518014905,0.21608407941795885,-1.0802117958404123
1782811363501966000,3.010966064453125,0.5912397997647524,0.2454534548304975,-1.044239588096738
1782811363512037000,3.021037109375,0.9824024328649044,0.35879451426304876,-0.9366869758725166
1782811363522109000,3.03110888671875,1.2810878577977418,0.4620656497757882,-0.7616549647457898
1782811363532180000,3.041179931640625,1.4710358446359633,0.5306617046833038,-0.5993430267214774
1782811363542251000,3.0512509765625,1.6404460703581571,0.5687533157337457,-0.4214708237327635
1782811363552323000,3.061322998046875,1.781563683053851,0.5497850689567625,-0.270323253801465
1782811363562394000,3.07139404296875,1.7856395541906356,0.514012475438416,-0.12367664855122565
1782811363572466200,3.081466064453125,1.622715767878294,0.49237427879981693,-0.050528702493011945
1782811363582537200,3.091537109375,1.427281458583474,0.5033564221937209,0.06056143620759248
1782811363592608000,3.10160791015625,1.2424410240173338,0.5085243994161487,0.18435893465951084
1782811363602680000,3.11168017578125,1.013871337839961,0.5085136588264256,0.2952304621733725
1782811363612751000,3.121751220703125,0.8077244958728551,0.4403276460245251,0.3698550566554069
1782811363622822100,3.131822265625,0.6211801799982786,0.38336847209259867,0.4062186018042266
1782811363632894000,3.14189404296875,0.4444008868128061,0.3644445759139955,0.37569413807243107
1782811363642965000,3.151965087890625,0.34019173979759215,0.34573213052898644,0.3429762559495866
1782811363653036000,3.1620361328125,0.29149463664591313,0.29722974623180926,0.2674770705901086
1782811363663108000,3.172108154296875,0.38445992059111594,0.1774699788633734,0.14030337370336055
1782811363673179100,3.18217919921875,0.6576268733859062,-0.019955796509608624,0.011885960365831852
1782811363683251200,3.192251220703125,0.9000140725135802,-0.22096030715219675,-0.09755421917065978
1782811363693322200,3.202322265625,1.137258063533902,-0.39153051656447346,-0.14302227727323769
1782811363703393000,3.21239306640625,1.4456354459196328,-0.5243652348875999,-0.19129779401198027
1782811363713465000,3.222465087890625,1.7143185312986373,-0.6631950289070606,-0.22740327274650335
1782811363723536100,3.2325361328125,1.8845155234843491,-0.8103934228211641,-0.2273589952133596
1782811363733607200,3.242607177734375,1.835320407682657,-0.9687032855972647,-0.2434254561342299
1782811363743679000,3.252678955078125,1.6961247029602526,-1.0723434005528687,-0.2593294199697673
1782811363753750000,3.26275,1.4984937604039907,-1.1028352771893144,-0.25925065564513206
1782811363763821000,3.272821044921875,1.2423539302557707,-1.0849673198044298,-0.21748408240899442
1782811363773893000,3.28289306640625,0.9178262080579995,-1.0727696631409227,-0.18167364109829068
1782811363783964200,3.292964111328125,0.4428682704180479,-1.0041001776710152,-0.13591522174701093
1782811363794036200,3.3030361328125,-0.0987006127268076,-0.8865183388635516,-0.1383424488939345
1782811363804107300,3.313107177734375,-0.5168459452986717,-0.8243424531966448,-0.1561905325345695
1782811363814178000,3.323177978515625,-0.7154273204475641,-0.833388075570017,-0.16212752136811612
1782811363824249900,3.333249755859375,-0.8256792547583579,-0.9085789256326854,-0.1837491321980953
1782811363834321000,3.34332080078125,-0.9133306502044201,-0.9760802441060542,-0.1894670714534819
1782811363844392000,3.353391845703125,-1.0480167685478925,-0.9976695601016282,-0.20030936798527835
1782811363854464000,3.363464111328125,-1.1551888570219278,-0.9929252881839871,-0.16186726299673318
1782811363864535000,3.37353515625,-1.1670394538134337,-1.0038732370473444,-0.10785597908496856
1782811363874606000,3.383606201171875,-1.1213654978752134,-1.000724125366658,-0.014022387872636318
1782811363884678100,3.39367822265625,-1.1442547905534506,-0.9537493159629404,0.00646627340465784
1782811363894749200,3.403749267578125,-1.2722504713475704,-0.8579428172424435,0.05822904773727059
1782811363904821200,3.4138212890625,-1.4485118781387805,-0.7579622477076947,0.06038081894367933
1782811363914892300,3.423892333984375,-1.5653823538064955,-0.6892702581450343,-0.04477174640148878
1782811363924963000,3.433963134765625,-1.3603197999447583,-0.6450745580658316,-0.13730506867021322
1782811363935035000,3.444034912109375,-0.9171493317097424,-0.6495036265544593,-0.13125775132998824
1782811363945106000,3.45410595703125,-0.512289012646675,-0.6819010445512831,-0.027610622111707925
1782811363955177000,3.464177001953125,-0.3576064004570246,-0.7477624868631363,0.06260317116826772
1782811363965249000,3.4742490234375,-0.49534839923977847,-0.8011869107976556,-0.01426671802252531
1782811363975320000,3.484320068359375,-0.7323024674028158,-0.8012512082055211,-0.17059797420203685
1782811363985391000,3.49439111328125,-0.8702870427697896,-0.7777337006263434,-0.2344806637868285
1782811363995463200,3.504463134765625,-1.0257610975980758,-0.7243547232687473,-0.26417364513054487
1782811364005534200,3.5145341796875,-1.3207868309795856,-0.6291518895298243,-0.3006459113508463
1782811364015605000,3.52460498046875,-1.615723717033863,-0.4842807695195079,-0.37859541247189044
1782811364025677000,3.534677001953125,-1.7872639405220745,-0.27628932259902356,-0.35536592805385586
1782811364035748000,3.544748046875,-1.7303016978502272,-0.03651026014313102,-0.21021350688412785
1782811364045820000,3.55481982421875,-1.508446414619684,0.1542313612908125,-0.012778379160910845
1782811364055891000,3.564890869140625,-1.2356214071303606,0.3361519628874957,0.20215689554810523
1782811364065962000,3.5749619140625,-1.0420733499735593,0.5592563693962991,0.3682885379910469
1782811364076034000,3.585033935546875,-0.9502794478952884,0.775786512081325,0.4187501665972173
1782811364086105000,3.59510498046875,-0.7062526648670434,0.9297646292634307,0.43323666485026474
1782811364096176000,3.605176025390625,-0.24001579382121563,1.028069666801393,0.4647765892349183
1782811364106248200,3.615248291015625,0.3067717007547617,1.0100593783363698,0.5392280191071331
1782811364116319200,3.6253193359375,0.7762468230694531,0.9299826559282839,0.5490303050667047
1782811364126390000,3.63539013671875,1.1325368802309035,0.8177643899805843,0.5114021468095481
1782811364136462000,3.645462158203125,1.4231184936851262,0.7498354937449098,0.48615664639398454
1782811364146533000,3.655533203125,1.729067772141099,0.6758662944316863,0.5042047826513648
1782811364156605000,3.66560498046875,1.9342793790847062,0.626621494269371,0.5214110612571239
1782811364166676000,3.675676025390625,1.9402321500092743,0.5849713870197534,0.4834034021630883
1782811364176747000,3.6857470703125,1.738527089881897,0.5688002966806293,0.4268275284603238
1782811364186819000,3.695819091796875,1.3267056996345519,0.5289544623740017,0.33740839268937706
1782811364196890000,3.70589013671875,0.8285925118565559,0.5293300176881254,0.27220424524247644
1782811364206961200,3.715961181640625,0.3415080830931663,0.47413609986305233,0.16995178525298832
1782811364217033200,3.726033203125,-0.033491350713372225,0.3997692795343697,0.13583674968332052
1782811364227104000,3.73610400390625,-0.23446225134730336,0.3711833826497197,0.14857611200809479
1782811364237175000,3.746175048828125,-0.25082886425852774,0.2905735762782395,0.1649599683150649
1782811364247247000,3.7562470703125,-0.14865034628808496,0.20090923357456922,0.19579349799603224
1782811364257318100,3.766318115234375,0.045189387291669846,0.13376695767194033,0.28091289074644443
1782811364267389200,3.77638916015625,0.34762042849361896,0.09832973358780145,0.4277946199268102
1782811364277461000,3.7864609375,0.743272189706564,0.030555589522421357,0.5638859288930893
1782811364287532000,3.796531982421875,1.1137316419959067,-0.03665960548594594,0.6762209530882537
1782811364297604000,3.80660400390625,1.344984283646941,-0.14459697924405335,0.7409165664911269
1782811364307675100,3.816675048828125,1.4486989251434803,-0.24072671856954692,0.7331115918286144
1782811364317746000,3.826745849609375,1.4451216511785983,-0.22749299685657023,0.7310955758310854
1782811364327818200,3.836818359375,1.4513731127887963,-0.18854104264974594,0.7635762881971895
1782811364337889000,3.846888916015625,1.3554168303340672,-0.16802257075607777,0.7949874716356397
1782811364347960000,3.8569599609375,1.1084189225405454,-0.15155863495022057,0.7880095954470336
1782811364358032000,3.867031982421875,0.8547837686896324,-0.15634879183620212,0.7496215587332844
1782811364368103000,3.87710302734375,0.5937053130954504,-0.2421637656353414,0.6699988637030124
1782811364378174000,3.887174072265625,0.4000684086114168,-0.2656689982548356,0.6285983473002911
1782811364388246000,3.89724609375,0.3158908267557621,-0.2217753498621285,0.670007047009468
1782811364398317000,3.907317138671875,0.1930646575540304,-0.14449249595627187,0.7483718509331345
1782811364408389000,3.91738916015625,0.029381577306985852,-0.08573182556033133,0.7931444741174578
1782811364418460200,3.927460205078125,0.018726327779889106,-0.004726882391422987,0.8117766938731074
1782811364428531000,3.937531005859375,0.07893792763650417,0.08966083557233213,0.8871000842742621
1782811364438603000,3.94760302734375,0.004469254368543624,0.19664689995497464,0.9303272315822542
1782811364448674000,3.957674072265625,-0.22137188362777233,0.2806817123390734,0.8686825301826
1782811364458745000,3.9677451171875,-0.42007308576405045,0.3294179784573614,0.7909349813744425
1782811364468817000,3.97781689453125,-0.567655510559678,0.36334801284894347,0.7319258891753851
1782811364478888000,3.987887939453125,-0.6885662015289068,0.3531660799220204,0.702238168528676
1782811364488959000,3.997958984375,-0.8799521122157573,0.36944311485365033,0.6629188423141836
1782811364499031000,4.008031005859375,-1.0396657043099402,0.43886677969172594,0.6242474586144089
1782811364509102000,4.01810205078125,-1.1829045469433068,0.5178343718141317,0.616275310691446
1782811364519173000,4.028173095703125,-1.3258955522954463,0.5921075225099921,0.5938657643541694
1782811364529245200,4.0382451171875,-1.4942255815654992,0.6872432823620737,0.5110271760173142
1782811364539316000,4.04831591796875,-1.638422455576062,0.7031374554559588,0.3325836028814316
1782811364549388000,4.058387939453125,-1.7302683801025152,0.6109776426747441,0.05438537792116403
1782811364559459000,4.068458984375,-1.5642986502230167,0.5175343659542501,-0.3037392011910677
1782811364569530000,4.078530029296875,-1.2417068645238876,0.4057819639526307,-0.6149333945631981
1782811364579602000,4.088601806640625,-0.9754115510642528,0.16131898146420717,-0.7288271925076842
1782811364589673000,4.0986728515625,-0.8182166637927293,-0.12985153779387473,-0.7460261645898223
1782811364599744000,4.108743896484375,-0.7267173607468604,-0.35133418831974267,-0.7414423439309
1782811364609816000,4.118816162109375,-0.6799415810465812,-0.4205870266355574,-0.8106082346156239
1782811364619887000,4.12888720703125,-0.6726829882204532,-0.3091628336749971,-0.8465478552639484
1782811364629958100,4.138958251953125,-0.6703261959612369,-0.17838263672888277,-0.8424597091674804
1782811364640030200,4.1490302734375,-0.6879764189422131,-0.05008841137960553,-0.8391635902315377
1782811364650101000,4.15910107421875,-0.7464689399212598,0.06453866927549243,-0.8233937741696834
1782811364660173000,4.169173095703125,-0.6848018805593252,0.14368395605236292,-0.8467293493106961
1782811364670244000,4.179244140625,-0.5818512091726065,0.10788695874512196,-0.865028976111114
1782811364680315100,4.189315185546875,-0.4848129767000675,0.1308456633977592,-0.843243845282495
1782811364690387000,4.199386962890625,-0.3251344559192657,0.23718875370174644,-0.7696683214619755
1782811364700458000,4.2094580078125,-0.08092471753954887,0.38265009469017386,-0.6457905973806977
1782811364710529000,4.219529052734375,0.2116600524306297,0.5461849986381828,-0.46553208377733823
1782811364720601000,4.22960107421875,0.40766017891466616,0.6922837607473135,-0.33361557627767324
1782811364730672000,4.239672119140625,0.47235097001194953,0.7614698174372315,-0.26226167402938005
1782811364740743000,4.249742919921875,0.5030453834831714,0.7876185503028332,-0.2669442788876593
1782811364750815200,4.259815185546875,0.5691425342470408,0.8068368993833661,-0.2994194382958114
1782811364760886000,4.269885986328125,0.6616875469535589,0.7607925026975572,-0.286752118293941
1782811364770957000,4.27995703125,0.7717723080039024,0.7011801839083432,-0.2906359739899635
1782811364781028900,4.29002880859375,0.898263429453969,0.6157723296053708,-0.2835786028243601
1782811364791100000,4.300099853515625,1.034682655200362,0.4999313431158662,-0.26734832964390515
1782811364801172000,4.310171875,1.099070663958788,0.41066769016757604,-0.24810513838306067
1782811364811243000,4.320242919921875,1.0563549733042716,0.300907484896481,-0.23880407994389533
1782811364821314000,4.33031396484375,0.8775795378655195,0.24546514526829122,-0.2704142930857837
1782811364831386000,4.34038623046875,0.6923240927577018,0.1717512358903885,-0.2543080846764147
1782811364841457200,4.35045703125,0.4904951139897108,0.11113339332044124,-0.18508534923791883
1782811364851528000,4.36052783203125,0.22661562950015066,0.09680895376130938,-0.15579612638950346
1782811364861600000,4.37060009765625,0.005938157877326012,0.12454977812394499,-0.16235928429737687
1782811364871671000,4.380671142578125,-0.04843932899832725,0.10781111702993512,-0.16351210759431123
1782811364881742000,4.3907421875,0.13519348334372042,0.04089578175097704,-0.16923150815442203
1782811364891814000,4.40081396484375,0.4151046497017145,-0.05216989382877946,-0.13772504764795301
1782811364901885000,4.410885009765625,0.6819640267848968,-0.15874810806289313,-0.1417471427708864
1782811364911956000,4.4209560546875,0.9610586160629987,-0.2651686475172639,-0.15533011631295085
1782811364922028000,4.431028076171875,1.2562374941796064,-0.3623628012038767,-0.16853139706104991
1782811364932099000,4.44109912109375,1.5431073936343191,-0.49564241375029083,-0.15973054322898386
1782811364942171100,4.451171142578125,1.7159534390240907,-0.645168958351016,-0.13413169933110475
1782811364952242200,4.4612421875,1.8550199644088745,-0.7434308873996138,-0.12162541510984301
1782811364962313000,4.47131298828125,1.8874334567576645,-0.8377009703330696,-0.13721607521250842
1782811364972385000,4.481385009765625,1.7877718900442123,-0.9632963119871913,-0.1541140185214579
1782811364982456000,4.4914560546875,1.6047206769824027,-1.0274388215519488,-0.17957067746967076
1782811364992527000,4.501527099609375,1.4473539402753113,-1.01785938456282,-0.21666779759004712
1782811365002599000,4.511598876953125,1.2657926735103129,-1.0788606734924018,-0.27913097576573487
1782811365012670000,4.521669921875,1.0487164412498473,-1.1445476360201834,-0.33139132435694335
1782811365022741000,4.531740966796875,0.8463456106901168,-1.1221369206391274,-0.3688387192197144
1782811365032813000,4.54181298828125,0.691214085689187,-1.1332255931474269,-0.3567933305084705
1782811365042884000,4.551884033203125,0.5479296503484249,-1.2251331847332416,-0.3855580910913646
1782811365052956200,4.5619560546875,0.3034112844109535,-1.220696809720993,-0.4076962731413543
1782811365063027200,4.572027099609375,0.08800970736443996,-1.203535685431212,-0.42135450387671586
1782811365073098000,4.582097900390625,-0.02478840429782867,-1.229647008895874,-0.4150499969050288
1782811365083170000,4.592170166015625,-0.08092939371466636,-1.2714704268857835,-0.340867154841125
1782811365093241000,4.602240966796875,-0.059120882010459896,-1.2667330231003462,-0.2632449859783053
1782811365103312100,4.61231201171875,0.003658522507548332,-1.2296107685387134,-0.14444748777076602
1782811365113384000,4.622384033203125,0.022768881168961523,-1.1427264119423926,0.0066657414995133875
1782811365123455000,4.632455078125,-0.0575567014336586,-1.0460554053470492,0.11307634408175944
1782811365133526000,4.642526123046875,-0.21188684692382811,-1.0002534391149878,0.16600260923579335
1782811365143598300,4.652598388671875,-0.3651560851842165,-1.0014470328137277,0.1395206988930702
1782811365153669000,4.662669189453125,-0.2501110713779926,-1.059516944466531,0.016323212160915136
1782811365163740200,4.672740234375,0.25512510014772416,-1.1018500655442476,-0.05850435754731297
1782811365173812200,4.682812255859375,0.8038608061820268,-1.1361970101736485,0.04365823220163584
1782811365183883300,4.69288330078125,1.0700964984089136,-1.1622620102785528,0.17075857159122823
1782811365193955000,4.702955078125,0.8262935872644186,-1.190767973794788,0.20454744394645094
1782811365204026000,4.713026123046875,0.09681845224201678,-1.1194330685079097,0.06703545452728867
1782811365214097200,4.72309716796875,-0.7072597960829734,-1.0159025514066218,-0.08834361549392342
1782811365224169200,4.733169189453125,-1.4863497336238622,-0.8253175818391144,-0.16760171499550341
1782811365234240300,4.743240234375,-2.1501719545185565,-0.5425308600448072,-0.28295170309767126
1782811365244311000,4.75331103515625,-2.517295540383458,-0.33894904626011846,-0.3739396956205368
1782811365254383000,4.763383056640625,-2.503794253775477,-0.17797551723271607,-0.353720791195333
1782811365264454100,4.7734541015625,-2.192577848571539,-0.07586144280061126,-0.18891323696300386
1782811365274525200,4.783525146484375,-1.8966227253854273,-0.04632335975766182,-0.010852087273448704
1782811365284597200,4.79359716796875,-1.738122016212344,-0.04960121238455176,0.15931334073022008
1782811365294668300,4.803668212890625,-1.7589789262801407,0.009718260937929152,0.21479586623832583
1782811365304739300,4.8137392578125,-1.9133353752553461,0.12100143799260257,0.18004998541921377
1782811365314811100,4.82381103515625,-1.9980752671688793,0.3172898798987269,0.14751593543067573
1782811365324882200,4.833882080078125,-1.8969465505123138,0.5476318364456295,0.13401377203986048
1782811365334954200,4.843954345703125,-1.612010249468684,0.7200625790327787,0.22967165606990456
1782811365345025300,4.854025390625,-1.1348702916145323,0.8084170081816613,0.3629997839331627
1782811365355096000,4.864095947265625,-0.7378735455334187,0.7777012596614659,0.4609453405089676
1782811365365168000,4.874168212890625,-0.5689338599324226,0.7259538290284574,0.43160891751796004
1782811365375239200,4.8842392578125,-0.517589457142353,0.725745446974784,0.3708198100343346
1782811365385310200,4.894310302734375,-0.4102461037546396,0.7649291641108691,0.3887823138348758
1782811365395382300,4.90438232421875,-0.2611708100527525,0.7797137685276567,0.4256004708833992
1782811365405453300,4.914453369140625,-0.15072539899647236,0.8016106891676783,0.40032019141539926
1782811365415524400,4.9245244140625,0.02287175702154636,0.7918469816528261,0.31160087447687984
1782811365425596200,4.93459619140625,0.19924597653746604,0.8035092162653803,0.2984372953906655
1782811365435667200,4.944667236328125,0.3055389440894127,0.8550817287229001,0.2781004636742174
1782811365445738200,4.95473828125,0.3727764970600605,0.8670452843695878,0.27778321441859005
1782811365455810300,4.964810302734375,0.4710673599421978,0.8683448226608336,0.23297537379041314
1782811365465881000,4.974881103515625,0.609836363685131,0.8951828529648482,0.24165713128745556
1782811365475953200,4.984953125,0.7439549112737178,0.8365009468935429,0.26444164841696616
1782811365486024200,4.995024169921875,0.8876631249845027,0.7185149111993611,0.21614406597688793
1782811365496095200,5.00509521484375,1.0141466476500034,0.647530134524405,0.22305662184432148
1782811365506167300,5.015167236328125,1.11387484985888,0.5682506999738514,0.28881957221776244
1782811365516238300,5.02523828125,1.1503694740414618,0.5249513642124831,0.3648794601999223
1782811365526309400,5.035309326171875,1.0909084002912044,0.5298224773801863,0.42975788282379507
1782811365536381200,5.045381103515625,1.0401204623401163,0.5854870814569294,0.4950874102160334
1782811365546452200,5.0554521484375,1.1907470771372317,0.5680158683046698,0.541869911918044
1782811365556523300,5.065523193359375,1.414920574182272,0.40729835986495017,0.5654223446801304
1782811365566595300,5.07559521484375,1.4881155742526053,0.2109443053767085,0.5545813633225858
1782811365576666000,5.085666015625,1.3784528380066157,0.06437880253866314,0.5553169841207564
1782811365586737200,5.095737060546875,1.1096902576506138,-0.06276522986218333,0.5215186132848263
1782811365596809200,5.105809326171875,0.7930144179970026,-0.16638532494306563,0.5047483880087733
1782811365606880300,5.11588037109375,0.5806506012111902,-0.2147464741386473,0.497592963296175
1782811365616951300,5.125951416015625,0.4538450069844722,-0.2705209683306515,0.5027335410550237
1782811365627023000,5.136023193359375,0.3383335447102785,-0.33472134556248784,0.4959621472239494
1782811365637094100,5.14609423828125,0.22781156128644942,-0.33937150945588945,0.44507162568122144
1782811365647166200,5.156166259765625,0.14745909067690371,-0.3171929953955114,0.5055430455178022
1782811365657237200,5.1662373046875,0.11442834321260452,-0.2738061274811625,0.5581304341062903
1782811365667308000,5.17630810546875,0.07060849070847033,-0.27806203135997054,0.5220908602148294
1782811365677380400,5.18638037109375,0.024817630392313002,-0.2976946603298187,0.5114624986946582
1782811365687451100,5.196451171875,-0.019146014496684072,-0.32220322477295993,0.4704351995185017
1782811365697522200,5.206522216796875,-0.04467909968197346,-0.3102418610833585,0.43650311930030583
1782811365707594200,5.21659423828125,-0.060493923929333684,-0.2744628378242254,0.42251288013160226
1782811365717665300,5.226665283203125,-0.2117524068892002,-0.20472046242579817,0.38942514178305865
1782811365727736300,5.236736328125,-0.4080506395369768,-0.09234919787347316,0.3085904406145215
1782811365737808100,5.24680810546875,-0.5483201109707355,-0.028607670325040815,0.25909458830058574
1782811365747879200,5.256879150390625,-0.6873392900824546,0.01749620146304369,0.22989567408412692
1782811365757950200,5.2669501953125,-0.8468056294173002,0.03482961357980966,0.14917203207463026
1782811365768022300,5.277022216796875,-1.0527315221101046,-0.013811229339987038,-0.04182780190408229
1782811365778093000,5.287093017578125,-1.1954705985277891,-0.04448723037168383,-0.1891848935112357
1782811365788165000,5.2971650390625,-1.1878630461335182,-0.03547083409279585,-0.2770198288306594
1782811365798233300,5.3072333984375,-0.9318214156627654,0.01182736204639077,-0.469518961456418
1782811365808304400,5.317304443359375,-0.5685334624379873,-0.12592077421620487,-0.6448614998370409
1782811365818376200,5.327376220703125,-0.4172480914711952,-0.5163188526846468,-0.6480851380586624
1782811365828447000,5.337447021484375,-0.6531728165864944,-0.820039495305717,-0.5566694216430187
1782811365838519000,5.34751904296875,-1.1905419099539518,-0.9158758046425879,-0.5011474409073591
1782811365848590000,5.357590087890625,-1.7978052082806824,-0.6912384894780814,-0.5142962608158588
1782811365858661000,5.3676611328125,-2.2567338021397587,-0.2810172279037535,-0.44774902819693085
1782811365868733200,5.377733154296875,-2.5600381190448998,0.12525427313148974,-0.2378513092637062
1782811365878804200,5.38780419921875,-2.660940041208267,0.4343624540098011,-0.11408376755863428
1782811365888875300,5.397875244140625,-2.4455565843403337,0.5558028679415583,-0.1655737162992358
1782811365898947300,5.407947265625,-1.916655459588766,0.5875535124674439,-0.2585226336315274
1782811365909018400,5.418018310546875,-1.461780525034666,0.46351855199784037,-0.10322101276069878
1782811365919089400,5.42808935546875,-1.1614549316793679,0.17893764026314019,-0.0979074165225029
1782811365929161200,5.4381611328125,-0.7776233721196651,0.0166220489770174,-0.17905600594580173
1782811365939232000,5.44823193359375,-0.7201333061814308,-0.04287029669433832,-0.2207823933020234
1782811365949303000,5.458302978515625,-0.820388162612915,0.11878230063840746,-0.29037761531472206
1782811365959375000,5.468375,-0.6702157213240861,0.3683325232632458,-0.3811234696447849
1782811365969446100,5.478446044921875,-0.3052069356560707,0.5556368637248873,-0.3336833808168769
1782811365979518200,5.488518310546875,0.1155225681900978,0.7103795355387031,-0.20633651932030914
1782811365989589200,5.49858935546875,0.40902036135196684,0.7941128807581961,-0.11214286262392997
1782811365999660300,5.508660400390625,0.626015345069766,0.77161346418038,-0.19607582206875085
1782811366009732400,5.518732421875,0.803642194995284,0.7548375398159026,-0.21504735678136347
1782811366019803400,5.528803466796875,0.8519003222078084,0.6301885391011833,-0.23071327407732606
1782811366029874200,5.538874267578125,0.8727274216592311,0.4347625592432916,-0.34195568073019383
1782811366039946200,5.5489462890625,0.8578899180114269,0.34181671065092084,-0.48283451623395085
1782811366050017000,5.55901708984375,0.7819172699213027,0.3358643781177699,-0.4478473740048706
1782811366060088000,5.569088134765625,0.6894681188046932,0.41110286671444773,-0.27651933196261524
1782811366070160100,5.57916015625,0.5760229414105416,0.5083839680321515,-0.12699205670952796
1782811366080231200,5.589231201171875,0.40813071903586384,0.5621688958421349,-0.08234072181731462
1782811366090302200,5.59930224609375,0.1169780276954174,0.5647314398065209,-0.13023951419815422
1782811366100374300,5.609374267578125,-0.1452238789707422,0.5646610049188137,-0.2861504991389811
1782811366110445300,5.6194453125,-0.2530705057054758,0.5372904751732945,-0.39615956460461016
1782811366120516400,5.629516357421875,-0.15643267072737216,0.4907809451937675,-0.381476666996628
1782811366130588400,5.63958837890625,0.18188742997944354,0.6557832913458347,-0.2168561597689986
1782811366140659200,5.6496591796875,0.8135767290323972,0.8625544026911258,0.1196136368960142
1782811366150730800,5.659730712890625,1.0454822816342115,0.8823951214537024,0.3711173316761851
1782811366160802800,5.669802734375,2.6201456740051507,0.33900486810058356,0.5370910070784389
1782811366170873900,5.679873779296875,3.304859876281023,-0.4552507821291685,0.6786017107449471
1782811366180946000,5.68994580078125,2.617240600213408,-0.5000441558405757,0.36389293338060374
1782811366191017000,5.700016845703125,1.3525696242094039,-0.1885617931768298,0.005178717812150717
1782811366201087700,5.710087646484375,0.8426683834820985,-0.3112444622546434,-0.26611995689272877
1782811366211160000,5.72016015625,1.0128332269638776,-0.7682479332700372,-0.3690960549816489
1782811366221230800,5.73023095703125,1.24843471147418,-0.9901482246860861,-0.35393604138121004
1782811366231302000,5.740302001953125,1.2030793199658394,-0.890200826768577,-0.20262699727788566
1782811366241373700,5.750373779296875,0.796609227618575,-0.7899035925000906,0.05640343974530697
