time,seconds_elapsed,z,y,x
1782811360561128200,0.070128173828125,-0.17038388550281525,0.0502951517701149,0.2534198760986328
1782811360571199000,0.080198974609375,-0.1756802350282669,0.12688058614730835,0.16000868380069733
1782811360581270000,0.09027001953125,-0.1790994554758072,0.15262562036514282,0.06828781217336655
1782811360591342000,0.100342041015625,-0.17333579063415527,0.1309603601694107,-0.01337986346334219
1782811360601413000,0.1104130859375,-0.15396316349506378,0.09258526563644409,-0.06954725831747055
1782811360611485000,0.12048486328125,-0.12615996599197388,0.06365356594324112,-0.09868728369474411
1782811360621556000,0.130555908203125,-0.08849408477544785,0.033116165548563004,-0.11376290768384933
1782811360631627000,0.140626953125,-0.05799121782183647,-0.006112904287874699,-0.11740222573280334
1782811360641699000,0.150698974609375,-0.0431094728410244,-0.03906712308526039,-0.10229410976171494
1782811360651770000,0.16077001953125,-0.045094043016433716,-0.04854811355471611,-0.07754046469926834
1782811360661841200,0.170841064453125,-0.0419967882335186,-0.042667586356401443,-0.04403310269117355
1782811360671913200,0.180913330078125,-0.041101302951574326,-0.03947041928768158,-0.011114179156720638
1782811360681984000,0.19098388671875,-0.03356056287884712,-0.033365920186042786,0.019082603976130486
1782811360692056000,0.20105615234375,-0.03112260438501835,-0.03064628317952156,0.05224503204226494
1782811360702127000,0.211127197265625,-0.030912747606635094,0.0073905824683606625,0.09377223998308182
1782811360712198100,0.2211982421875,-0.020931722596287727,0.044849544763565063,0.12621209025382996
1782811360722270000,0.23127001953125,-0.01078641228377819,0.06787870079278946,0.1369805783033371
1782811360732341000,0.241341064453125,0.0011167005868628621,0.05926566198468208,0.12948647141456604
1782811360742412000,0.251412109375,0.004872556775808334,0.04419669881463051,0.10714362561702728
1782811360752484000,0.261484130859375,0.011538105085492134,0.030338995158672333,0.07363267987966537
1782811360762555100,0.27155517578125,0.022010721266269684,0.025044364854693413,0.03939615190029144
1782811360772627200,0.281627197265625,0.03604361042380333,0.022674988955259323,0.009791131131350994
1782811360782698200,0.2916982421875,0.04754127562046051,0.019747644662857056,-0.010673397220671177
1782811360792769000,0.30176904296875,0.05479319021105766,0.013218727894127369,-0.024328136816620827
1782811360802840800,0.3118408203125,0.0563865564763546,0.00446917861700058,-0.019146157428622246
1782811360812911900,0.321911865234375,0.055225953459739685,-0.015976974740624428,-0.004807699006050825
1782811360822983000,0.33198291015625,0.056239817291498184,-0.05606314167380333,0.023142974823713303
1782811360833055000,0.342054931640625,0.06727907061576843,-0.09158213436603546,0.05777326598763466
1782811360843126000,0.3521259765625,0.0852452889084816,-0.11231670528650284,0.08816365897655487
1782811360853198000,0.362197998046875,0.10559239983558655,-0.11004529893398285,0.10941051691770554
1782811360863269000,0.37226904296875,0.12305209040641785,-0.09532546997070312,0.12761348485946655
1782811360873340200,0.382340087890625,0.12244794517755508,-0.07342065870761871,0.1372491866350174
1782811360883412200,0.392412109375,0.11375272274017334,-0.056701868772506714,0.14532069861888885
1782811360893483000,0.40248291015625,0.1017238199710846,-0.042300548404455185,0.14114169776439667
1782811360903554000,0.412553955078125,0.09489148110151291,-0.04279483109712601,0.12356110662221909
1782811360913625900,0.4226259765625,0.08746664971113205,-0.06175006926059723,0.09538301825523376
1782811360923697000,0.43269677734375,0.08774921298027039,-0.07301497459411621,0.07526896148920059
1782811360933769000,0.44276904296875,0.09648805856704712,-0.0709192082285881,0.04986828938126564
1782811360943840000,0.452840087890625,0.10186764597892761,-0.0698065385222435,0.033709026873111725
1782811360953911000,0.4629111328125,0.09655401855707169,-0.07496277987957001,0.017904069274663925
1782811360963983000,0.472983154296875,0.08811499178409576,-0.08352857083082199,0.019961627200245857
1782811360974054100,0.48305419921875,0.08098037540912628,-0.09182452410459518,0.027947336435317993
1782811360984125200,0.493125244140625,0.07097780704498291,-0.09022769331932068,0.03276259824633598
1782811360994197200,0.503197265625,0.07318834215402603,-0.07202402502298355,0.03287528455257416
1782811361004268000,0.51326806640625,0.07120136171579361,-0.05373156815767288,0.025093529373407364
1782811361014339800,0.52333984375,0.06314854323863983,-0.050797417759895325,0.006006093695759773
1782811361024411000,0.533410888671875,0.059541553258895874,-0.06159333884716034,-0.01567869447171688
1782811361034482000,0.54348193359375,0.05737806111574173,-0.06550943106412888,-0.029331905767321587
1782811361044554000,0.553553955078125,0.056451279670000076,-0.049151770770549774,-0.03476208820939064
1782811361054625000,0.563625,0.05631014332175255,-0.035218968987464905,-0.033067476004362106
1782811361064696000,0.573696044921875,0.0517398938536644,-0.03466077148914337,-0.03499586880207062
1782811361074768100,0.58376806640625,0.03853096812963486,-0.05406314507126808,-0.036013830453157425
1782811361084839200,0.593839111328125,0.027019718661904335,-0.06002383306622505,-0.044807322323322296
1782811361094911000,0.603910888671875,0.01888328418135643,-0.05234292894601822,-0.051018860191106796
1782811361104982000,0.61398193359375,0.011757465079426765,-0.04240880906581879,-0.06273144483566284
1782811361115053000,0.624052978515625,0.009984113276004791,-0.025602251291275024,-0.07287251949310303
1782811361125124900,0.634124755859375,0.00814333651214838,-0.003620786126703024,-0.07336653769016266
1782811361135195400,0.6441953125,0.002927964087575674,0.008254822343587875,-0.07678869366645813
1782811361145266400,0.654266357421875,-0.005229830741882324,0.006259582005441189,-0.07821428030729294
1782811361155338500,0.66433837890625,-0.013607222586870193,0.0015161202754825354,-0.0757199302315712
1782811361165409500,0.674409423828125,-0.014084727503359318,0.007078132592141628,-0.07350604236125946
1782811361175480300,0.684480224609375,-0.010331334546208382,0.012779146432876587,-0.08310440927743912
1782811361185552400,0.694552490234375,-0.002037984784692526,0.023775871843099594,-0.08951304107904434
1782811361195623400,0.70462353515625,0.008097872138023376,0.04069363698363304,-0.09164397418498993
1782811361205695500,0.714695556640625,0.016162190586328506,0.05507790297269821,-0.09334226697683334
1782811361215766500,0.7247666015625,0.025770314037799835,0.05006575956940651,-0.10095691680908203
1782811361225837600,0.734837646484375,0.03603333979845047,0.028379105031490326,-0.12339511513710022
1782811361235909400,0.744909423828125,0.04114958271384239,0.012675657868385315,-0.1461087167263031
1782811361245980400,0.75498046875,0.04515950381755829,0.012987780384719372,-0.1563781201839447
1782811361256051500,0.765051513671875,0.04437201842665672,0.0028485250659286976,-0.1616964191198349
1782811361266123500,0.77512353515625,0.04724423959851265,-0.02151806652545929,-0.1646900773048401
1782811361276194600,0.785194580078125,0.05201711133122444,-0.046042200177907944,-0.1691918522119522
1782811361286266600,0.7952666015625,0.0579540953040123,-0.04921029508113861,-0.18542754650115967
1782811361296337400,0.80533740234375,0.059223659336566925,-0.04745239391922951,-0.18680819869041443
1782811361306408400,0.815408447265625,0.05972273647785187,-0.04415912926197052,-0.18316952884197235
1782811361316480500,0.82548046875,0.0546535886824131,-0.045919571071863174,-0.17054469883441925
1782811361326551600,0.835551513671875,0.05510925501585007,-0.04865064471960068,-0.16614675521850586
1782811361336622600,0.84562255859375,0.057143475860357285,-0.023488806560635567,-0.16788427531719208
1782811361346694400,0.8556943359375,0.05878584831953049,0.015470044687390327,-0.16904939711093903
1782811361356765400,0.865765380859375,0.05902396887540817,0.03851912170648575,-0.17619021236896515
1782811361366837500,0.87583740234375,0.05808413773775101,0.03159863129258156,-0.17560245096683502
1782811361376908500,0.885908447265625,0.06253241747617722,0.02029217965900898,-0.17144738137722015
1782811361386979300,0.895979248046875,0.0831570029258728,0.010421440936625004,-0.17441387474536896
1782811361397051600,0.9060517578125,0.10299960523843765,-0.0030268847476691008,-0.1845659613609314
1782811361407122400,0.916122314453125,0.11617213487625122,-0.018632210791110992,-0.21004709601402283
1782811361417193500,0.926193359375,0.12254031747579575,-0.040696822106838226,-0.24804861843585968
1782811361427265300,0.936265380859375,0.12004786729812622,-0.057292576879262924,-0.29550960659980774
1782811361437336300,0.94633642578125,0.10847266018390656,-0.06666731834411621,-0.33804211020469666
1782811361447407400,0.956407470703125,0.08723048865795135,-0.06574825942516327,-0.36889323592185974
1782811361457479400,0.9664794921875,0.06825705617666245,-0.053228139877319336,-0.3834397494792938
1782811361467550500,0.976550537109375,0.06027849018573761,-0.023011913523077965,-0.3745860755443573
1782811361477622500,0.98662255859375,0.060413096100091934,0.0055146957747638226,-0.34339720010757446
1782811361487693600,0.996693603515625,0.07358375191688538,0.016511419788002968,-0.3049531579017639
1782811361497764400,1.006764404296875,0.10183776170015335,0.0362025685608387,-0.2553592324256897
1782811361507836400,1.01683642578125,0.13635073602199554,0.055994912981987,-0.2011902779340744
1782811361517907500,1.026907470703125,0.1714116483926773,0.07275044173002243,-0.1376364678144455
1782811361527978500,1.036978515625,0.20740613341331482,0.07393474876880646,-0.07806820422410965
1782811361538050300,1.04705029296875,0.23277023434638977,0.05278893560171127,-0.04153691604733467
1782811361548121300,1.057121337890625,0.2511439025402069,0.005391326732933521,-0.021813545376062393
1782811361558193400,1.067193359375,0.2626776099205017,-0.022401131689548492,-0.017239885404706
1782811361568264400,1.077264404296875,0.2743973731994629,-0.03308546543121338,-0.018148822709918022
1782811361578335500,1.08733544921875,0.28408536314964294,-0.06451443582773209,-0.034407272934913635
1782811361588407600,1.097407470703125,0.2854613959789276,-0.0901620090007782,-0.06125832721590996
1782811361598478600,1.107478515625,0.28007611632347107,-0.10433899611234665,-0.09358076006174088
1782811361608549400,1.11754931640625,0.27521368861198425,-0.11156468093395233,-0.12278445065021515
1782811361618621400,1.127621337890625,0.2568895220756531,-0.11907286196947098,-0.146207794547081
1782811361628692500,1.1376923828125,0.2430749237537384,-0.11592953652143478,-0.1595102846622467
1782811361638763500,1.147763427734375,0.2279311716556549,-0.10300978273153305,-0.1576157957315445
1782811361648835300,1.15783544921875,0.2188548445701599,-0.09046576172113419,-0.1511954516172409
1782811361658906400,1.16790625,0.2131909728050232,-0.09015149623155594,-0.1409144401550293
1782811361668978400,1.177978515625,0.2068619728088379,-0.10015379637479782,-0.1308535486459732
1782811361679049500,1.188049560546875,0.1973251849412918,-0.10730491578578949,-0.1223551407456398
1782811361689120500,1.19812060546875,0.18297022581100464,-0.10991694033145905,-0.11805999279022217
1782811361699192600,1.208192626953125,0.16635189950466156,-0.09001097083091736,-0.10075999051332474
1782811361709263600,1.218263671875,0.15290479362010956,-0.036987435072660446,-0.0803079754114151
1782811361719334400,1.22833447265625,0.13681313395500183,0.006348703056573868,-0.06724461168050766
1782811361729406500,1.238406494140625,0.12139396369457245,0.009269125759601593,-0.06403417140245438
1782811361739477500,1.2484775390625,0.10021025687456131,0.008979855105280876,-0.06557808071374893
1782811361749549300,1.25854931640625,0.09107295423746109,0.025944191962480545,-0.054422371089458466
1782811361759620400,1.268620361328125,0.08427691459655762,0.03517194464802742,-0.044499851763248444
1782811361769691400,1.27869140625,0.08628173917531967,0.008964309468865395,-0.04274483025074005
1782811361779763500,1.288763427734375,0.09206949174404144,-0.04248666390776634,-0.04762687906622887
1782811361789834500,1.29883447265625,0.10252320021390915,-0.09959762543439865,-0.05209885910153389
1782811361799905500,1.308905517578125,0.1124684065580368,-0.14323534071445465,-0.04401801526546478
1782811361809977600,1.3189775390625,0.11878462135791779,-0.17373386025428772,-0.03483756631612778
1782811361820048600,1.329048583984375,0.1224687397480011,-0.2059200555086136,-0.021877238526940346
1782811361830120400,1.339120361328125,0.11847426742315292,-0.21913465857505798,-0.011891983449459076
1782811361840191500,1.34919140625,0.10865279287099838,-0.20702047646045685,0.009545930661261082
1782811361850262500,1.359262451171875,0.0945846438407898,-0.17733076214790344,0.021879829466342926
1782811361860334300,1.369334228515625,0.08937618136405945,-0.14782196283340454,0.038031283766031265
1782811361870405400,1.3794052734375,0.08099867403507233,-0.11379394680261612,0.05912698060274124
1782811361880476400,1.389476318359375,0.07700659334659576,-0.08089645206928253,0.0863221138715744
1782811361890548500,1.399548583984375,0.07851394265890121,-0.058822572231292725,0.1148642748594284
1782811361900619500,1.40961962890625,0.08435388654470444,-0.05329194664955139,0.13971716165542603
1782811361910690600,1.419690673828125,0.08796299993991852,-0.06393074244260788,0.1569659262895584
1782811361920762600,1.4297626953125,0.09061440080404282,-0.10004442185163498,0.1598653495311737
1782811361930833400,1.43983349609375,0.0878329947590828,-0.13545382022857666,0.1638113409280777
1782811361940905500,1.449905517578125,0.0795547366142273,-0.13139447569847107,0.17804019153118134
1782811361950976300,1.459976318359375,0.051192596554756165,-0.09129100292921066,0.20391519367694855
1782811361961047300,1.47004736328125,0.005358078517019749,-0.04891085624694824,0.223442941904068
1782811361971119400,1.480119384765625,-0.06738349795341492,-0.015253028832376003,0.21341320872306824
1782811361981190400,1.4901904296875,-0.15887890756130219,-0.009172460995614529,0.16541507840156555
1782811361991261400,1.500261474609375,-0.2515135109424591,-0.023098930716514587,0.09125775098800659
1782811362001333500,1.51033349609375,-0.3200873136520386,-0.022013504058122635,0.01053785253316164
1782811362011404500,1.520404541015625,-0.36477595567703247,-0.008391434326767921,-0.05506965517997742
1782811362021475600,1.5304755859375,-0.38513168692588806,0.016689041629433632,-0.10390400141477585
1782811362031547600,1.540547607421875,-0.3811281621456146,0.056658029556274414,-0.12127366662025452
1782811362041618400,1.550618408203125,-0.36183515191078186,0.06433812528848648,-0.1092602014541626
1782811362051690200,1.560690185546875,-0.3377806842327118,0.04699455574154854,-0.07223054021596909
1782811362061761300,1.57076123046875,-0.32120081782341003,0.013060517609119415,-0.01484901737421751
1782811362071832300,1.580832275390625,-0.3141288161277771,-0.05377497151494026,0.043881673365831375
1782811362081904400,1.590904296875,-0.32468193769454956,-0.14654327929019928,0.09044976532459259
1782811362091975400,1.600975341796875,-0.35753974318504333,-0.21570079028606415,0.11602064222097397
1782811362102046500,1.61104638671875,-0.40952327847480774,-0.25013265013694763,0.12534379959106445
1782811362112118500,1.621118408203125,-0.4563443064689636,-0.25220245122909546,0.10926150530576706
1782811362122189600,1.631189453125,-0.47410857677459717,-0.23969614505767822,0.0834130197763443
1782811362132260600,1.641260498046875,-0.4595959484577179,-0.22709645330905914,0.06395570188760757
1782811362142332400,1.65133251953125,-0.4187990128993988,-0.2025832235813141,0.0760737955570221
1782811362152403500,1.661403564453125,-0.3734011650085449,-0.17021916806697845,0.11425527185201645
1782811362162475300,1.671475341796875,-0.3349088728427887,-0.13957607746124268,0.18373998999595642
1782811362172546300,1.68154638671875,-0.30520501732826233,-0.11752990633249283,0.2689979076385498
1782811362182617000,1.6916171875,-0.27797770500183105,-0.10628572106361389,0.35039085149765015
1782811362192689200,1.701689208984375,-0.26549094915390015,-0.0839679017663002,0.4229465425014496
1782811362202760200,1.71176025390625,-0.26362618803977966,-0.04521454498171806,0.4741288423538208
1782811362212831200,1.721831298828125,-0.271746963262558,0.007079018279910088,0.5057362914085388
1782811362222903300,1.7319033203125,-0.2924167215824127,0.05113302916288376,0.5015515089035034
1782811362232974300,1.741974365234375,-0.30920183658599854,0.08170425146818161,0.46860525012016296
1782811362243046400,1.75204638671875,-0.3205000162124634,0.08902300894260406,0.40848422050476074
1782811362253117400,1.762117431640625,-0.3399621248245239,0.0674964115023613,0.31746456027030945
1782811362263188500,1.7721884765625,-0.36114490032196045,0.026745015755295753,0.2188904583454132
1782811362273260300,1.78226025390625,-0.3926932215690613,-0.01473824493587017,0.1182301715016365
1782811362283331300,1.792331298828125,-0.41659367084503174,-0.06403828412294388,0.025714514777064323
1782811362293402000,1.802402099609375,-0.4353194236755371,-0.11713293194770813,-0.053461797535419464
1782811362303474200,1.81247412109375,-0.43728107213974,-0.15853607654571533,-0.1103816106915474
1782811362313545200,1.822545166015625,-0.42330268025398254,-0.16809841990470886,-0.14073100686073303
1782811362323616300,1.8326162109375,-0.40181517601013184,-0.15981778502464294,-0.15047147870063782
1782811362333688300,1.842688232421875,-0.3809407651424408,-0.1484178602695465,-0.15398818254470825
1782811362343759400,1.85275927734375,-0.3611111044883728,-0.12735362350940704,-0.14808058738708496
1782811362353831200,1.8628310546875,-0.3427051901817322,-0.08295899629592896,-0.131567120552063
1782811362363902200,1.872902099609375,-0.32524245977401733,-0.011243374086916447,-0.10585665702819824
1782811362373973200,1.88297314453125,-0.31151628494262695,0.07208560407161713,-0.08501795679330826
1782811362384045300,1.89304541015625,-0.2987864911556244,0.13370852172374725,-0.07847603410482407
1782811362394116400,1.903116455078125,-0.28967049717903137,0.16543875634670258,-0.0873614028096199
1782811362404187100,1.913187255859375,-0.2794837951660156,0.17272794246673584,-0.09179314225912094
1782811362414259200,1.92325927734375,-0.26088666915893555,0.1671355664730072,-0.09191963821649551
1782811362424330200,1.933330322265625,-0.2468794286251068,0.14083518087863922,-0.09219808131456375
1782811362434401300,1.9434013671875,-0.2281678020954132,0.09931996464729309,-0.09093814343214035
1782811362444473300,1.953473388671875,-0.20467397570610046,0.061962664127349854,-0.09261728823184967
1782811362454544400,1.96354443359375,-0.17965224385261536,0.01048695482313633,-0.09271848201751709
1782811362464616200,1.9736162109375,-0.15483425557613373,-0.034490905702114105,-0.10096868872642517
1782811362474687200,1.983687255859375,-0.14064359664916992,-0.07086355984210968,-0.10511603206396103
1782811362484758300,1.99375830078125,-0.12569302320480347,-0.09367071837186813,-0.10629177838563919
1782811362494830300,2.003830322265625,-0.10989009588956833,-0.11369209736585617,-0.0961049273610115
1782811362504901000,2.013901123046875,-0.09645254164934158,-0.11418676376342773,-0.0737873986363411
1782811362514972200,2.02397216796875,-0.083411306142807,-0.09691189974546432,-0.049216803163290024
1782811362525044200,2.034044189453125,-0.06790969520807266,-0.0707734003663063,-0.031629327684640884
1782811362535115300,2.044115234375,-0.045486681163311005,-0.04684968665242195,-0.022296015173196793
1782811362545186300,2.054186279296875,-0.02216910570859909,-0.02175365574657917,-0.01945495419204235
1782811362555258400,2.06425830078125,-0.0014318700414150953,0.007296903990209103,-0.02160732075572014
1782811362565329400,2.074329345703125,0.02805694192647934,0.02829543501138687,-0.026930704712867737
1782811362575401200,2.084401123046875,0.06348656862974167,0.04241924360394478,-0.015032232739031315
1782811362585472300,2.09447216796875,0.10488104820251465,0.03667191416025162,0.005147081334143877
1782811362595543300,2.104543212890625,0.16022153198719025,0.008912988007068634,0.03317951411008835
1782811362605615400,2.114615478515625,0.22745825350284576,-0.032135337591171265,0.06384901702404022
1782811362615686100,2.12468603515625,0.3016102612018585,-0.0875978022813797,0.08480782806873322
1782811362625757200,2.134757080078125,0.38009893894195557,-0.14883160591125488,0.09080154448747635
1782811362635829200,2.144829345703125,0.4527813792228699,-0.21853505074977875,0.07259537279605865
1782811362645900300,2.154900390625,0.49873751401901245,-0.32210007309913635,0.05455297976732254
1782811362655971300,2.164971435546875,0.4775313138961792,-0.42154809832572937,0.059149060398340225
1782811362666043400,2.17504345703125,0.40840944647789,-0.41976022720336914,0.12267374247312546
1782811362676114400,2.185114501953125,0.34607017040252686,-0.33382800221443176,0.22486482560634613
1782811362686186200,2.195186279296875,0.32186296582221985,-0.25174200534820557,0.31846296787261963
1782811362696257300,2.20525732421875,0.32067573070526123,-0.2516554594039917,0.36716553568840027
1782811362706328300,2.215328369140625,0.3332138657569885,-0.31619176268577576,0.3837958872318268
1782811362716400400,2.225400390625,0.3397758901119232,-0.38614848256111145,0.38375964760780334
1782811362726471200,2.23547119140625,0.3405856192111969,-0.4208037257194519,0.38604679703712463
1782811362736542200,2.245542236328125,0.3338504731655121,-0.40366148948669434,0.38003015518188477
1782811362746614300,2.2556142578125,0.3277656137943268,-0.3343542218208313,0.37907835841178894
1782811362756685300,2.265685302734375,0.3191870450973511,-0.24098031222820282,0.3731094002723694
1782811362766756400,2.27575634765625,0.3110111355781555,-0.1372775435447693,0.36184367537498474
1782811362776828400,2.285828369140625,0.3018384277820587,-0.02869807556271553,0.3507084846496582
1782811362786899500,2.2958994140625,0.2961326837539673,0.05225718766450882,0.3250957727432251
1782811362796971300,2.30597119140625,0.29045191407203674,0.0904085636138916,0.2942896783351898
1782811362807042300,2.316042236328125,0.2913936674594879,0.10729867964982986,0.27129247784614563
1782811362817113300,2.32611328125,0.29902467131614685,0.12812966108322144,0.26991933584213257
1782811362827185400,2.336185302734375,0.3050763010978699,0.16953158378601074,0.29689881205558777
1782811362837256200,2.346256103515625,0.31974124908447266,0.2496197670698166,0.3568803668022156
1782811362847327200,2.3563271484375,0.34744852781295776,0.3561270236968994,0.43139028549194336
1782811362857399300,2.3663994140625,0.3731969892978668,0.44275927543640137,0.5006893873214722
1782811362867470300,2.37647021484375,0.4069841802120209,0.4912146031856537,0.5415612459182739
1782811362877541400,2.386541259765625,0.456137090921402,0.5008560419082642,0.5514993667602539
1782811362887613200,2.39661328125,0.5120014548301697,0.4616442620754242,0.5350834727287292
1782811362897684200,2.406684326171875,0.5649315118789673,0.40113937854766846,0.49783673882484436
1782811362907756300,2.41675634765625,0.6057078838348389,0.3310495615005493,0.449068546295166
1782811362917827300,2.426827392578125,0.6296595335006714,0.2600637972354889,0.388696551322937
1782811362927898400,2.4368984375,0.639453649520874,0.19942061603069305,0.321442186832428
1782811362937970400,2.446970458984375,0.6516565084457397,0.15431998670101166,0.24416019022464752
1782811362948041200,2.457041259765625,0.661462664604187,0.12118455767631531,0.1674228459596634
1782811362958112300,2.4671123046875,0.6648256778717041,0.09041332453489304,0.0889594629406929
1782811362968184300,2.477184326171875,0.6622834205627441,0.06382759660482407,0.009150335565209389
1782811362978255400,2.48725537109375,0.6519050598144531,0.03590808063745499,-0.06503814458847046
1782811362988326400,2.497326416015625,0.6446075439453125,0.02137882262468338,-0.12759529054164886
1782811362998398200,2.507398193359375,0.6340335011482239,0.023978866636753082,-0.1750679910182953
1782811363008469200,2.51746923828125,0.625909149646759,0.030789751559495926,-0.2130502313375473
1782811363018541300,2.527541259765625,0.6061671376228333,0.04012013599276543,-0.23061245679855347
1782811363028612400,2.5376123046875,0.5812942385673523,0.06363482028245926,-0.2345813661813736
1782811363038683100,2.54768310546875,0.5511029958724976,0.1159672662615776,-0.22637084126472473
1782811363048755500,2.55775537109375,0.5271354913711548,0.18256071209907532,-0.20867358148097992
1782811363058826200,2.567826171875,0.5040275454521179,0.2535456717014313,-0.1794230192899704
1782811363068897300,2.577897216796875,0.4792500138282776,0.32419002056121826,-0.1434333324432373
1782811363078969300,2.58796923828125,0.4524375796318054,0.38117846846580505,-0.11383069306612015
1782811363089040400,2.598040283203125,0.43182173371315,0.42087680101394653,-0.09483971446752548
1782811363099111400,2.608111328125,0.4163348972797394,0.4477131962776184,-0.09358483552932739
1782811363109183200,2.618183349609375,0.39788559079170227,0.4462694823741913,-0.09713748842477798
1782811363119254300,2.628254150390625,0.3752220869064331,0.43350815773010254,-0.10463162511587143
1782811363129326300,2.638326416015625,0.35533034801483154,0.40836700797080994,-0.11369539797306061
1782811363139397000,2.648397216796875,0.3367934226989746,0.3676656484603882,-0.12340901046991348
1782811363149468200,2.65846826171875,0.32348886132240295,0.3306356370449066,-0.13908080756664276
1782811363159540200,2.668540283203125,0.3071138858795166,0.30075204372406006,-0.16180290281772614
1782811363169611000,2.678611083984375,0.28496935963630676,0.2698574662208557,-0.18917401134967804
1782811363179682000,2.68868212890625,0.26454344391822815,0.25004541873931885,-0.20308129489421844
1782811363189754000,2.698754150390625,0.24538590013980865,0.24510954320430756,-0.20328235626220703
1782811363199825200,2.7088251953125,0.2258705198764801,0.2283819615840912,-0.1911655068397522
1782811363209897000,2.71889697265625,0.20876477658748627,0.18083833158016205,-0.18511396646499634
1782811363219968000,2.728968017578125,0.19286730885505676,0.10302875190973282,-0.18063372373580933
1782811363230039000,2.7390390625,0.18164095282554626,0.024674560874700546,-0.16558293998241425
1782811363240111000,2.749111083984375,0.1757337898015976,-0.029437942430377007,-0.1452113538980484
1782811363250182100,2.75918212890625,0.1621612012386322,-0.07001481205224991,-0.11765133589506149
1782811363260253200,2.769253173828125,0.1365189552307129,-0.10867725312709808,-0.09832903742790222
1782811363270325200,2.7793251953125,0.10268893837928772,-0.15036383271217346,-0.08027755469083786
1782811363280396000,2.78939599609375,0.0691903680562973,-0.17287473380565643,-0.0761541873216629
1782811363290467000,2.799467041015625,0.04433033615350723,-0.17999480664730072,-0.07393500208854675
1782811363300539100,2.8095390625,0.04005809500813484,-0.1783263385295868,-0.06471966952085495
1782811363310610200,2.819610107421875,0.038974881172180176,-0.16426320374011993,-0.03617722913622856
1782811363320681200,2.82968115234375,0.02890946716070175,-0.1306019127368927,0.00829862616956234
1782811363330753000,2.8397529296875,-0.014518956653773785,-0.06802409887313843,0.03837908059358597
1782811363340824000,2.849823974609375,-0.09068749099969864,0.016964560374617577,0.03147909790277481
1782811363350896000,2.859896240234375,-0.17396695911884308,0.06077131628990173,-0.008198375813663006
1782811363360967200,2.86996728515625,-0.2612438201904297,0.04499554634094238,-0.0691235139966011
1782811363371038200,2.8800380859375,-0.3526051640510559,0.0013458813773468137,-0.12419507652521133
1782811363381110300,2.8901103515625,-0.4320467412471771,-0.030538281425833702,-0.16413289308547974
1782811363391181000,2.90018115234375,-0.49092182517051697,-0.027618199586868286,-0.1812882125377655
1782811363401252000,2.910252197265625,-0.529296875,0.004342928528785706,-0.18192577362060547
1782811363411324000,2.920323974609375,-0.5521289706230164,0.04756161570549011,-0.16048189997673035
1782811363421395000,2.93039501953125,-0.5627800226211548,0.08454626798629761,-0.12425970286130905
1782811363431466000,2.940466064453125,-0.575280487537384,0.10992196202278137,-0.07995454967021942
1782811363441538000,2.9505380859375,-0.5960997343063354,0.12925730645656586,-0.023222558200359344
1782811363451609000,2.960609130859375,-0.6225791573524475,0.16115042567253113,0.03472840040922165
1782811363461681200,2.97068115234375,-0.64719158411026,0.19791217148303986,0.0927317813038826
1782811363471752200,2.980752197265625,-0.6794399619102478,0.2303979992866516,0.1434445083141327
1782811363481823000,2.990822998046875,-0.7192789912223816,0.26363691687583923,0.1835666298866272
1782811363491895300,3.000895263671875,-0.7626780867576599,0.286403626203537,0.1972898691892624
1782811363501966000,3.010966064453125,-0.7974608540534973,0.2919411361217499,0.17408815026283264
1782811363512037000,3.021037109375,-0.8144015669822693,0.27999353408813477,0.12688329815864563
1782811363522109000,3.03110888671875,-0.8166032433509827,0.2706058919429779,0.06196316331624985
1782811363532180000,3.041179931640625,-0.8014460206031799,0.25677257776260376,-0.012470864690840244
1782811363542251000,3.0512509765625,-0.784192681312561,0.2124117910861969,-0.0984875038266182
1782811363552323000,3.061322998046875,-0.7567682266235352,0.15031564235687256,-0.18078351020812988
1782811363562394000,3.07139404296875,-0.7247341275215149,0.09643163532018661,-0.24275712668895721
1782811363572466200,3.081466064453125,-0.6856763958930969,0.04854489862918854,-0.28476062417030334
1782811363582537200,3.091537109375,-0.6359456181526184,-0.0058328574523329735,-0.30230313539505005
1782811363592608000,3.10160791015625,-0.5748729109764099,-0.05225137621164322,-0.2850321829319
1782811363602680000,3.11168017578125,-0.5137805342674255,-0.08986053615808487,-0.25428465008735657
1782811363612751000,3.121751220703125,-0.45630255341529846,-0.10521921515464783,-0.20323516428470612
1782811363622822100,3.131822265625,-0.4014017581939697,-0.08935663104057312,-0.14292840659618378
1782811363632894000,3.14189404296875,-0.33975836634635925,-0.06379667669534683,-0.07014475762844086
1782811363642965000,3.151965087890625,-0.2744413912296295,-0.017712004482746124,0.011632135137915611
1782811363653036000,3.1620361328125,-0.22412653267383575,0.03275006264448166,0.09730727225542068
1782811363663108000,3.172108154296875,-0.19440779089927673,0.055712901055812836,0.17384013533592224
1782811363673179100,3.18217919921875,-0.17983059585094452,0.06571143865585327,0.23934563994407654
1782811363683251200,3.192251220703125,-0.17356018722057343,0.07360371202230453,0.28813955187797546
1782811363693322200,3.202322265625,-0.166077122092247,0.06581572443246841,0.3111895024776459
1782811363703393000,3.21239306640625,-0.16901938617229462,0.039331115782260895,0.300383985042572
1782811363713465000,3.222465087890625,-0.17695890367031097,-0.01105984766036272,0.2597675919532776
1782811363723536100,3.2325361328125,-0.19092798233032227,-0.054874442517757416,0.2104882001876831
1782811363733607200,3.242607177734375,-0.20954743027687073,-0.095197394490242,0.162625253200531
1782811363743679000,3.252678955078125,-0.22196894884109497,-0.14148660004138947,0.1219063252210617
1782811363753750000,3.26275,-0.23239518702030182,-0.20380859076976776,0.09709198772907257
1782811363763821000,3.272821044921875,-0.23719073832035065,-0.26760539412498474,0.0901469960808754
1782811363773893000,3.28289306640625,-0.24120831489562988,-0.3121010661125183,0.10164956003427505
1782811363783964200,3.292964111328125,-0.22979506850242615,-0.3248338997364044,0.14202681183815002
1782811363794036200,3.3030361328125,-0.21395938098430634,-0.2992907166481018,0.1971217542886734
1782811363804107300,3.313107177734375,-0.2022089809179306,-0.2688790261745453,0.23749607801437378
1782811363814178000,3.323177978515625,-0.1870514154434204,-0.2273346185684204,0.2536373436450958
1782811363824249900,3.333249755859375,-0.1841759979724884,-0.18498477339744568,0.25075820088386536
1782811363834321000,3.34332080078125,-0.18152712285518646,-0.13329890370368958,0.2336939424276352
1782811363844392000,3.353391845703125,-0.17177675664424896,-0.06708632409572601,0.2143910825252533
1782811363854464000,3.363464111328125,-0.15412773191928864,-0.007117989473044872,0.18891414999961853
1782811363864535000,3.37353515625,-0.13176676630973816,0.01903372071683407,0.16581761837005615
1782811363874606000,3.383606201171875,-0.10302866250276566,0.029364844784140587,0.1518610417842865
1782811363884678100,3.39367822265625,-0.06684668362140656,0.03691171109676361,0.1654255986213684
1782811363894749200,3.403749267578125,-0.019117485731840134,0.06684088706970215,0.20840463042259216
1782811363904821200,3.4138212890625,0.019984111189842224,0.12131984531879425,0.26966825127601624
1782811363914892300,3.423892333984375,0.04939929395914078,0.16362091898918152,0.3163613975048065
1782811363924963000,3.433963134765625,0.07882189750671387,0.13257166743278503,0.3246811032295227
1782811363935035000,3.444034912109375,0.1173405647277832,0.0447126068174839,0.29868003726005554
1782811363945106000,3.45410595703125,0.1581902652978897,-0.07399620115756989,0.26585817337036133
1782811363955177000,3.464177001953125,0.19270265102386475,-0.16664986312389374,0.2348148077726364
1782811363965249000,3.4742490234375,0.21095383167266846,-0.2195434421300888,0.2162906527519226
1782811363975320000,3.484320068359375,0.21598400175571442,-0.2596905827522278,0.193716362118721
1782811363985391000,3.49439111328125,0.2197992503643036,-0.284819632768631,0.1716155856847763
1782811363995463200,3.504463134765625,0.21995067596435547,-0.2680155336856842,0.1552717238664627
1782811364005534200,3.5145341796875,0.21018086373806,-0.18635447323322296,0.1486617624759674
1782811364015605000,3.52460498046875,0.20410141348838806,-0.06856106966733932,0.15223978459835052
1782811364025677000,3.534677001953125,0.21392713487148285,0.03833102062344551,0.16840437054634094
1782811364035748000,3.544748046875,0.2414691299200058,0.11319849640130997,0.1930820643901825
1782811364045820000,3.55481982421875,0.27636638283729553,0.14999672770500183,0.22386661171913147
1782811364055891000,3.564890869140625,0.32242363691329956,0.16991084814071655,0.2695978283882141
1782811364065962000,3.5749619140625,0.37512651085853577,0.21031206846237183,0.34397509694099426
1782811364076034000,3.585033935546875,0.4244322180747986,0.26365557312965393,0.42024514079093933
1782811364086105000,3.59510498046875,0.468181848526001,0.286548912525177,0.4796602725982666
1782811364096176000,3.605176025390625,0.5059160590171814,0.27019792795181274,0.5023515224456787
1782811364106248200,3.615248291015625,0.5380577445030212,0.22617587447166443,0.49523258209228516
1782811364116319200,3.6253193359375,0.551975667476654,0.1745690107345581,0.4571021497249603
1782811364126390000,3.63539013671875,0.5598836541175842,0.11349208652973175,0.39758527278900146
1782811364136462000,3.645462158203125,0.5562927722930908,0.03536852076649666,0.3045954704284668
1782811364146533000,3.655533203125,0.5521875023841858,-0.06995310634374619,0.1860576570034027
1782811364156605000,3.66560498046875,0.5497280359268188,-0.1986602246761322,0.05912075564265251
1782811364166676000,3.675676025390625,0.5373939275741577,-0.31294339895248413,-0.05636988952755928
1782811364176747000,3.6857470703125,0.5099633932113647,-0.39103376865386963,-0.15151533484458923
1782811364186819000,3.695819091796875,0.4782898724079132,-0.42806342244148254,-0.20848488807678223
1782811364196890000,3.70589013671875,0.4351053237915039,-0.4086669683456421,-0.23723740875720978
1782811364206961200,3.715961181640625,0.38354653120040894,-0.33752408623695374,-0.2428116649389267
1782811364217033200,3.726033203125,0.3332381248474121,-0.23386918008327484,-0.22653765976428986
1782811364227104000,3.73610400390625,0.28383544087409973,-0.130989670753479,-0.1933320313692093
1782811364237175000,3.746175048828125,0.22014649212360382,-0.04902571812272072,-0.15401515364646912
1782811364247247000,3.7562470703125,0.16081099212169647,0.02901209145784378,-0.1132727861404419
1782811364257318100,3.766318115234375,0.12045972794294357,0.07948842644691467,-0.08213087916374207
1782811364267389200,3.77638916015625,0.08951353281736374,0.10371413826942444,-0.07909860461950302
1782811364277461000,3.7864609375,0.07142922282218933,0.08983918279409409,-0.09090417623519897
1782811364287532000,3.796531982421875,0.04696861654520035,0.05044197291135788,-0.11319297552108765
1782811364297604000,3.80660400390625,0.012997680343687534,0.007060004398226738,-0.14050540328025818
1782811364307675100,3.816675048828125,-0.018321894109249115,-0.038148753345012665,-0.15616878867149353
1782811364317746000,3.826745849609375,-0.03735296055674553,-0.09514687210321426,-0.17430123686790466
1782811364327818200,3.836818359375,-0.05274603143334389,-0.1542341560125351,-0.18168778717517853
1782811364337889000,3.846888916015625,-0.06391134858131409,-0.19115741550922394,-0.18449726700782776
1782811364347960000,3.8569599609375,-0.07646629214286804,-0.21821832656860352,-0.17049941420555115
1782811364358032000,3.867031982421875,-0.10028015822172165,-0.2117212563753128,-0.14627625048160553
1782811364368103000,3.87710302734375,-0.13597290217876434,-0.1761334240436554,-0.1268242597579956
1782811364378174000,3.887174072265625,-0.16370239853858948,-0.14471960067749023,-0.11829320341348648
1782811364388246000,3.89724609375,-0.1781710833311081,-0.11968535929918289,-0.10817239433526993
1782811364398317000,3.907317138671875,-0.1881008744239807,-0.09860642999410629,-0.0825045183300972
1782811364408389000,3.91738916015625,-0.1942373365163803,-0.09805409610271454,-0.059602923691272736
1782811364418460200,3.927460205078125,-0.19431787729263306,-0.15246795117855072,-0.03917066007852554
1782811364428531000,3.937531005859375,-0.18651321530342102,-0.2204640507698059,-0.020589523017406464
1782811364438603000,3.94760302734375,-0.17384406924247742,-0.2733013331890106,0.0027818779926747084
1782811364448674000,3.957674072265625,-0.17156094312667847,-0.3046376705169678,0.014781815931200981
1782811364458745000,3.9677451171875,-0.1737237125635147,-0.33128297328948975,0.018401745706796646
1782811364468817000,3.97781689453125,-0.17158493399620056,-0.36018091440200806,0.011452759616076946
1782811364478888000,3.987887939453125,-0.1697637438774109,-0.38401055335998535,0.005291897337883711
1782811364488959000,3.997958984375,-0.16172605752944946,-0.41609683632850647,0.0020865167025476694
1782811364499031000,4.008031005859375,-0.14878851175308228,-0.44732290506362915,0.011199863627552986
1782811364509102000,4.01810205078125,-0.11969002336263657,-0.4896474778652191,0.03196559473872185
1782811364519173000,4.028173095703125,-0.08501605689525604,-0.5082616806030273,0.07771807163953781
1782811364529245200,4.0382451171875,-0.04822954908013344,-0.49248620867729187,0.13651880621910095
1782811364539316000,4.04831591796875,-0.030327918007969856,-0.4258866012096405,0.20356664061546326
1782811364549388000,4.058387939453125,-0.04455985501408577,-0.3611302375793457,0.24639905989170074
1782811364559459000,4.068458984375,-0.08748280256986618,-0.31083425879478455,0.24285106360912323
1782811364569530000,4.078530029296875,-0.15009717643260956,-0.2775828242301941,0.1900925189256668
1782811364579602000,4.088601806640625,-0.21489854156970978,-0.24954073131084442,0.11357104778289795
1782811364589673000,4.0986728515625,-0.28804492950439453,-0.22451207041740417,0.041112031787633896
1782811364599744000,4.108743896484375,-0.37183839082717896,-0.20118284225463867,-0.021722983568906784
1782811364609816000,4.118816162109375,-0.44511768221855164,-0.1749139428138733,-0.06388987600803375
1782811364619887000,4.12888720703125,-0.502027153968811,-0.14570043981075287,-0.09850911796092987
1782811364629958100,4.138958251953125,-0.5405759215354919,-0.10903164744377136,-0.1377183049917221
1782811364640030200,4.1490302734375,-0.5570781230926514,-0.0429961271584034,-0.17027391493320465
1782811364650101000,4.15910107421875,-0.5676212906837463,0.020960217341780663,-0.1900806427001953
1782811364660173000,4.169173095703125,-0.5970845222473145,0.07634095847606659,-0.19073531031608582
1782811364670244000,4.179244140625,-0.631043016910553,0.1311672031879425,-0.17009954154491425
1782811364680315100,4.189315185546875,-0.6670771837234497,0.173765629529953,-0.13386847078800201
1782811364690387000,4.199386962890625,-0.6934188008308411,0.19896498322486877,-0.09779461473226547
1782811364700458000,4.2094580078125,-0.7005962133407593,0.19666649401187897,-0.07942863553762436
1782811364710529000,4.219529052734375,-0.6860018372535706,0.177183598279953,-0.0775151476264
1782811364720601000,4.22960107421875,-0.66472989320755,0.17062894999980927,-0.08166278153657913
1782811364730672000,4.239672119140625,-0.6412749290466309,0.17107956111431122,-0.08000309765338898
1782811364740743000,4.249742919921875,-0.6181278228759766,0.16939674317836761,-0.08386573940515518
1782811364750815200,4.259815185546875,-0.5944051742553711,0.15427637100219727,-0.09145575016736984
1782811364760886000,4.269885986328125,-0.5702418684959412,0.1324557363986969,-0.10150957852602005
1782811364770957000,4.27995703125,-0.5500590801239014,0.10276655107736588,-0.12561491131782532
1782811364781028900,4.29002880859375,-0.5313095450401306,0.06308617442846298,-0.16247136890888214
1782811364791100000,4.300099853515625,-0.5140780806541443,0.00801573134958744,-0.21027617156505585
1782811364801172000,4.310171875,-0.49595627188682556,-0.044169746339321136,-0.26040032505989075
1782811364811243000,4.320242919921875,-0.481992244720459,-0.07674100250005722,-0.3006579875946045
1782811364821314000,4.33031396484375,-0.46647146344184875,-0.09321778267621994,-0.32616880536079407
1782811364831386000,4.34038623046875,-0.45155829191207886,-0.10340756922960281,-0.33233773708343506
1782811364841457200,4.35045703125,-0.425843209028244,-0.08659451454877853,-0.301522433757782
1782811364851528000,4.36052783203125,-0.3941696882247925,-0.03299733251333237,-0.23377692699432373
1782811364861600000,4.37060009765625,-0.36078745126724243,0.028035365045070648,-0.14821124076843262
1782811364871671000,4.380671142578125,-0.3344312310218811,0.06883152574300766,-0.06045049801468849
1782811364881742000,4.3907421875,-0.3167096972465515,0.0895155817270279,0.019594555720686913
1782811364891814000,4.40081396484375,-0.2953077256679535,0.10600773990154266,0.07540189474821091
1782811364901885000,4.410885009765625,-0.2784411907196045,0.12345124781131744,0.10917626321315765
1782811364911956000,4.4209560546875,-0.2648867666721344,0.13804669678211212,0.11185460537672043
1782811364922028000,4.431028076171875,-0.2574343681335449,0.13825766742229462,0.10236543416976929
1782811364932099000,4.44109912109375,-0.25215944647789,0.126498743891716,0.07597004622220993
1782811364942171100,4.451171142578125,-0.24425673484802246,0.09461720287799835,0.04862356558442116
1782811364952242200,4.4612421875,-0.2429398000240326,0.04776474088430405,0.02066090516746044
1782811364962313000,4.47131298828125,-0.24801047146320343,-0.006781324744224548,-0.003357078181579709
1782811364972385000,4.481385009765625,-0.25270694494247437,-0.04077817499637604,-0.019937120378017426
1782811364982456000,4.4914560546875,-0.24896493554115295,-0.06906627118587494,-0.04136890918016434
1782811364992527000,4.501527099609375,-0.2453688681125641,-0.09659723192453384,-0.05944165214896202
1782811365002599000,4.511598876953125,-0.24487186968326569,-0.1077166497707367,-0.07329193502664566
1782811365012670000,4.521669921875,-0.23988217115402222,-0.10546575486660004,-0.07130841165781021
1782811365022741000,4.531740966796875,-0.23488856852054596,-0.11690060794353485,-0.06152123212814331
1782811365032813000,4.54181298828125,-0.23488616943359375,-0.13199912011623383,-0.0552699938416481
1782811365042884000,4.551884033203125,-0.2425965666770935,-0.12117622792720795,-0.04364587739109993
1782811365052956200,4.5619560546875,-0.2421097457408905,-0.08129805326461792,-0.03595839813351631
1782811365063027200,4.572027099609375,-0.23702742159366608,-0.027116119861602783,-0.03944236785173416
1782811365073098000,4.582097900390625,-0.23125796020030975,0.027317294850945473,-0.05184284597635269
1782811365083170000,4.592170166015625,-0.22137056291103363,0.0825781524181366,-0.06693190336227417
1782811365093241000,4.602240966796875,-0.20415642857551575,0.11305829882621765,-0.09323035180568695
1782811365103312100,4.61231201171875,-0.16895540058612823,0.11931031197309494,-0.11282825469970703
1782811365113384000,4.622384033203125,-0.11626529693603516,0.11679921299219131,-0.11131877452135086
1782811365123455000,4.632455078125,-0.059692442417144775,0.11722865700721741,-0.08610951155424118
1782811365133526000,4.642526123046875,-0.008390108123421669,0.16454504430294037,-0.037998974323272705
1782811365143598300,4.652598388671875,0.030995309352874756,0.22442224621772766,0.002625071909278631
1782811365153669000,4.662669189453125,0.05401434004306793,0.21564926207065582,0.0025646178983151913
1782811365163740200,4.672740234375,0.08169915527105331,0.09563243389129639,-0.0381198413670063
1782811365173812200,4.682812255859375,0.11616338789463043,-0.11176948994398117,-0.11371154338121414
1782811365183883300,4.69288330078125,0.13929349184036255,-0.3210309147834778,-0.19323374330997467
1782811365193955000,4.702955078125,0.144358828663826,-0.4644937813282013,-0.2549770176410675
1782811365204026000,4.713026123046875,0.1406680941581726,-0.5414313673973083,-0.28719863295555115
1782811365214097200,4.72309716796875,0.13843530416488647,-0.5293288826942444,-0.2835673987865448
1782811365224169200,4.733169189453125,0.13704724609851837,-0.4323022961616516,-0.24665184319019318
1782811365234240300,4.743240234375,0.1442207247018814,-0.26427894830703735,-0.20703306794166565
1782811365244311000,4.75331103515625,0.15996989607810974,-0.0902327299118042,-0.18177446722984314
1782811365254383000,4.763383056640625,0.18856903910636902,0.012351165525615215,-0.17587611079216003
1782811365264454100,4.7734541015625,0.22110342979431152,0.052040454000234604,-0.1654648333787918
1782811365274525200,4.783525146484375,0.24404922127723694,0.02109106257557869,-0.1438724547624588
1782811365284597200,4.79359716796875,0.26084715127944946,-0.02789691463112831,-0.10104241222143173
1782811365294668300,4.803668212890625,0.2751624286174774,-0.03848377987742424,-0.041186533868312836
1782811365304739300,4.8137392578125,0.2886391878128052,0.005938539747148752,0.030298907309770584
1782811365314811100,4.82381103515625,0.30976736545562744,0.07839728891849518,0.09774798899888992
1782811365324882200,4.833882080078125,0.34672462940216064,0.1563207507133484,0.14303366839885712
1782811365334954200,4.843954345703125,0.3880781829357147,0.18791994452476501,0.15499632060527802
1782811365345025300,4.854025390625,0.42695608735084534,0.1802670955657959,0.14652401208877563
1782811365355096000,4.864095947265625,0.45362338423728943,0.1573372781276703,0.13691027462482452
1782811365365168000,4.874168212890625,0.4698867201805115,0.1376122385263443,0.14464780688285828
1782811365375239200,4.8842392578125,0.48004719614982605,0.10594218224287033,0.16575655341148376
1782811365385310200,4.894310302734375,0.4919161796569824,0.07112542539834976,0.1878216564655304
1782811365395382300,4.90438232421875,0.49914851784706116,0.04502697288990021,0.202459454536438
1782811365405453300,4.914453369140625,0.49817782640457153,0.01908557489514351,0.19414246082305908
1782811365415524400,4.9245244140625,0.49224910140037537,-0.015435917302966118,0.17947296798229218
1782811365425596200,4.93459619140625,0.48164331912994385,-0.03110435977578163,0.16517765820026398
1782811365435667200,4.944667236328125,0.4646596312522888,-0.031263649463653564,0.14518316090106964
1782811365445738200,4.95473828125,0.4530121088027954,-0.01969008706510067,0.11632175743579865
1782811365455810300,4.964810302734375,0.4408494532108307,-0.0065287454053759575,0.08883154392242432
1782811365465881000,4.974881103515625,0.42629238963127136,0.0004947723355144262,0.06595171242952347
1782811365475953200,4.984953125,0.39962002635002136,0.003248214488849044,0.04058243706822395
1782811365486024200,4.995024169921875,0.3693784773349762,-0.012321077287197113,0.02846153825521469
1782811365496095200,5.00509521484375,0.3362423777580261,-0.03863656893372536,0.032754555344581604
1782811365506167300,5.015167236328125,0.30470484495162964,-0.07340314984321594,0.049253299832344055
1782811365516238300,5.02523828125,0.27290722727775574,-0.0988648310303688,0.07234210520982742
1782811365526309400,5.035309326171875,0.26652228832244873,-0.09017393738031387,0.09826241433620453
1782811365536381200,5.045381103515625,0.2759687900543213,-0.08915208280086517,0.10300550609827042
1782811365546452200,5.0554521484375,0.2794153392314911,-0.11598843336105347,0.07720542699098587
1782811365556523300,5.065523193359375,0.282448947429657,-0.1574210822582245,0.031640876084566116
1782811365566595300,5.07559521484375,0.2620745897293091,-0.19110901653766632,0.00024239654885604978
1782811365576666000,5.085666015625,0.22861678898334503,-0.21096660196781158,-0.02400461956858635
1782811365586737200,5.095737060546875,0.17802155017852783,-0.18841443955898285,-0.034127384424209595
1782811365596809200,5.105809326171875,0.13916069269180298,-0.1440291404724121,-0.0433800034224987
1782811365606880300,5.11588037109375,0.10605454444885254,-0.09392649680376053,-0.05784859135746956
1782811365616951300,5.125951416015625,0.06795430183410645,-0.04391445964574814,-0.06837766617536545
1782811365627023000,5.136023193359375,0.026315419003367424,0.005767831113189459,-0.07461418956518173
1782811365637094100,5.14609423828125,-0.011850607581436634,0.05538278818130493,-0.06483426690101624
1782811365647166200,5.156166259765625,-0.03947227820754051,0.09232664853334427,-0.048013485968112946
1782811365657237200,5.1662373046875,-0.06425352394580841,0.11423354595899582,-0.03385532274842262
1782811365667308000,5.17630810546875,-0.0823611468076706,0.11614131927490234,-0.012238375842571259
1782811365677380400,5.18638037109375,-0.10115720331668854,0.09467943757772446,0.010243497788906097
1782811365687451100,5.196451171875,-0.12863245606422424,0.0477542020380497,0.0401904322206974
1782811365697522200,5.206522216796875,-0.15292102098464966,-0.020997166633605957,0.06545610725879669
1782811365707594200,5.21659423828125,-0.16637612879276276,-0.09307678788900375,0.07342417538166046
1782811365717665300,5.226665283203125,-0.16902384161949158,-0.14333410561084747,0.07663941383361816
1782811365727736300,5.236736328125,-0.16640758514404297,-0.19778412580490112,0.07993709295988083
1782811365737808100,5.24680810546875,-0.16092094779014587,-0.2548343539237976,0.08766718208789825
1782811365747879200,5.256879150390625,-0.154887393116951,-0.30968403816223145,0.10589268058538437
1782811365757950200,5.2669501953125,-0.16197434067726135,-0.341509073972702,0.1381334364414215
1782811365768022300,5.277022216796875,-0.18032756447792053,-0.35105597972869873,0.17726176977157593
1782811365778093000,5.287093017578125,-0.19924479722976685,-0.34804767370224,0.2284269630908966
1782811365788165000,5.2971650390625,-0.22924867272377014,-0.3628583252429962,0.24364407360553741
1782811365798233300,5.3072333984375,-0.3025495409965515,-0.42608603835105896,0.19997568428516388
1782811365808304400,5.317304443359375,-0.41022589802742004,-0.538327157497406,0.09433548897504807
1782811365818376200,5.327376220703125,-0.5312479138374329,-0.6334891319274902,-0.024703286588191986
1782811365828447000,5.337447021484375,-0.6528880596160889,-0.650871992111206,-0.14160412549972534
1782811365838519000,5.34751904296875,-0.751887857913971,-0.5500247478485107,-0.2279355525970459
1782811365848590000,5.357590087890625,-0.794714093208313,-0.381418377161026,-0.272963285446167
1782811365858661000,5.3676611328125,-0.7617772221565247,-0.19226205348968506,-0.27186739444732666
1782811365868733200,5.377733154296875,-0.677290678024292,-0.004580332897603512,-0.21259421110153198
1782811365878804200,5.38780419921875,-0.6108565330505371,0.1465466022491455,-0.12156683951616287
1782811365888875300,5.397875244140625,-0.5509647727012634,0.18808101117610931,-0.02569924294948578
1782811365898947300,5.407947265625,-0.5052369832992554,0.19111381471157074,0.07727746665477753
1782811365909018400,5.418018310546875,-0.4823301136493683,0.19331689178943634,0.16147014498710632
1782811365919089400,5.42808935546875,-0.49586668610572815,0.15483473241329193,0.2150537520647049
1782811365929161200,5.4381611328125,-0.5299376845359802,0.149771586060524,0.26376432180404663
1782811365939232000,5.44823193359375,-0.5496439933776855,0.22617873549461365,0.29841548204421997
1782811365949303000,5.458302978515625,-0.5409076809883118,0.33979102969169617,0.31344136595726013
1782811365959375000,5.468375,-0.5138481259346008,0.4129616618156433,0.30298927426338196
1782811365969446100,5.478446044921875,-0.46420201659202576,0.43027886748313904,0.2825678884983063
1782811365979518200,5.488518310546875,-0.4014126658439636,0.40823641419410706,0.26837271451950073
1782811365989589200,5.49858935546875,-0.3447870910167694,0.357904314994812,0.2532152533531189
1782811365999660300,5.508660400390625,-0.3044774830341339,0.27657589316368103,0.2456100732088089
1782811366009732400,5.518732421875,-0.2772323787212372,0.18871399760246277,0.23417234420776367
1782811366019803400,5.528803466796875,-0.26833075284957886,0.1183926910161972,0.2008945494890213
1782811366029874200,5.538874267578125,-0.26880189776420593,0.07083705812692642,0.14259597659111023
1782811366039946200,5.5489462890625,-0.27127569913864136,0.0543382465839386,0.08034245669841766
1782811366050017000,5.55901708984375,-0.26281270384788513,0.034209806472063065,0.04174579679965973
1782811366060088000,5.569088134765625,-0.25131797790527344,0.021415183320641518,0.0197393000125885
1782811366070160100,5.57916015625,-0.22283150255680084,0.016422495245933533,0.008789588697254658
1782811366080231200,5.589231201171875,-0.19286800920963287,0.04186287522315979,0.019090430811047554
1782811366090302200,5.59930224609375,-0.15657249093055725,0.11591469496488571,0.05253119766712189
1782811366100374300,5.609374267578125,-0.13259871304035187,0.22469976544380188,0.11127866804599762
1782811366110445300,5.6194453125,-0.11643306165933609,0.35120975971221924,0.18017305433750153
1782811366120516400,5.629516357421875,-0.07291910797357559,0.5056504011154175,0.24218547344207764
1782811366130588400,5.63958837890625,0.013326164335012436,0.6595165133476257,0.28158146142959595
1782811366140659200,5.6496591796875,0.09522076696157455,0.9138768911361694,0.5120822787284851
1782811366150730800,5.659730712890625,0.07086041569709778,0.5857004523277283,0.5993499159812927
1782811366160802800,5.669802734375,-0.03672117367386818,-0.0017608876805752516,0.5960611701011658
1782811366170873900,5.679873779296875,-0.07440194487571716,-0.3580077290534973,0.5105815529823303
1782811366180946000,5.68994580078125,-0.060081321746110916,-0.2786274254322052,0.4030452370643616
1782811366191017000,5.700016845703125,-0.050586044788360596,-0.08992018550634384,0.27107304334640503
1782811366201087700,5.710087646484375,-0.07232223451137543,0.0892660841345787,0.10068507492542267
1782811366211160000,5.72016015625,-0.10512634366750717,0.17523473501205444,-0.08363249897956848
1782811366221230800,5.73023095703125,-0.10201923549175262,0.22929531335830688,-0.18728138506412506
1782811366231302000,5.740302001953125,-0.07734693586826324,0.2885398864746094,-0.14211030304431915
1782811366241373700,5.750373779296875,-0.07310505211353302,0.18697519600391388,-0.02858799695968628
