time,seconds_elapsed,z,y,x
1782811444156722400,0.059722412109375,0.07066428661346436,-0.007317638956010342,0.006194837391376495
1782811444166793500,0.06979345703125,0.07944308966398239,-0.04600239545106888,0.00956753920763731
1782811444176865300,0.079865234375,0.09193678200244904,-0.07412084937095642,0.015294133685529232
1782811444186936300,0.089936279296875,0.09220031648874283,-0.05873912572860718,0.026971792802214622
1782811444197007400,0.10000732421875,0.08150266110897064,-0.04923483729362488,0.0379626601934433
1782811444207079400,0.110079345703125,0.0653456300497055,-0.03906632587313652,0.043882276862859726
1782811444217150500,0.120150390625,0.051264699548482895,-0.0009141473565250635,0.0407131165266037
1782811444227221500,0.130221435546875,0.043031755834817886,0.05291218310594559,0.03616659343242645
1782811444237293600,0.14029345703125,0.033210016787052155,0.07634907215833664,0.015769708901643753
1782811444247364600,0.150364501953125,0.02228376269340515,0.07271229475736618,-0.00916812103241682
1782811444257435600,0.160435546875,0.01029873825609684,0.08095903694629669,-0.030526138842105865
1782811444267507500,0.170507568359375,-0.00030299252830445766,0.10046391189098358,-0.05215290188789368
1782811444277578500,0.18057861328125,0.000992901623249054,0.09833817183971405,-0.0687909945845604
1782811444287650600,0.190650634765625,0.013752601109445095,0.09485827386379242,-0.08502315729856491
1782811444297721300,0.200721435546875,0.024838007986545563,0.07568085193634033,-0.08866236358880997
1782811444307792400,0.21079248046875,0.04011867567896843,0.047338563948869705,-0.08728613704442978
1782811444317864400,0.220864501953125,0.04727299138903618,0.02324041724205017,-0.07308856397867203
1782811444327935500,0.230935546875,0.04809202626347542,0.023378528654575348,-0.05646267533302307
1782811444338006500,0.241006591796875,0.05339518189430237,0.030577849596738815,-0.0377851277589798
1782811444348078600,0.25107861328125,0.057391051203012466,0.046625006943941116,-0.028992902487516403
1782811444358149600,0.261149658203125,0.06719228625297546,0.055227018892765045,-0.026346517726778984
1782811444368221400,0.271221435546875,0.06986965239048004,0.053653914481401443,-0.032693952322006226
1782811444378292500,0.28129248046875,0.07181961834430695,0.05801404267549515,-0.03171044588088989
1782811444388363500,0.291363525390625,0.07158010452985764,0.061358146369457245,-0.035198066383600235
1782811444398435600,0.301435546875,0.07032869011163712,0.0626513808965683,-0.03753738850355148
1782811444408506400,0.31150634765625,0.06817573308944702,0.06143210083246231,-0.04865051060914993
1782811444418577400,0.321577392578125,0.0656004548072815,0.05161862075328827,-0.06699037551879883
1782811444428649500,0.3316494140625,0.07062003016471863,0.04307721182703972,-0.08447857946157455
1782811444438720500,0.341720458984375,0.08128305524587631,0.0368368923664093,-0.10945316404104233
1782811444448792600,0.35179248046875,0.08542117476463318,0.023914199322462082,-0.13456283509731293
1782811444458863600,0.361863525390625,0.08871737122535706,0.017248306423425674,-0.15611553192138672
1782811444468934700,0.3719345703125,0.08384858816862106,0.016723593696951866,-0.16541151702404022
1782811444479006500,0.38200634765625,0.06938495486974716,0.039210524410009384,-0.1483398675918579
1782811444489077500,0.392077392578125,0.05836799740791321,0.06481042504310608,-0.11990822106599808
1782811444499148300,0.402148193359375,0.05761059373617172,0.07372190058231354,-0.08791113644838333
1782811444509220600,0.412220703125,0.05652109533548355,0.08536257594823837,-0.06586815416812897
1782811444519291400,0.42229150390625,0.062141161412000656,0.10793845355510712,-0.042987335473299026
1782811444529362400,0.432362548828125,0.06265328079462051,0.12549035251140594,-0.04270908609032631
1782811444539434500,0.4424345703125,0.060604773461818695,0.11835680902004242,-0.05666537955403328
1782811444549505500,0.452505615234375,0.0546729639172554,0.11056216806173325,-0.08614040911197662
1782811444559577300,0.462577392578125,0.05021030455827713,0.09692811220884323,-0.11385752260684967
1782811444569648400,0.4726484375,0.042731016874313354,0.07114524394273758,-0.13879996538162231
1782811444579719400,0.482719482421875,0.038098447024822235,0.0494985356926918,-0.15184013545513153
1782811444589791500,0.49279150390625,0.03598931059241295,0.04917244613170624,-0.15100958943367004
1782811444599862500,0.502862548828125,0.03815951943397522,0.038808487355709076,-0.14859943091869354
1782811444609933300,0.512933349609375,0.04214242845773697,0.028404686599969864,-0.1394251585006714
1782811444620005400,0.52300537109375,0.04203484207391739,0.0076075284741818905,-0.13848212361335754
1782811444630076400,0.533076416015625,0.038654908537864685,-0.0030857566744089127,-0.14506655931472778
1782811444640148500,0.5431484375,0.04131647199392319,0.006265400443226099,-0.1553008109331131
1782811444650219500,0.553219482421875,0.042401768267154694,0.01933547481894493,-0.15707819163799286
1782811444660290600,0.56329052734375,0.03670952469110489,0.031286679208278656,-0.14164836704730988
1782811444670362400,0.5733623046875,0.02503477782011032,0.041266217827796936,-0.12358219921588898
1782811444680433400,0.583433349609375,0.017949970439076424,0.051555074751377106,-0.10293497890233994
1782811444690504400,0.59350439453125,0.01845654286444187,0.07577885687351227,-0.09152073413133621
1782811444700576500,0.603576416015625,0.02585506998002529,0.09377117455005646,-0.08619467914104462
1782811444710647600,0.6136474609375,0.036325979977846146,0.09829273074865341,-0.09152711927890778
1782811444720719600,0.6237197265625,0.04483424872159958,0.0917285680770874,-0.0920773297548294
1782811444730790400,0.633790283203125,0.05796657130122185,0.08334008604288101,-0.0841330736875534
1782811444740861400,0.643861328125,0.06596510857343674,0.06717443466186523,-0.05533498153090477
1782811444750933500,0.65393359375,0.06636866182088852,0.06830769032239914,-0.024211784824728966
1782811444761004500,0.664004638671875,0.06721581518650055,0.0717221274971962,-0.003912638872861862
1782811444771075600,0.67407568359375,0.07776738703250885,0.07205618917942047,-0.0002648241352289915
1782811444781147400,0.6841474609375,0.08603143692016602,0.05598241090774536,-0.01632368564605713
1782811444791218400,0.694218505859375,0.09462608397006989,0.03855770826339722,-0.03855904936790466
1782811444801290500,0.70429052734375,0.10369601100683212,0.029715746641159058,-0.06037832796573639
1782811444811361500,0.714361572265625,0.10505693405866623,0.03216120973229408,-0.07107334583997726
1782811444821432600,0.7244326171875,0.09643600881099701,0.031217917799949646,-0.06922058761119843
1782811444831504600,0.734504638671875,0.08132966607809067,0.01925789751112461,-0.06710731238126755
1782811444841575400,0.744575439453125,0.06969484686851501,0.021020909771323204,-0.06009813770651817
1782811444851646500,0.754646484375,0.06671062111854553,0.050248198211193085,-0.05197146534919739
1782811444861718500,0.764718505859375,0.06640222668647766,0.05408741161227226,-0.04001893103122711
1782811444871789600,0.77478955078125,0.06808539479970932,0.02397972345352173,-0.03339993953704834
1782811444881860600,0.784860595703125,0.06249648705124855,-0.013515986502170563,-0.0148318475112319
1782811444891932400,0.794932373046875,0.05416256561875343,-0.08003522455692291,0.006512423977255821
1782811444902003500,0.80500341796875,0.06342557072639465,-0.18124280869960785,0.009869870729744434
1782811444912075500,0.815075439453125,0.07901713252067566,-0.29154255986213684,-0.004698519129306078
1782811444922146600,0.825146484375,0.08832621574401855,-0.380784809589386,-0.046055279672145844
1782811444932217600,0.835217529296875,0.07384520769119263,-0.44278740882873535,-0.10489394515752792
1782811444942289700,0.84528955078125,0.035977449268102646,-0.45791471004486084,-0.17360961437225342
1782811444952360400,0.8553603515625,-0.013822367414832115,-0.3861328363418579,-0.231377512216568
1782811444962431500,0.865431396484375,-0.05988387018442154,-0.2572888433933258,-0.2646563947200775
1782811444972503300,0.87550341796875,-0.10844762623310089,-0.14050111174583435,-0.2873246967792511
1782811444982574300,0.88557421875,-0.14345167577266693,-0.03724582865834236,-0.2738025188446045
1782811444992646400,0.895646484375,-0.15620166063308716,0.057255350053310394,-0.2290051281452179
1782811445002717400,0.905717529296875,-0.14686115086078644,0.11108315736055374,-0.16248762607574463
1782811445012788500,0.91578857421875,-0.13108965754508972,0.12929551303386688,-0.0957251563668251
1782811445022860500,0.925860595703125,-0.1108725368976593,0.12428158521652222,-0.047882795333862305
1782811445032931600,0.935931640625,-0.08841778337955475,0.10093619674444199,-0.022583862766623497
1782811445043002400,0.94600244140625,-0.0665481686592102,0.06192648410797119,-0.020820584148168564
1782811445053074700,0.95607470703125,-0.04315010458230972,0.00356891006231308,-0.03801468387246132
1782811445063145500,0.9661455078125,-0.017767783254384995,-0.04476213827729225,-0.05987231060862541
1782811445073216500,0.976216552734375,0.004111358895897865,-0.06647390127182007,-0.07758448272943497
1782811445083288300,0.986288330078125,0.027743984013795853,-0.05823035538196564,-0.08301945775747299
1782811445093359400,0.996359375,0.03652415797114372,-0.044319067150354385,-0.08253343403339386
1782811445103431400,1.006431396484375,0.034981656819581985,-0.027091611176729202,-0.07269997894763947
1782811445113502500,1.01650244140625,0.03409799560904503,-0.0044607240706682205,-0.05691259354352951
1782811445123573500,1.026573486328125,0.03202765807509422,0.011233549565076828,-0.044185079634189606
1782811445133645600,1.0366455078125,0.03909442201256752,0.022731754928827286,-0.04250987991690636
1782811445143716600,1.046716552734375,0.04950631782412529,0.03978850319981575,-0.041163120418787
1782811445153787400,1.056787353515625,0.069813072681427,0.05111423879861832,-0.0392741821706295
1782811445163859500,1.066859375,0.08857717365026474,0.048871591687202454,-0.05049727484583855
1782811445173930500,1.076930419921875,0.10072419792413712,0.04706554487347603,-0.05668817088007927
1782811445184002300,1.087002197265625,0.10401773452758789,0.047404032200574875,-0.060140158981084824
1782811445194073300,1.0970732421875,0.10539621859788895,0.03551698848605156,-0.06306198239326477
1782811445204144400,1.107144287109375,0.09418351203203201,0.009099496528506279,-0.06141907349228859
1782811445214216000,1.1172158203125,0.07652828097343445,-0.007894604466855526,-0.06527704745531082
1782811445224287000,1.127286865234375,0.06515391916036606,0.012849556282162666,-0.05936563014984131
1782811445234358000,1.13735791015625,0.05091629922389984,0.0381719246506691,-0.04085313901305199
1782811445244430000,1.14743017578125,0.035469964146614075,0.029912661761045456,-0.029870260506868362
1782811445254500900,1.1575009765625,0.03326397389173508,0.0032730328384786844,-0.026612890884280205
1782811445264572000,1.167572021484375,0.044398386031389236,-0.008004123345017433,-0.04086346551775932
1782811445274644000,1.17764404296875,0.06500661373138428,-0.021294252946972847,-0.05948458984494209
1782811445284715000,1.187715087890625,0.08803603053092957,-0.04334016516804695,-0.07809370011091232
1782811445294786800,1.197786865234375,0.1036038026213646,-0.041918039321899414,-0.08362748473882675
1782811445304857900,1.20785791015625,0.11886904388666153,-0.005270546302199364,-0.07259906828403473
1782811445314929000,1.217928955078125,0.13329333066940308,0.039770178496837616,-0.045492544770240784
1782811445325001000,1.2280009765625,0.14155392348766327,0.07180321216583252,-0.008999248966574669
1782811445335072000,1.238072021484375,0.14387831091880798,0.08165065199136734,0.01836463436484337
1782811445345143000,1.24814306640625,0.1449691355228424,0.0823979303240776,0.026700062677264214
1782811445355215000,1.258215087890625,0.14259731769561768,0.056882455945014954,0.007662723772227764
1782811445365286000,1.268285888671875,0.13399459421634674,0.022592807188630104,-0.022771721705794334
1782811445375357000,1.27835693359375,0.12723684310913086,-0.007095234468579292,-0.05162591114640236
1782811445385429000,1.288428955078125,0.11467152088880539,-0.032379552721977234,-0.07983464747667313
1782811445395500000,1.2985,0.10606739670038223,-0.04082377254962921,-0.09807214140892029
1782811445405571800,1.30857177734375,0.09452525526285172,-0.036566443741321564,-0.10841745883226395
1782811445415643000,1.318642822265625,0.08941224962472916,-0.038388047367334366,-0.1098952442407608
1782811445425714000,1.3287138671875,0.08090291917324066,-0.03779442980885506,-0.1003938838839531
1782811445435786000,1.338785888671875,0.07386338710784912,-0.033017516136169434,-0.08539442718029022
1782811445445857000,1.34885693359375,0.06655221432447433,-0.03087926283478737,-0.0733710527420044
1782811445455928000,1.358927978515625,0.0534362867474556,-0.02256043814122677,-0.07203583419322968
1782811445466000100,1.369000244140625,0.04173515364527702,-0.010684603825211525,-0.07491204887628555
1782811445476071000,1.37907080078125,0.03823503851890564,0.022253848612308502,-0.0868396982550621
1782811445486143000,1.38914306640625,0.04426230490207672,0.04715493693947792,-0.10163595527410507
1782811445496214000,1.399214111328125,0.053227830678224564,0.052825670689344406,-0.11788102239370346
1782811445506285000,1.40928515625,0.05787504464387894,0.05234523490071297,-0.12400549650192261
1782811445516356900,1.41935693359375,0.06399786472320557,0.0418965108692646,-0.11541841179132462
1782811445526428000,1.429427978515625,0.07169706374406815,0.024113254621624947,-0.08959666639566422
1782811445536499000,1.4394990234375,0.08601479977369308,0.010513171553611755,-0.05524298548698425
1782811445546571000,1.449571044921875,0.09930609911680222,0.003521574195474386,-0.02423739992082119
1782811445556642000,1.45964208984375,0.11706874519586563,-0.0025559861678630114,-0.011886181309819221
1782811445566713000,1.469713134765625,0.1308005452156067,-0.010102319531142712,-0.008622211404144764
1782811445576785200,1.47978515625,0.145120307803154,-0.007189234718680382,-0.014876083470880985
1782811445586856000,1.48985595703125,0.15138593316078186,-0.004705837462097406,-0.025147097185254097
1782811445596928000,1.499927978515625,0.15160009264945984,-0.008873537182807922,-0.03317282721400261
1782811445606999000,1.5099990234375,0.14823439717292786,-0.013736735098063946,-0.03491533175110817
1782811445617070000,1.520070068359375,0.13770318031311035,-0.016824936494231224,-0.024682670831680298
1782811445627142000,1.530141845703125,0.12558020651340485,-0.017787935212254524,-0.015249221585690975
1782811445637213000,1.540212890625,0.11614274233579636,-0.03487969562411308,-0.012981105595827103
1782811445647284000,1.550283935546875,0.10453721880912781,-0.05761083960533142,-0.015826428309082985
1782811445657356000,1.56035595703125,0.08524201810359955,-0.07190798968076706,-0.01418065745383501
1782811445667427000,1.570427001953125,0.06602971255779266,-0.08764167875051498,-0.009112396277487278
1782811445677497900,1.580497802734375,0.0451970100402832,-0.10959820449352264,-0.011231557466089725
1782811445687570200,1.590570068359375,0.02808167226612568,-0.12730130553245544,-0.01832142472267151
1782811445697641000,1.600640869140625,0.010407394729554653,-0.13362328708171844,-0.023424820974469185
1782811445707712800,1.610712646484375,-0.004799254704266787,-0.13181394338607788,-0.03374456986784935
1782811445717783800,1.62078369140625,-0.00899205170571804,-0.11226065456867218,-0.03570263460278511
1782811445727854800,1.630854736328125,-0.009407238103449345,-0.09963620454072952,-0.02306593395769596
1782811445737927000,1.640927001953125,-0.019896583631634712,-0.10731661319732666,-0.016025632619857788
1782811445747998000,1.650998046875,-0.02771455980837345,-0.10820024460554123,0.0034902787301689386
1782811445758069000,1.661069091796875,-0.02915894240140915,-0.109127938747406,0.035176876932382584
1782811445768141000,1.67114111328125,-0.03330708295106888,-0.12267463654279709,0.06599550694227219
1782811445778212000,1.681212158203125,-0.03949592635035515,-0.14852707087993622,0.08497970551252365
1782811445788284200,1.6912841796875,-0.04395751655101776,-0.1780886948108673,0.09051268547773361
1782811445798355000,1.70135498046875,-0.05806044861674309,-0.2182646542787552,0.08710463345050812
1782811445808426000,1.711426025390625,-0.07722429186105728,-0.23965835571289062,0.07723069190979004
1782811445818497800,1.721497802734375,-0.10015098750591278,-0.23117798566818237,0.0758446678519249
1782811445828568800,1.73156884765625,-0.12047915905714035,-0.2176150381565094,0.08449914306402206
1782811445838639900,1.741639892578125,-0.14008016884326935,-0.21525192260742188,0.08976589888334274
1782811445848712000,1.7517119140625,-0.16430534422397614,-0.22151461243629456,0.09507118165493011
1782811445858783000,1.761782958984375,-0.18837366998195648,-0.2105937898159027,0.09231533855199814
1782811445868854000,1.77185400390625,-0.21794913709163666,-0.19236817955970764,0.07324391603469849
1782811445878926000,1.781926025390625,-0.2661305367946625,-0.1880236268043518,0.03527166321873665
1782811445888997000,1.7919970703125,-0.33893683552742004,-0.19841741025447845,-0.03297556936740875
1782811445899069200,1.802069091796875,-0.4302885830402374,-0.2250238060951233,-0.1226273775100708
1782811445909140000,1.812139892578125,-0.5111112594604492,-0.2495720237493515,-0.22266902029514313
1782811445919211000,1.8222109375,-0.5797702670097351,-0.23950746655464172,-0.30978265404701233
1782811445929282800,1.83228271484375,-0.626921534538269,-0.20185543596744537,-0.3696819245815277
1782811445939353900,1.842353759765625,-0.6390110850334167,-0.11672993004322052,-0.37979456782341003
1782811445949425000,1.8524248046875,-0.6075599789619446,-0.0024480982683598995,-0.3287217915058136
1782811445959497000,1.8624970703125,-0.547429621219635,0.10039183497428894,-0.22096925973892212
1782811445969568000,1.872568115234375,-0.48416540026664734,0.15518665313720703,-0.08782878518104553
1782811445979640000,1.88264013671875,-0.42973795533180237,0.14939971268177032,0.04101717844605446
1782811445989711000,1.892711181640625,-0.3930281400680542,0.09246771782636642,0.13009965419769287
1782811445999782100,1.9027822265625,-0.3713807165622711,0.030323166400194168,0.1758383959531784
1782811446009854000,1.91285400390625,-0.36653244495391846,-0.03290347382426262,0.164325550198555
1782811446019925000,1.922925048828125,-0.3756765127182007,-0.09275884926319122,0.09825044125318527
1782811446029996000,1.93299609375,-0.39209356904029846,-0.14042091369628906,-0.005109235644340515
1782811446040067800,1.94306787109375,-0.417305588722229,-0.1714036911725998,-0.11919902265071869
1782811446050139000,1.953138916015625,-0.43556714057922363,-0.1759158968925476,-0.22200022637844086
1782811446060210000,1.9632099609375,-0.44752198457717896,-0.16840974986553192,-0.2814854681491852
1782811446070282000,1.973281982421875,-0.44972869753837585,-0.1410074234008789,-0.285241037607193
1782811446080353000,1.98335302734375,-0.43828055262565613,-0.09849563986063004,-0.24142779409885406
1782811446090425000,1.993425048828125,-0.42395728826522827,-0.04665348306298256,-0.16043174266815186
1782811446100496100,2.00349609375,-0.4199928045272827,0.009604955092072487,-0.06514757126569748
1782811446110567200,2.013567138671875,-0.43206730484962463,0.06528446078300476,0.019588889554142952
1782811446120639000,2.023638916015625,-0.45398271083831787,0.11892471462488174,0.07832655310630798
1782811446130709800,2.033709716796875,-0.479752779006958,0.15964259207248688,0.0960187315940857
1782811446140780800,2.04378076171875,-0.5129793286323547,0.1813051849603653,0.07620419561862946
1782811446150852900,2.053852783203125,-0.5395784378051758,0.1919626146554947,0.021507658064365387
1782811446160924000,2.063923828125,-0.5581008195877075,0.2002861648797989,-0.04180777817964554
1782811446170995000,2.073994873046875,-0.55014568567276,0.17831668257713318,-0.10253982990980148
1782811446181067000,2.08406689453125,-0.5289533734321594,0.1296812891960144,-0.15863649547100067
1782811446191138000,2.094137939453125,-0.4943546652793884,0.0804668739438057,-0.1895107924938202
1782811446201210000,2.104210205078125,-0.4468795657157898,0.05955026298761368,-0.19488875567913055
1782811446211281200,2.11428125,-0.3864756226539612,0.058389391750097275,-0.17126357555389404
1782811446221352700,2.124352783203125,-0.325752854347229,0.05637679249048233,-0.130293607711792
1782811446231424500,2.134424560546875,-0.25535696744918823,0.042803991585969925,-0.06471352279186249
1782811446241495300,2.144495361328125,-0.18901504576206207,0.010036024264991283,0.02249344065785408
1782811446251566300,2.15456640625,-0.13526925444602966,-0.06641826778650284,0.11277006566524506
1782811446261638400,2.164638427734375,-0.08918178081512451,-0.15859602391719818,0.20890961587429047
1782811446271709400,2.17470947265625,-0.053226176649332047,-0.23052027821540833,0.30170106887817383
1782811446281780500,2.184780517578125,-0.02258116565644741,-0.2958448529243469,0.38795533776283264
1782811446291852500,2.1948525390625,0.011283589527010918,-0.3720932900905609,0.4451483190059662
1782811446301923600,2.204923583984375,0.04617224633693695,-0.4245174527168274,0.4704596698284149
1782811446311995400,2.214995361328125,0.08719824999570847,-0.43450164794921875,0.4678114354610443
1782811446322066400,2.22506640625,0.11739680916070938,-0.4097708463668823,0.424740195274353
1782811446332137500,2.235137451171875,0.14083103835582733,-0.35895398259162903,0.35431715846061707
1782811446342209500,2.24520947265625,0.15014530718326569,-0.3012452721595764,0.2834168076515198
1782811446352280300,2.2552802734375,0.12928743660449982,-0.24832503497600555,0.21843117475509644
1782811446362351400,2.265351318359375,0.09854577481746674,-0.21774137020111084,0.17672531306743622
1782811446372423400,2.27542333984375,0.06350470334291458,-0.19977328181266785,0.15953433513641357
1782811446382494500,2.285494384765625,0.028040600940585136,-0.1913568079471588,0.15905334055423737
1782811446392566500,2.29556640625,-0.008901435881853104,-0.19315549731254578,0.16351626813411713
1782811446402637600,2.305637451171875,-0.037617675960063934,-0.18608424067497253,0.16715195775032043
1782811446412708600,2.31570849609375,-0.05623423680663109,-0.17201316356658936,0.16450583934783936
1782811446422780400,2.325780517578125,-0.0645269826054573,-0.16636838018894196,0.15985099971294403
1782811446432851500,2.3358515625,-0.06652461737394333,-0.15100540220737457,0.1574685424566269
1782811446442922500,2.345922607421875,-0.06203962117433548,-0.1194135993719101,0.16855695843696594
1782811446452994600,2.35599462890625,-0.05134037137031555,-0.08340419828891754,0.18603980541229248
1782811446463065300,2.3660654296875,-0.03871035948395729,-0.057544708251953125,0.20557422935962677
1782811446473136400,2.376136474609375,-0.03384583070874214,-0.036370448768138885,0.22248023748397827
1782811446483208400,2.38620849609375,-0.03332371264696121,-0.03817535564303398,0.2244008183479309
1782811446493279500,2.396279541015625,-0.028929494321346283,-0.055949825793504715,0.21469546854496002
1782811446503351600,2.4063515625,-0.0165161844342947,-0.08833552896976471,0.19958439469337463
1782811446513422600,2.416422607421875,0.005169936455786228,-0.0957401841878891,0.19572414457798004
1782811446523493600,2.42649365234375,0.04187269136309624,-0.08273707330226898,0.2019701898097992
1782811446533565400,2.4365654296875,0.07791591435670853,-0.09337799996137619,0.21823278069496155
1782811446543636500,2.446636474609375,0.10612768679857254,-0.11693242937326431,0.24149660766124725
1782811446553707500,2.45670751953125,0.1332879364490509,-0.12827430665493011,0.27977046370506287
1782811446563779600,2.466779541015625,0.1527101993560791,-0.10942868143320084,0.32486703991889954
1782811446573850400,2.476850341796875,0.16680018603801727,-0.04362250119447708,0.37868553400039673
1782811446583921400,2.48692138671875,0.16720958054065704,0.021543996408581734,0.40800172090530396
1782811446593993500,2.496993408203125,0.17152604460716248,0.03860553726553917,0.4013131856918335
1782811446604064500,2.507064453125,0.1646353304386139,-0.0029349238611757755,0.3573788106441498
1782811446614136600,2.517136474609375,0.1602104753255844,-0.08407531678676605,0.2909664809703827
1782811446624207600,2.52720751953125,0.1428520828485489,-0.18267522752285004,0.205338254570961
1782811446634278700,2.537278564453125,0.11903516948223114,-0.28429800271987915,0.12212486565113068
1782811446644350500,2.5473505859375,0.09918082505464554,-0.3552570343017578,0.06283492594957352
1782811446654421500,2.55742138671875,0.09978163987398148,-0.3776068091392517,0.0531865619122982
1782811446664492300,2.5674921875,0.11379785090684891,-0.3731553554534912,0.09482641518115997
1782811446674564600,2.577564697265625,0.15485873818397522,-0.376240611076355,0.16752485930919647
1782811446684635400,2.587635498046875,0.22166000306606293,-0.39077234268188477,0.2452831119298935
1782811446694707500,2.59770751953125,0.28958043456077576,-0.37793752551078796,0.3123982548713684
1782811446704778500,2.607778564453125,0.3403175473213196,-0.34835606813430786,0.35845115780830383
1782811446714849500,2.617849609375,0.3959808051586151,-0.336282879114151,0.38239696621894836
1782811446724921300,2.62792138671875,0.45062384009361267,-0.3275693356990814,0.3974411189556122
1782811446734992400,2.637992431640625,0.5000870227813721,-0.30029135942459106,0.3998262584209442
1782811446745063400,2.6480634765625,0.5470856428146362,-0.2683781683444977,0.3936234712600708
1782811446755135500,2.658135498046875,0.5823312997817993,-0.2150215059518814,0.38504889607429504
1782811446765206500,2.66820654296875,0.6007089614868164,-0.15050382912158966,0.3670041561126709
1782811446775277300,2.67827734375,0.6120463013648987,-0.09610476344823837,0.3522869944572449
1782811446785349400,2.688349365234375,0.6251440644264221,-0.034318216145038605,0.33451834321022034
1782811446795420400,2.69842041015625,0.6454301476478577,0.014291131868958473,0.3126431405544281
1782811446805492500,2.708492431640625,0.6569883823394775,0.04651733487844467,0.26873835921287537
1782811446815563500,2.7185634765625,0.6603650450706482,0.06540288031101227,0.19939525425434113
1782811446825634600,2.728634521484375,0.6485428810119629,0.0814095214009285,0.10613927245140076
1782811446835706400,2.738706298828125,0.6392630934715271,0.0682617649435997,-0.011148210614919662
1782811446845777400,2.74877734375,0.6219228506088257,0.028318306431174278,-0.14060287177562714
1782811446855848400,2.758848388671875,0.6068482995033264,-0.029535137116909027,-0.25726398825645447
1782811446865920500,2.76892041015625,0.5872030258178711,-0.088749960064888,-0.34452757239341736
1782811446875991600,2.778991455078125,0.5747458338737488,-0.11548090726137161,-0.3817116916179657
1782811446886062300,2.789062255859375,0.5636584758758545,-0.10920827835798264,-0.37932008504867554
1782811446896134400,2.799134521484375,0.565047025680542,-0.061791498214006424,-0.3519901931285858
1782811446906205400,2.809205322265625,0.5600380301475525,0.012356877326965332,-0.312544584274292
1782811446916277500,2.819277587890625,0.5355609059333801,0.11188612878322601,-0.2677118480205536
1782811446926348500,2.8293486328125,0.5010220408439636,0.2301330715417862,-0.20259197056293488
1782811446936419600,2.839419677734375,0.4660494029521942,0.3373170495033264,-0.1383645236492157
1782811446946491400,2.849491455078125,0.42503875494003296,0.3994493782520294,-0.09078709036111832
1782811446956562400,2.8595625,0.3812398910522461,0.4187375605106354,-0.06974758952856064
1782811446966633500,2.869633544921875,0.337376207113266,0.4130845367908478,-0.06314253807067871
1782811446976705500,2.87970556640625,0.3091205954551697,0.37637072801589966,-0.07323378324508667
1782811446986776600,2.889776611328125,0.29541459679603577,0.31624752283096313,-0.09244068711996078
1782811446996848600,2.8998486328125,0.2775067090988159,0.26292410492897034,-0.11653963476419449
1782811447006919400,2.90991943359375,0.2477473020553589,0.2169896513223648,-0.1394938975572586
1782811447016990500,2.919990478515625,0.20768484473228455,0.17801189422607422,-0.16050463914871216
1782811447027062500,2.9300625,0.16706639528274536,0.1604127734899521,-0.17143142223358154
1782811447037133600,2.940133544921875,0.13283252716064453,0.16251294314861298,-0.18154238164424896
1782811447047204600,2.95020458984375,0.09906962513923645,0.18247921764850616,-0.19138342142105103
1782811447057276400,2.9602763671875,0.0665803924202919,0.20684820413589478,-0.19043533504009247
1782811447067347500,2.970347412109375,0.028934482485055923,0.23608838021755219,-0.1839689165353775
1782811447077418500,2.98041845703125,-0.009893340058624744,0.24953441321849823,-0.1767251193523407
1782811447087490600,2.990490478515625,-0.041499096900224686,0.2527850270271301,-0.15912136435508728
1782811447097561600,3.0005615234375,-0.07715829461812973,0.22889113426208496,-0.13599766790866852
1782811447107633700,3.010633544921875,-0.10510604083538055,0.1921539604663849,-0.1170373409986496
1782811447117704400,3.020704345703125,-0.11995316296815872,0.16705580055713654,-0.09732595086097717
1782811447127775500,3.030775390625,-0.1325194090604782,0.12733246386051178,-0.07686838507652283
1782811447137847300,3.040847412109375,-0.15427877008914948,0.06669068336486816,-0.06401330977678299
1782811447147918300,3.05091845703125,-0.1935882717370987,0.007979386486113071,-0.052827388048172
1782811447157989400,3.0609892578125,-0.23470854759216309,-0.04363879933953285,-0.052140023559331894
1782811447168061400,3.0710615234375,-0.28057223558425903,-0.09484154731035233,-0.06479783356189728
1782811447178132500,3.081132568359375,-0.31175118684768677,-0.14619234204292297,-0.08115922659635544
1782811447188203500,3.09120361328125,-0.33545950055122375,-0.1820819079875946,-0.0885818675160408
1782811447198275600,3.101275634765625,-0.3469049632549286,-0.17608393728733063,-0.07161007821559906
1782811447208346400,3.111346435546875,-0.34908920526504517,-0.14454205334186554,-0.033550769090652466
1782811447218418200,3.121418212890625,-0.34533894062042236,-0.0861399844288826,0.015564844012260437
1782811447228489000,3.131489013671875,-0.3563525974750519,-0.02687903679907322,0.054101452231407166
1782811447238560000,3.14156005859375,-0.39912882447242737,-0.01241061370819807,0.055184025317430496
1782811447248632000,3.151632080078125,-0.4574121832847595,-0.04328245297074318,0.004363342188298702
1782811447258703000,3.161703125,-0.5320771336555481,-0.12489129602909088,-0.08661583065986633
1782811447268774100,3.171774169921875,-0.6192948818206787,-0.22504808008670807,-0.1871519237756729
1782811447278846000,3.181845947265625,-0.6947081685066223,-0.2659830152988434,-0.27090567350387573
1782811447288917000,3.1919169921875,-0.7378063797950745,-0.20888902246952057,-0.3225327134132385
1782811447298988000,3.201988037109375,-0.7327724695205688,-0.08311805129051208,-0.3342897593975067
1782811447309060000,3.21206005859375,-0.6818196773529053,0.06601455062627792,-0.3075396716594696
1782811447319131100,3.222131103515625,-0.6126205921173096,0.19716617465019226,-0.23597173392772675
1782811447329203200,3.232203125,-0.5343868732452393,0.2957193851470947,-0.12421705573797226
1782811447339274000,3.24227392578125,-0.4477989971637726,0.3282666504383087,-0.002607530914247036
1782811447349345000,3.252344970703125,-0.37284213304519653,0.29018494486808777,0.10668404400348663
1782811447359417000,3.2624169921875,-0.3165298402309418,0.22311189770698547,0.20113544166088104
1782811447369488100,3.272488037109375,-0.29878395795822144,0.14511527121067047,0.2651028037071228
1782811447379559200,3.28255908203125,-0.3078429698944092,0.08053573966026306,0.2933323085308075
1782811447389631000,3.292630859375,-0.32037100195884705,0.046171046793460846,0.2920607328414917
1782811447399702000,3.302701904296875,-0.315410852432251,0.026054326444864273,0.2619193196296692
1782811447409774000,3.312774169921875,-0.2827352285385132,0.008784928359091282,0.20447510480880737
1782811447419845000,3.32284521484375,-0.24126660823822021,-0.003540180856361985,0.14845632016658783
1782811447429916000,3.332916015625,-0.20722834765911102,-0.008790150284767151,0.09647904336452484
1782811447439988200,3.34298828125,-0.18976013362407684,-0.01629813387989998,0.06321589648723602
1782811447450059000,3.35305908203125,-0.18049749732017517,-0.04022694006562233,0.04005178064107895
1782811447460130000,3.363130126953125,-0.17589688301086426,-0.060057368129491806,0.025059783831238747
1782811447470201900,3.373201904296875,-0.1786208599805832,-0.07102669775485992,0.02095670998096466
1782811447480273000,3.38327294921875,-0.19263601303100586,-0.08690020442008972,0.006450471468269825
1782811447490344000,3.393343994140625,-0.21582277119159698,-0.10158205777406693,-0.01842028647661209
1782811447500416000,3.403416015625,-0.22955162823200226,-0.09082208573818207,-0.04645804688334465
1782811447510487000,3.413487060546875,-0.23203667998313904,-0.04269145801663399,-0.06694012135267258
1782811447520559000,3.42355908203125,-0.2252136617898941,0.029814165085554123,-0.07057800143957138
1782811447530630100,3.433630126953125,-0.2043478935956955,0.11997286230325699,-0.04561564698815346
1782811447540701000,3.443700927734375,-0.1704874038696289,0.2225612848997116,0.016130005940794945
1782811447550773000,3.45377294921875,-0.1269853264093399,0.3221062421798706,0.10168098658323288
1782811447560844000,3.463843994140625,-0.07757863402366638,0.394135445356369,0.1971403956413269
1782811447570915000,3.4739150390625,-0.0293375626206398,0.42978474497795105,0.27284255623817444
1782811447580987000,3.48398681640625,0.012146496213972569,0.4357563555240631,0.3285185992717743
1782811447591058000,3.494057861328125,0.051778364926576614,0.41193780303001404,0.3587951958179474
1782811447601129000,3.50412890625,0.07322560250759125,0.35984769463539124,0.36293160915374756
1782811447611201000,3.514200927734375,0.08061719685792923,0.2999788224697113,0.34072747826576233
1782811447621272000,3.52427197265625,0.0804949551820755,0.24015092849731445,0.3113003373146057
1782811447631344000,3.53434423828125,0.07736005634069443,0.18735453486442566,0.2717580199241638
1782811447641415200,3.544415283203125,0.07466280460357666,0.1306944489479065,0.22842095792293549
1782811447651486000,3.55448583984375,0.06228943169116974,0.08142348378896713,0.19303445518016815
1782811447661558000,3.56455810546875,0.055946581065654755,0.05101897567510605,0.16738048195838928
1782811447671629000,3.574629150390625,0.04940199851989746,0.027065729722380638,0.1427634209394455
1782811447681700000,3.5847001953125,0.05222654715180397,-0.011812694370746613,0.1275208294391632
1782811447691772000,3.59477197265625,0.052395544946193695,-0.05569402873516083,0.11653364449739456
1782811447701843000,3.604843017578125,0.04464787617325783,-0.08622264117002487,0.1067393347620964
1782811447711915000,3.6149150390625,0.03207603469491005,-0.0957999899983406,0.1096639335155487
1782811447721986000,3.624986083984375,0.015143122524023056,-0.09493925422430038,0.131328746676445
1782811447732057000,3.63505712890625,-0.011488602496683598,-0.08632142096757889,0.163616344332695
1782811447742129200,3.645129150390625,-0.04444628953933716,-0.04903077706694603,0.19485363364219666
1782811447752200200,3.6552001953125,-0.08156014233827591,-0.006661366671323776,0.2210349291563034
1782811447762271000,3.66527099609375,-0.1178816631436348,0.03700728714466095,0.22343416512012482
1782811447772343000,3.675343017578125,-0.14290295541286469,0.08053875714540482,0.21480771899223328
1782811447782414000,3.6854140625,-0.15413403511047363,0.12116421014070511,0.20517267286777496
1782811447792485000,3.695485107421875,-0.1432502716779709,0.14864452183246613,0.20865780115127563
1782811447802557000,3.705556884765625,-0.1273389458656311,0.14952921867370605,0.21688111126422882
1782811447812628000,3.7156279296875,-0.10359390079975128,0.16210205852985382,0.23317314684391022
1782811447822700000,3.725699951171875,-0.07016483694314957,0.205124631524086,0.25645342469215393
1782811447832771000,3.73577099609375,-0.043211694806814194,0.2646566927433014,0.2751924395561218
1782811447842842000,3.745842041015625,-0.03162294626235962,0.305775910615921,0.2788260579109192
1782811447852914200,3.7559140625,-0.034826312214136124,0.3126453757286072,0.23052452504634857
1782811447862985200,3.765985107421875,-0.01837250404059887,0.26903876662254333,0.14198826253414154
1782811447873056000,3.776055908203125,0.022669179365038872,0.19735737144947052,-0.01811685599386692
1782811447883127800,3.7861279296875,0.06874425709247589,0.24130430817604065,-0.3149767518043518
1782811447893198800,3.79619873046875,0.09575709700584412,0.25336775183677673,-0.6043909192085266
1782811447903270000,3.806269775390625,0.10294549912214279,0.21443285048007965,-0.7663528919219971
1782811447913342000,3.816342041015625,0.12392646074295044,0.09069055318832397,-0.7376638054847717
1782811447923413000,3.8264130859375,0.09770897030830383,-0.062209781259298325,-0.5086175799369812
1782811447933485000,3.836485107421875,0.04492511972784996,-0.1592109054327011,-0.16763119399547577
1782811447943556000,3.84655615234375,0.00014698668383061886,-0.16784772276878357,0.16439011693000793
1782811447953627100,3.856627197265625,0.0034030722454190254,-0.12190105020999908,0.3822675943374634
1782811447963699200,3.86669921875,0.05822610855102539,-0.06811558455228806,0.4524032473564148
1782811447973770200,3.876770263671875,0.10902602970600128,-0.015403843484818935,0.39820533990859985
1782811447983841000,3.886841064453125,0.13094410300254822,0.05365511775016785,0.2922455966472626
1782811447993912800,3.896912841796875,0.13130469620227814,0.14074288308620453,0.20011569559574127
1782811448003984000,3.90698388671875,0.1262388378381729,0.22854623198509216,0.16518859565258026
1782811448014056000,3.917055908203125,0.1250709593296051,0.29953500628471375,0.1772020161151886
1782811448024127000,3.927126953125,0.13699287176132202,0.3217654824256897,0.1849837750196457
1782811448034198000,3.937197998046875,0.18692852556705475,0.3048612177371979,0.16621512174606323
1782811448044270000,3.94727001953125,0.24415133893489838,0.25177082419395447,0.12479203194379807
1782811448054341000,3.957341064453125,0.2953650951385498,0.1452639251947403,0.0773223415017128
1782811448064412200,3.967412109375,0.3544153571128845,0.0034572582226246595,0.02443382889032364
1782811448074484200,3.977484130859375,0.4209643304347992,-0.14552243053913116,-0.028928538784384727
1782811448084555000,3.987554931640625,0.49257832765579224,-0.2668704390525818,-0.07407204806804657
1782811448094626000,3.9976259765625,0.5468595027923584,-0.3585485816001892,-0.10824671387672424
1782811448104697900,4.00769775390625,0.5751734375953674,-0.41162484884262085,-0.12734930217266083
1782811448114769000,4.017768798828125,0.5969176888465881,-0.4016360938549042,-0.11711756139993668
1782811448124841000,4.027841064453125,0.6165382266044617,-0.33539822697639465,-0.07945593446493149
1782811448134912000,4.037912109375,0.6176829934120178,-0.27103835344314575,-0.030941573902964592
1782811448144983000,4.047983154296875,0.5896025896072388,-0.2140570729970932,0.020659301429986954
1782811448155055000,4.05805517578125,0.5446138978004456,-0.14755643904209137,0.07029461115598679
1782811448165126100,4.068126220703125,0.5020416975021362,-0.06628874689340591,0.09720878303050995
1782811448175197200,4.078197265625,0.4593893885612488,0.007880098186433315,0.10376869887113571
1782811448185269000,4.08826904296875,0.4174504578113556,0.0484943687915802,0.09444710612297058
1782811448195340000,4.098340087890625,0.37357470393180847,0.048547402024269104,0.06566013395786285
1782811448205411000,4.1084111328125,0.34525811672210693,0.0038284016773104668,0.026675717905163765
1782811448215483000,4.11848291015625,0.33349117636680603,-0.07495223730802536,-0.022910425439476967
1782811448225554400,4.128554443359375,0.33313804864883423,-0.15707454085350037,-0.06956501305103302
1782811448235626500,4.13862646484375,0.34488287568092346,-0.20247378945350647,-0.0992102101445198
1782811448245697500,4.148697509765625,0.35009095072746277,-0.22326615452766418,-0.11888138204813004
1782811448255768600,4.1587685546875,0.3411340117454529,-0.2256443351507187,-0.1273440271615982
1782811448265840600,4.168840576171875,0.31843534111976624,-0.21630170941352844,-0.12814511358737946
1782811448275911700,4.17891162109375,0.29040735960006714,-0.19526295363903046,-0.12312478572130203
1782811448285982700,4.188982666015625,0.254143625497818,-0.15636561810970306,-0.10421687364578247
1782811448296054500,4.199054443359375,0.20817528665065765,-0.12227145582437515,-0.08703599125146866
1782811448306125600,4.20912548828125,0.16440171003341675,-0.10962516814470291,-0.07402059435844421
1782811448316196400,4.2191962890625,0.1208505854010582,-0.11726488173007965,-0.07270882278680801
1782811448326268400,4.229268310546875,0.08974753320217133,-0.12034429609775543,-0.07333359867334366
1782811448336339500,4.23933935546875,0.06308918446302414,-0.13084776699543,-0.09285403043031693
1782811448346411500,4.24941162109375,0.04043206945061684,-0.15919871628284454,-0.13260303437709808
1782811448356482600,4.259482666015625,0.027608882635831833,-0.19570693373680115,-0.1780978888273239
1782811448366553600,4.2695537109375,0.02957562729716301,-0.25101038813591003,-0.22022511065006256
1782811448376625700,4.279625732421875,0.02536541037261486,-0.3133331835269928,-0.24718867242336273
1782811448386696700,4.28969677734375,0.01861616037786007,-0.3696792721748352,-0.2588844895362854
1782811448396767700,4.299767822265625,0.009166664443910122,-0.4371339678764343,-0.2562605142593384
1782811448406839600,4.309839599609375,-0.01532802451401949,-0.5092235803604126,-0.24748143553733826
1782811448416910300,4.319910400390625,-0.04684768617153168,-0.5450876951217651,-0.2348262518644333
1782811448426982700,4.329982666015625,-0.08568403124809265,-0.5486760139465332,-0.22766341269016266
1782811448437053400,4.340053466796875,-0.12772518396377563,-0.5071758031845093,-0.22211505472660065
1782811448447124500,4.35012451171875,-0.1722244769334793,-0.42553338408470154,-0.21359162032604218
1782811448457196500,4.360196533203125,-0.2340884953737259,-0.31266289949417114,-0.20327164232730865
1782811448467267600,4.370267578125,-0.3165450394153595,-0.2160934954881668,-0.21551020443439484
1782811448477338600,4.380338623046875,-0.42338740825653076,-0.16183581948280334,-0.2611711323261261
1782811448487410400,4.390410400390625,-0.5386881828308105,-0.10973106324672699,-0.31518295407295227
1782811448497481500,4.4004814453125,-0.6493407487869263,-0.02611907385289669,-0.3600158095359802
1782811448507552500,4.410552490234375,-0.7259324789047241,0.04909605160355568,-0.3897305428981781
1782811448517624600,4.42062451171875,-0.7491780519485474,0.10807933658361435,-0.38441896438598633
1782811448527695400,4.4306953125,-0.7215440273284912,0.1622677445411682,-0.33579230308532715
1782811448537767400,4.440767333984375,-0.6489405035972595,0.20416565239429474,-0.2505240738391876
1782811448547838500,4.45083837890625,-0.568737804889679,0.22429567575454712,-0.14589007198810577
1782811448557909500,4.460909423828125,-0.4986048638820648,0.20738238096237183,-0.05073257163167
1782811448567981600,4.470981689453125,-0.45259982347488403,0.16562429070472717,0.021146945655345917
1782811448578052600,4.481052490234375,-0.4394133687019348,0.09886159747838974,0.058251865208148956
1782811448588123600,4.49112353515625,-0.4519621729850769,0.02858184091746807,0.06831993907690048
1782811448598195500,4.501195556640625,-0.482057124376297,-0.0021140228491276503,0.03903515264391899
1782811448608266500,4.5112666015625,-0.5135740041732788,0.0007691152859479189,-0.006210357416421175
1782811448618337500,4.521337646484375,-0.5298250317573547,0.039075691252946854,-0.0551135279238224
1782811448628409600,4.53140966796875,-0.5340901017189026,0.09224170446395874,-0.08707358688116074
1782811448638480400,4.54148046875,-0.5305674076080322,0.15687412023544312,-0.08252008259296417
1782811448648552400,4.551552490234375,-0.5253984928131104,0.20317023992538452,-0.04446111246943474
1782811448658623500,4.56162353515625,-0.5198890566825867,0.2283906787633896,0.00806462299078703
1782811448668694500,4.571694580078125,-0.5133121013641357,0.2246265560388565,0.06461232155561447
1782811448678766600,4.5817666015625,-0.5056849122047424,0.20069074630737305,0.09550276398658752
1782811448688837600,4.591837646484375,-0.49487215280532837,0.16590240597724915,0.10724969953298569
1782811448698908700,4.60190869140625,-0.4736097753047943,0.1447126865386963,0.08750008791685104
1782811448708980500,4.61198046875,-0.4419541358947754,0.14113205671310425,0.05127204209566116
1782811448719051500,4.622051513671875,-0.4064968228340149,0.1386120468378067,0.009139939211308956
1782811448729123600,4.63212353515625,-0.37509655952453613,0.1467304229736328,-0.0267818421125412
1782811448739194600,4.642194580078125,-0.3345851004123688,0.15793178975582123,-0.030434072017669678
1782811448749265400,4.652265380859375,-0.2910826504230499,0.18469177186489105,-0.006390787661075592
1782811448759337500,4.66233740234375,-0.24503114819526672,0.19045208394527435,0.049390759319067
1782811448769408500,4.672408447265625,-0.2026381492614746,0.17687848210334778,0.11780337244272232
1782811448779479600,4.6824794921875,-0.15723711252212524,0.1721780002117157,0.1838124841451645
1782811448789551600,4.692551513671875,-0.10491184890270233,0.1828428953886032,0.23250731825828552
1782811448799622700,4.70262255859375,-0.05691554397344589,0.19367747008800507,0.2653607130050659
1782811448809693700,4.712693603515625,-0.024977581575512886,0.1916811615228653,0.27887067198753357
1782811448819765500,4.722765625,-0.0036895829252898693,0.17628394067287445,0.2711777091026306
1782811448829836500,4.73283642578125,0.00013551535084843636,0.14836709201335907,0.2508716583251953
1782811448839908600,4.74290869140625,-0.005102609284222126,0.1199161633849144,0.22545307874679565
1782811448849979600,4.752979736328125,-0.016249269247055054,0.10217791795730591,0.20183297991752625
1782811448860050400,4.763050537109375,-0.024663584306836128,0.11934510618448257,0.17793692648410797
1782811448870122500,4.77312255859375,-0.03942122682929039,0.13458159565925598,0.14760805666446686
1782811448880193500,4.783193603515625,-0.05407577008008957,0.1169532835483551,0.11232881993055344
1782811448890264600,4.7932646484375,-0.07034900784492493,0.06559022516012192,0.09383583068847656
1782811448900336400,4.80333642578125,-0.0728914812207222,0.027390554547309875,0.10846614837646484
1782811448910407400,4.813407470703125,-0.06802641600370407,0.03126252442598343,0.15971361100673676
1782811448920478500,4.823478515625,-0.057563744485378265,0.0516696572303772,0.20880216360092163
1782811448930550500,4.833550537109375,-0.041677724570035934,0.0594538077712059,0.23716670274734497
1782811448940621600,4.84362158203125,-0.034786563366651535,0.05025476589798927,0.23343916237354279
1782811448950693600,4.853693603515625,-0.03155934438109398,0.03404650092124939,0.20572178065776825
1782811448960764400,4.863764404296875,-0.03107728622853756,0.02978227473795414,0.16878147423267365
1782811448970835500,4.87383544921875,-0.036467526108026505,0.0453825406730175,0.12711071968078613
1782811448980907500,4.883907470703125,-0.03823728859424591,0.06218838319182396,0.08692608028650284
1782811448990978600,4.893978515625,-0.032242514193058014,0.058303095400333405,0.05226210877299309
1782811449001049600,4.904049560546875,-0.01722395047545433,0.031168412417173386,0.029371103271842003
1782811449011121400,4.914121337890625,-0.002554727718234062,0.020561043173074722,0.026680245995521545
1782811449021192400,4.9241923828125,0.022535664960741997,0.03886186704039574,0.038730014115571976
1782811449031263500,4.934263427734375,0.05445924028754234,0.06664449721574783,0.05754205211997032
1782811449041335600,4.94433544921875,0.09251954406499863,0.08575427532196045,0.09518583863973618
1782811449051406600,4.954406494140625,0.13388696312904358,0.11486315727233887,0.14434725046157837
1782811449061478700,4.964478759765625,0.17080579698085785,0.15675844252109528,0.19605101644992828
1782811449071549400,4.974549560546875,0.19566532969474792,0.22116219997406006,0.2406879961490631
1782811449081620500,4.984620361328125,0.20665279030799866,0.25892695784568787,0.25268152356147766
1782811449091692500,4.994692626953125,0.2070397585630417,0.20965956151485443,0.20979027450084686
1782811449101763600,5.004763671875,0.2078782171010971,0.08665537089109421,0.1334560364484787
1782811449111834600,5.014834716796875,0.20170819759368896,-0.08164149522781372,0.04380390793085098
1782811449121906400,5.024906494140625,0.16733074188232422,-0.2499220073223114,-0.027062244713306427
1782811449131977500,5.0349775390625,0.10313870012760162,-0.361691951751709,-0.08035103231668472
1782811449142049500,5.045049560546875,0.046625860035419464,-0.3967186510562897,-0.11487985402345657
1782811449152120600,5.05512060546875,0.0234379842877388,-0.34811756014823914,-0.1204245537519455
1782811449162191600,5.065191650390625,0.0407772995531559,-0.20713230967521667,-0.08141613751649857
1782811449172263700,5.075263671875,0.08241476118564606,0.000057365745306015015,-0.011609085835516453
1782811449182334500,5.08533447265625,0.12642019987106323,0.21698902547359467,0.07071717828512192
1782811449192405500,5.095405517578125,0.16762594878673553,0.35717037320137024,0.1295354962348938
1782811449202477600,5.1054775390625,0.19634586572647095,0.3945249617099762,0.16915462911128998
1782811449212548600,5.115548583984375,0.21497415006160736,0.3939555883407593,0.21053668856620789
1782811449222619400,5.125619384765625,0.24603371322155,0.3782827854156494,0.2426776885986328
1782811449232691200,5.135691162109375,0.30204105377197266,0.3585759401321411,0.27218174934387207
1782811449242762200,5.14576220703125,0.3743036687374115,0.34823131561279297,0.29999762773513794
1782811449252834300,5.155834228515625,0.44406357407569885,0.3096463680267334,0.31884294748306274
1782811449262905300,5.1659052734375,0.4948088824748993,0.2580166459083557,0.310263067483902
1782811449272976400,5.175976318359375,0.524458646774292,0.19470103085041046,0.2887071669101715
1782811449283048400,5.18604833984375,0.5535539388656616,0.11728314310312271,0.27178043127059937
1782811449293119500,5.196119384765625,0.5778291821479797,0.0284118615090847,0.2525840997695923
1782811449303190500,5.2061904296875,0.5913720726966858,-0.05070441961288452,0.23750445246696472
1782811449313262300,5.216262451171875,0.5882399082183838,-0.12006724625825882,0.21915313601493835
1782811449323333400,5.22633349609375,0.5671288967132568,-0.18009711802005768,0.18231967091560364
1782811449333404400,5.236404296875,0.534912645816803,-0.23443971574306488,0.12622231245040894
1782811449343476200,5.246476318359375,0.4912104904651642,-0.26766279339790344,0.07368836551904678
1782811449353547300,5.25654736328125,0.44138166308403015,-0.2703898847103119,0.030866332352161407
1782811449363619300,5.266619384765625,0.4024057984352112,-0.24896158277988434,-0.0024890401400625706
1782811449373690400,5.2766904296875,0.36491382122039795,-0.20160391926765442,-0.01987042836844921
1782811449383761400,5.286761474609375,0.3284001648426056,-0.11169925332069397,-0.01227047573775053
1782811449393833500,5.29683349609375,0.2997581362724304,0.013181431218981743,0.017763057723641396
1782811449403902200,5.306902099609375,0.2824111580848694,0.13712875545024872,0.07858888059854507
1782811449413974300,5.316974365234375,0.2677786946296692,0.22479654848575592,0.13432537019252777
1782811449424045300,5.32704541015625,0.2444177269935608,0.2627255916595459,0.16365383565425873
1782811449434116400,5.337116455078125,0.22434255480766296,0.26466357707977295,0.17149604856967926
1782811449444188400,5.3471884765625,0.20626510679721832,0.24554140865802765,0.16398370265960693
1782811449454259500,5.357259521484375,0.2035209834575653,0.21497896313667297,0.1440129280090332
1782811449464330500,5.36733056640625,0.21296341717243195,0.18611909449100494,0.11547469347715378
1782811449474402300,5.37740234375,0.21563243865966797,0.14414207637310028,0.07089737057685852
1782811449484473300,5.387473388671875,0.20810142159461975,0.09432373940944672,0.017087223008275032
1782811449494544400,5.39754443359375,0.18896393477916718,0.022819196805357933,-0.02581843174993992
1782811449504616200,5.4076162109375,0.16904932260513306,-0.03523138165473938,-0.046011995524168015
1782811449514687200,5.417687255859375,0.14983275532722473,-0.08629057556390762,-0.06617585569620132
1782811449524759300,5.42775927734375,0.12947608530521393,-0.13237318396568298,-0.09220660477876663
1782811449534830300,5.437830322265625,0.12069191783666611,-0.17499122023582458,-0.10778290033340454
1782811449544901400,5.4479013671875,0.12024179100990295,-0.178205206990242,-0.10279242694377899
1782811449554973400,5.457973388671875,0.11559723317623138,-0.1493716984987259,-0.08614740520715714
1782811449565044500,5.46804443359375,0.10027549415826797,-0.12118180841207504,-0.061506424099206924
1782811449575115500,5.478115478515625,0.08004585653543472,-0.10262836515903473,-0.029743170365691185
1782811449585187300,5.488187255859375,0.06122906506061554,-0.09803126752376556,-0.009780192747712135
1782811449595258400,5.49825830078125,0.03762999549508095,-0.10739414393901825,-0.00609570974484086
1782811449605330400,5.508330322265625,0.009709227830171585,-0.11351467669010162,-0.026890886947512627
1782811449615401200,5.518401123046875,-0.01469464786350727,-0.1351504623889923,-0.060042448341846466
1782811449625472300,5.52847216796875,-0.05083072930574417,-0.13411971926689148,-0.10006267577409744
1782811449635544300,5.53854443359375,-0.11900738626718521,-0.11711064726114273,-0.15307928621768951
1782811449645615400,5.548615478515625,-0.20102018117904663,-0.07155445963144302,-0.21066084504127502
1782811449655686400,5.558686279296875,-0.2703308165073395,0.002907786751165986,-0.27068930864334106
1782811449665758500,5.568758544921875,-0.3124215304851532,0.07664744555950165,-0.3539583384990692
1782811449675829500,5.57882958984375,-0.3101288378238678,0.1069028228521347,-0.43657544255256653
1782811449685900500,5.588900634765625,-0.3064153492450714,0.07171515375375748,-0.4433431625366211
1782811449695972400,5.598972412109375,-0.4340667724609375,0.02214174158871174,-0.28805264830589294
1782811449706043100,5.609043212890625,-0.5948964357376099,-0.059119053184986115,-0.11293022334575653
1782811449716115500,5.619115478515625,-0.623358964920044,-0.10985253751277924,0.059396274387836456
1782811449726186200,5.629186279296875,-0.5886276960372925,-0.07092904299497604,0.18643932044506073
1782811449736257300,5.63925732421875,-0.568474531173706,0.06276750564575195,0.20743940770626068
1782811449746329300,5.649329345703125,-0.5972156524658203,0.10948757082223892,0.09091765433549881
1782811449756400400,5.659400390625,-0.6621959805488586,0.0075188614428043365,-0.09382076561450958
1782811449766471400,5.669471435546875,-0.7710350155830383,-0.12125540524721146,-0.2579021453857422
1782811449776543500,5.67954345703125,-0.8497164845466614,-0.1636609137058258,-0.32644525170326233
1782811449786614500,5.689614501953125,-0.8772621750831604,-0.14864036440849304,-0.27517423033714294
