time,seconds_elapsed,z,y,x
1782811756239005000,0.0780048828125,-0.46740766839087006,-0.2670750656604767,-0.4501926219567656
1782811756249076700,0.08807666015625,-0.44222938799262046,-0.1645543101236224,-0.25425065540075303
1782811756259147800,0.098147705078125,-0.3148445325732231,-0.07384703423827886,-0.11475099929571152
1782811756269219800,0.1082197265625,-0.12549743423759938,-0.04939969846308231,-0.011481325087696313
1782811756279291000,0.118290771484375,0.1110737720876932,-0.07441255916655064,0.08204816861152649
1782811756289363000,0.128363037109375,0.32371582129299636,-0.07008855848759413,0.13245967446565626
1782811756299434000,0.13843408203125,0.485306313174963,-0.07276099256724118,0.17733268928453325
1782811756309506000,0.148506103515625,0.6596528262555599,-0.11547346835136413,0.22021891420036552
1782811756319577000,0.1585771484375,0.6849941882610321,-0.18139526254832744,0.25896394765824077
1782811756329649000,0.16864892578125,0.5823316861659288,-0.21947189522534608,0.21102862265929578
1782811756339721000,0.178720947265625,0.42436873713135714,-0.2841048186555505,0.12299027372226118
1782811756349792000,0.1887919921875,0.32519407715201376,-0.3659516194760799,-0.009598872341960668
1782811756359864000,0.198864013671875,0.33643326404690743,-0.4270233432933688,-0.1191369592949748
1782811756369935000,0.20893505859375,0.3508633559376001,-0.45918695253431796,-0.2339797285273671
1782811756380007000,0.2190068359375,0.30219547888040543,-0.4429568254843354,-0.33169118408635256
1782811756390078000,0.229077880859375,0.17536007403731346,-0.4176896977588534,-0.3808553202278912
1782811756400150000,0.23914990234375,-0.10455986014902591,-0.3440326331347227,-0.44950770843252535
1782811756410222000,0.24922216796875,-0.39048341866433617,-0.19967735369205475,-0.5268040063418448
1782811756420292900,0.25929296875,-0.5069195945680142,-0.10024754990786314,-0.5785898692891002
1782811756430365000,0.269364990234375,-0.48919279921948905,-0.015321780033409595,-0.6074674425967037
1782811756440436000,0.27943603515625,-0.47369127870500083,0.05677314984053373,-0.646859541786462
1782811756450507800,0.2895078125,-0.46799628193378445,0.10495733503401279,-0.6347261825308204
1782811756460578800,0.299578857421875,-0.41582945684492584,0.04833206923156976,-0.6749240451455116
1782811756470651000,0.30965087890625,-0.2807844420611858,0.015879998438060282,-0.7008138348139822
1782811756480722000,0.319721923828125,-0.06143208156228065,0.035490415576100345,-0.6734279613688587
1782811756490794000,0.3297939453125,0.19088789803683756,0.13098287991136312,-0.603716565630585
1782811756500866000,0.339865966796875,0.5661018513768911,0.2674552971497178,-0.5269726409070193
1782811756510937000,0.34993701171875,1.0462614493131637,0.40347120279222726,-0.34887671216502786
1782811756521009000,0.3600087890625,1.4773130252093076,0.5155021294742822,-0.1689019839391112
1782811756531080000,0.370079833984375,1.7961568565517663,0.5281507447756827,-0.037527912753075356
1782811756541152000,0.380152099609375,2.0522031631976363,0.5691749752119183,0.098375326295197
1782811756551223000,0.39022314453125,2.2069190931349993,0.670207684148103,0.2160055342890322
1782811756561295000,0.400295166015625,2.234130340665579,0.7748277500517666,0.28806071667447686
1782811756571367000,0.410366943359375,2.2703993393987414,0.7931359985500573,0.3481419681496918
1782811756581438000,0.42043798828125,2.355553072810173,0.7746024168632925,0.41942806585878134
1782811756591510000,0.430510009765625,2.4390321510076522,0.7627445135481655,0.5181086587108671
1782811756601580800,0.440580810546875,2.3813760808527467,0.8110073169358074,0.6775644766516983
1782811756611652900,0.45065283203125,2.220413950002193,0.9269147927902638,0.8026441238686441
1782811756621724000,0.460723876953125,2.1518132919847965,1.0458663125157355,0.9144482560575008
1782811756631796000,0.4707958984375,2.144405646076798,1.1713937035001813,0.9718385148830712
1782811756641867000,0.480866943359375,2.152151730158925,1.216386837567389,1.0069031062625349
1782811756651938800,0.490938720703125,2.197110815826058,0.9835454654201865,1.0408044990815222
1782811756662011000,0.501010986328125,2.2858564362496137,0.6066586104318499,0.984295991526544
1782811756672082000,0.51108203125,2.2602578846126793,0.3315753026217222,0.8973726180940866
1782811756682154000,0.521154052734375,2.204006420558691,0.15463409687280655,0.8282460365064441
1782811756692225000,0.53122509765625,1.981155112028122,0.13359408532306552,0.8338251518130302
1782811756702297000,0.541297119140625,1.433604231864214,0.3372955799646675,0.9499217204988002
1782811756712368000,0.5513681640625,0.8457897303730249,0.6948894132010638,1.1689879575327038
1782811756722440000,0.56143994140625,0.6412134987235069,0.9358389807410538,1.3491203605383635
1782811756732512000,0.571511962890625,0.5239408719956875,0.9507159396164119,1.3604820047691464
1782811756742583000,0.5815830078125,0.043051790741086005,0.8869685668490827,1.2042147537365555
1782811756752655000,0.591655029296875,-0.780331462034583,0.9272824570588767,0.8813697239287197
1782811756762726100,0.60172607421875,-1.7285189060866832,1.053116064448282,0.4939708272762596
1782811756772798000,0.6117978515625,-2.449711365932226,1.1318497016843407,0.19392675427608191
1782811756782868700,0.62186865234375,-2.767266326507926,1.1263622832491993,-0.06489493536725639
1782811756792940800,0.63194091796875,-2.924573441982269,0.9747430041529238,-0.3665940820980817
1782811756803011800,0.64201171875,-3.4527649571597574,0.6999976961255073,-0.7472433583598583
1782811756813084000,0.652083984375,-4.076208405914903,0.5275989561118185,-0.8733389046210795
1782811756823156000,0.662156005859375,-4.6872032919853925,0.49841319363787767,-0.5724737244963646
1782811756833227000,0.67222705078125,-5.191757910987734,0.5220268550679087,-0.009025291971396654
1782811756843298800,0.682298828125,-5.21414743745029,0.36727366186007854,0.22931531691290435
1782811756853369900,0.692369873046875,-4.5152094795107836,0.00799129101485014,-0.0855430706557352
1782811756863442000,0.70244189453125,-3.371658453312516,-0.40796851421147584,-0.4796118278604001
1782811756873513000,0.712512939453125,-3.1489661347359417,-1.0173445669084786,-1.0397830470792948
1782811756883585000,0.7225849609375,-3.576256896793842,-1.672076595635712,-1.7080371129415928
1782811756893656000,0.732656005859375,-4.057994703832269,-2.494472883200645,-2.382631341610849
1782811756903728000,0.74272802734375,-4.640569551104307,-3.323707200092077,-2.7548320846095677
1782811756913800000,0.752800048828125,-5.244913747113943,-3.738186411371827,-2.757323024642467
1782811756923871000,0.76287109375,-6.0313201451480385,-3.966563789847493,-2.6216400042161343
1782811756933943000,0.772943115234375,-6.759846601143479,-4.089738334095478,-2.640412801486254
1782811756944013800,0.783013916015625,-7.309795190098881,-3.884799698874354,-2.570675832915306
1782811756954086100,0.793086181640625,-8.986902473378182,-2.8098882013991475,-2.1384265716671944
1782811756964157000,0.803156982421875,-10.313946026664972,-1.4235051549151538,-1.1761881712350994
1782811756974228700,0.813228759765625,-9.503649049955605,-0.5715696152634918,-0.13788250323198734
1782811756984299800,0.8232998046875,-6.204484754967689,-0.27272257002815603,0.5384535276032983
1782811756994371800,0.833371826171875,-1.8239695771068334,-0.45699989081881937,0.980763360420987
1782811757004444000,0.84344384765625,1.81058519487679,-1.0485831702589987,0.9832632874779402
1782811757014515000,0.853514892578125,3.6949271153599024,-1.242479894722998,0.6113757020816206
1782811757024587000,0.8635869140625,3.8239153143227096,-0.6820110807970166,0.7688283635064959
1782811757034658000,0.873657958984375,2.253352343007922,0.04450421803910285,1.4354136193737388
1782811757044729900,0.883729736328125,0.7807517332732677,0.593549574544467,2.0447158761821687
1782811757054801000,0.89380078125,-0.3648375207543373,1.0388364869441837,2.5400959857344625
1782811757064873000,0.903873046875,-1.645021123188734,1.4154554117113352,2.996333733074367
1782811757074944000,0.913944091796875,-2.255185403653979,1.1640037393793463,3.117390846776962
1782811757085016000,0.92401611328125,-1.1433218936175107,0.3896702756505459,2.727020825359225
1782811757095088000,0.934088134765625,1.2389677949488163,-0.29960473173484203,2.256256978408247
1782811757105159200,0.9441591796875,3.778682672411203,-0.889031490728259,1.776662759269774
1782811757115231200,0.954231201171875,5.335841972273588,-1.3999856015093624,1.2342704309128225
1782811757125302300,0.96430224609375,5.8378486603587865,-1.8545853723838923,0.9516730942107736
1782811757135374300,0.974374267578125,5.767087609437108,-2.094939165987819,0.7909991326518356
1782811757145445400,0.9844453125,5.707023893618583,-2.0771637091919777,0.7810121377751231
1782811757155517400,0.994517333984375,5.053666368114948,-1.7529608350344001,1.0937629129394888
1782811757165589200,1.00458935546875,4.1213557076305145,-1.1827543248176573,1.4814667838878928
1782811757175660300,1.014660400390625,3.874663504785299,-0.6849875393245369,1.7676522082097827
1782811757185732400,1.024732421875,4.126629848641157,-0.4093096631547436,1.900471655898541
1782811757195803100,1.03480322265625,4.739302312535047,-0.28540278604421765,1.8959581239968537
1782811757205875500,1.04487548828125,5.473796737024188,-0.4295836587680503,1.7857919682733714
1782811757215946200,1.0549462890625,6.302804259422421,-0.6042910410502925,1.5272918387345968
1782811757226018300,1.065018310546875,7.130136542084813,-0.6161773302096873,1.2947595325365662
1782811757236089300,1.07508935546875,7.591437710294127,-0.5808787839438766,1.2006317806832492
1782811757246161200,1.0851611328125,7.7921040750235315,-0.5599906384875998,1.0279290892869233
1782811757256233200,1.095233154296875,7.780792991936206,-0.5074203106317668,0.7228012102164327
1782811757266304300,1.10530419921875,7.215547465127706,-0.33138467542044814,0.41753136539198454
1782811757276376300,1.115376220703125,5.972915886974334,0.0501415298063308,0.3760357911169529
1782811757286447400,1.125447265625,4.403248987716436,0.6577476502213627,0.46343394245430825
1782811757296519200,1.135519287109375,2.77173441183269,1.4582541044741868,0.47900947805307803
1782811757306590200,1.145590087890625,1.2991729650646446,1.9926001967586575,0.3096099929206073
1782811757316662300,1.155662353515625,0.07932137399613856,2.2923688868835566,-0.14850081828217954
1782811757326733300,1.1657333984375,-0.6649111851751804,2.5348253518551584,-0.655534211955592
1782811757336805400,1.175805419921875,-1.3805822512507437,2.497140641105175,-1.1049110605500638
1782811757346877400,1.18587744140625,-2.616260357004404,2.377856674554944,-1.6512861749328671
1782811757356948500,1.195948486328125,-3.604448387533426,1.6237730218462645,-2.021682498858124
1782811757367020300,1.206020263671875,-3.671939038482308,0.22340587367340922,-1.842249037902057
1782811757377091000,1.216091064453125,-3.5571979760587213,-1.0803658173583448,-1.271842475068569
1782811757387163400,1.226163330078125,-3.2818460804402827,-1.793094838632643,-1.0821756432592868
1782811757397234200,1.236234130859375,-3.723329618501663,-1.4941612841576337,-1.6859122287645936
1782811757407306200,1.24630615234375,-5.507172352403402,-1.257071168524772,-1.428892693172395
1782811757417377300,1.256377197265625,-7.789471388432383,-1.6546050902225076,0.10704608747418969
1782811757427449300,1.266449462890625,-9.682173725503683,-1.950687054658681,0.8814775682173669
1782811757437521200,1.276521240234375,-10.671873329639434,-1.9775816374555228,0.5515671666005626
1782811757447592200,1.28659228515625,-11.539829883635043,-1.715811107943952,0.08002676405282691
1782811757457664300,1.296664306640625,-12.440547720503806,-1.5179790898576377,-0.21655094801103694
1782811757467735300,1.3067353515625,-11.579018569207191,-1.5407652144223452,-0.23228976614642888
1782811757477807400,1.316807373046875,-9.200864957532286,-2.036039233251661,-0.31314160111285744
1782811757487878400,1.32687841796875,-7.1781731355011456,-2.379946778701991,-0.6717117320355027
1782811757497950200,1.3369501953125,-6.273419174984097,-1.983485893063247,-0.9190092803627252
1782811757508021200,1.347021240234375,-6.399719157776236,-1.0325498809553681,-0.686599139239639
1782811757518093300,1.35709326171875,-6.908892668750882,-0.10104107490573078,-0.21210195097923276
1782811757528164400,1.367164306640625,-6.9291866842389105,0.6322782779220492,0.5578820488357916
1782811757538236400,1.377236328125,-5.639526228407025,0.934987186217308,1.033300480126962
1782811757548308500,1.38730859375,-2.518356447613239,0.5957695521488785,1.161192189089954
1782811757558379300,1.397379150390625,0.748135996350646,-0.21272632995527235,0.7998816734179854
1782811757568451000,1.407451171875,3.1727398090332746,-1.0904279963631183,0.02905994413718581
1782811757578522000,1.417522216796875,4.652690197008848,-1.786167523587495,-0.5924428919441997
1782811757588594200,1.42759423828125,6.040395432007313,-2.0611327579759062,-0.707845340885967
1782811757598665200,1.437665283203125,7.1617498239666215,-2.0856961213462055,-0.40747181673571464
1782811757608737300,1.4477373046875,7.696302106347679,-1.9030358072981237,0.22440789032280445
1782811757618808300,1.457808349609375,6.963067911052703,-1.242398792310804,1.2829720641091464
1782811757628880400,1.46788037109375,5.216341148102283,-0.1649775770369917,2.492793551811576
1782811757638952200,1.4779521484375,3.721080378270149,0.812821819011867,3.364393138484657
1782811757649023200,1.488023193359375,3.1917893774181603,1.3081409921571612,3.7536931925833223
1782811757659095300,1.49809521484375,3.7952410085022446,1.3882275053068995,3.6969834633678196
1782811757669166300,1.508166259765625,4.960107794451713,1.1936861993290484,3.4404277458950876
1782811757679238400,1.51823828125,6.224063900184631,0.9136430771544575,3.1507594478935
1782811757689309400,1.528309326171875,7.354945998945832,0.43667021949552,2.7957039009630678
1782811757699381200,1.53838134765625,8.160792425987124,-0.04432955559194088,2.398862345443666
1782811757709452300,1.548452392578125,8.393060966682434,-0.34584830425456164,2.0366521044529975
1782811757719524400,1.5585244140625,8.379278525045514,-0.45674525847062464,1.8416667079694569
1782811757729596400,1.568596435546875,8.166838720414042,-0.38561712780222296,1.8664847767531871
1782811757739667200,1.578667236328125,7.80437961922884,-0.1939381524529308,2.007085964359343
1782811757749739300,1.5887392578125,7.429440391176938,0.04661101759262383,2.074185570164025
1782811757759810300,1.598810302734375,7.2544473968863485,0.2711448723826557,2.1549815467573703
1782811757769882000,1.608882080078125,7.071799503928423,0.36357889899536966,2.0702716115906834
1782811757779953200,1.618953125,6.764594087931513,0.31771869977004824,1.7757061891973018
1782811757790025200,1.629025146484375,6.254557238125801,0.23498868637420237,1.4667083368256688
1782811757800096300,1.63909619140625,5.563153767344355,0.2269175350561738,1.2125647950612009
1782811757810168300,1.649168212890625,4.737186343294382,0.39483810674250125,1.0214313247654587
1782811757820240400,1.659240478515625,3.529426756557822,0.7861120912626385,1.00001159318313
1782811757830311400,1.6693115234375,1.6491542774707078,1.3833305270455776,1.03533271660693
1782811757840383200,1.67938330078125,-0.9114274469316005,1.9179728257976472,0.9963797394867986
1782811757850454300,1.689454345703125,-3.46512467251718,2.318613773600012,0.698903105821833
1782811757860526300,1.6995263671875,-6.138497494319081,2.752463894173503,0.28365371388718486
1782811757870597400,1.709597412109375,-8.384515841177105,2.4268662046566605,-0.1282735844200477
1782811757880669400,1.71966943359375,-9.548166237074136,1.3960399326235056,-0.32704175084531306
1782811757890740500,1.729740478515625,-9.625429509496689,0.37598508384302254,0.11757493414264171
1782811757900812300,1.739812255859375,-8.796900126004218,-0.6183804662771523,0.3489086051406339
1782811757910884400,1.74988427734375,-8.023792770004272,-0.9870902984201908,-0.6330299730721861
1782811757920955100,1.759955078125,-8.581571029672027,-0.9381668391667306,-1.4872422985494136
1782811757931027200,1.770027099609375,-10.290485656100511,-1.4278086973279713,-1.2842425224363803
1782811757941098200,1.78009814453125,-11.424594900214672,-2.4736329242676494,-1.197159428397566
1782811757951170300,1.79017041015625,-11.741522668802737,-3.012558891688287,-1.3823583210125565
1782811757961241300,1.800241455078125,-11.795048507285117,-2.8684844750136134,-1.526559578937292
1782811757971313200,1.810313232421875,-11.818234152561425,-2.358176699312031,-1.6743207213006912
1782811757981384200,1.82038427734375,-11.19083758226633,-2.332923015590012,-1.9315815183028577
1782811757991456300,1.830456298828125,-9.580171733143924,-2.808370782573521,-2.1203706904947754
1782811758001527300,1.84052734375,-7.803007746353745,-3.2394699970036744,-2.181969068534672
1782811758011599400,1.850599365234375,-5.95710983055532,-3.1839795804500577,-2.26742733785063
1782811758021671200,1.860671142578125,-3.841125392320752,-2.786712785255909,-2.3139373062215745
1782811758031742200,1.8707421875,-2.1029706428825854,-2.04210730111897,-2.241692300352454
1782811758041814300,1.880814208984375,-0.9155746297389268,-1.2533354891277848,-2.0197154365688563
1782811758051885300,1.89088525390625,-0.019703063857555388,-0.7987836490482091,-1.8844119169794022
1782811758061957400,1.900957275390625,0.5281079285472631,-0.6385457408189773,-1.9507183265797792
1782811758072028400,1.9110283203125,1.1812047572880984,-0.42997532496675844,-1.8220009073823689
1782811758082100500,1.9211005859375,1.9097090014517306,-0.09991232660412788,-1.1537313516899943
1782811758092171300,1.931171142578125,2.686210676065087,0.1850985009804368,-0.43606940405815836
1782811758102243000,1.9412431640625,3.3944629903167485,0.23692981050461528,0.14562296129092572
1782811758112314000,1.951314208984375,4.257400254845619,0.13564882589578628,0.6815899327754974
1782811758122386000,1.961385986328125,5.667662774088979,-0.16350144006982445,1.0027334193624555
1782811758132458000,1.9714580078125,7.451603707668185,-0.6871019741952419,1.0973794960014522
1782811758142529000,1.981529052734375,9.138221746614574,-1.078385603326559,1.2298647432997822
1782811758152601000,1.99160107421875,9.80482395361662,-1.0956582982320338,1.5220948546133934
1782811758162672000,2.001672119140625,9.405643433755635,-0.591265664858371,1.9662807835012672
1782811758172744000,2.011743896484375,8.260050088074802,0.11957052840664982,2.465573244191706
1782811758182814700,2.021814697265625,7.341314948478341,0.6321976139012724,2.808714189183712
1782811758192887000,2.031886962890625,6.806621796321869,0.7551142378654331,2.7881887030273673
1782811758202957800,2.041957763671875,6.513517386391759,0.6405944169770926,2.6725191275820133
1782811758213030000,2.05202978515625,6.613256694516539,0.4067580424431711,2.5636679999798533
1782811758223102000,2.06210205078125,6.913593978309631,-0.016005670644342898,2.3538858702503145
1782811758233173000,2.072173095703125,7.110231818175316,-0.462306107468158,2.101354732118547
1782811758243244800,2.082244873046875,7.257710198074578,-0.8278431547939777,1.8208841783121228
1782811758253315800,2.09231591796875,7.275625209471583,-1.0747620060019194,1.5349191187426448
1782811758263388000,2.102387939453125,7.190113164141774,-1.274500588361919,1.2363009138271213
1782811758273459000,2.112458984375,7.169577741113304,-1.3679213609896599,1.074799634598568
1782811758283531000,2.122531005859375,7.089418747249245,-1.263219023630023,1.1724473042063415
1782811758293602000,2.13260205078125,6.74550360301435,-1.1496898212142288,1.3357787945367394
1782811758303673900,2.142673828125,5.889142794266343,-1.0407081991001963,1.4847574959963559
1782811758313746000,2.152745849609375,4.878274729895591,-0.844711579747498,1.5022893532946704
1782811758323817000,2.16281689453125,3.431131217500567,-0.7195694617535918,1.3972303114518523
1782811758333889000,2.172888916015625,1.3897452163934707,-0.6318162864334881,1.2746043409973382
1782811758343960000,2.1829599609375,-0.9940110375940799,-0.5071225697942078,1.0853246088095008
1782811758354032000,2.1930322265625,-3.3879426486372948,0.014489128601551056,0.936960897443071
1782811758364103000,2.20310302734375,-6.037496787956357,1.148016627305001,0.9662755469936877
1782811758374174700,2.2131748046875,-8.610142459639906,2.3252282233037054,1.0600955480720846
1782811758384245800,2.223245849609375,-10.291632488048077,2.5588357575178144,0.8721373468115925
1782811758394317800,2.23331787109375,-11.10536411538124,1.2908270153932273,0.737427993723005
1782811758404388900,2.243388916015625,-10.536382324653863,-0.8028453455291688,1.0507757118672132
1782811758414461000,2.2534609375,-8.963922579807043,-2.615753576526046,1.2566815846852957
1782811758424533000,2.263532958984375,-8.156241923075914,-2.7712542271003127,-0.10033170279366894
1782811758434604000,2.27360400390625,-9.764851424190402,-1.3535291168913244,-1.6962750712163746
1782811758444675800,2.28367578125,-12.367516386562585,-0.7880877752497791,-1.4267179794818161
1782811758454747000,2.293746826171875,-13.485866920530794,-1.1083622239172457,-1.1016574655815958
1782811758464819000,2.30381884765625,-13.438837458330392,-1.4120011796042322,-1.5150919901140034
1782811758474890000,2.313889892578125,-13.70546244213581,-1.3619199286177754,-1.9238000706464051
1782811758484962000,2.323962158203125,-13.79643742904663,-1.061820252972841,-2.2885825002126396
1782811758495033000,2.334033203125,-12.608141836714744,-1.016124085202813,-2.6212720476865767
1782811758505105000,2.34410498046875,-10.194517683207987,-1.116060669465363,-2.5649273523911833
1782811758515177000,2.354177001953125,-7.069395949918031,-1.0452236306980252,-2.242487103991955
1782811758525248000,2.364248046875,-3.50335824932158,-1.0634539916545152,-2.0592621417984365
1782811758535320000,2.374320068359375,-0.44783729100227354,-1.1190060752674937,-1.996457018317282
1782811758545390800,2.384390869140625,1.879111034092307,-0.7489382526442409,-1.6247434743136167
1782811758555463000,2.394462890625,3.17026845048368,0.20443945352733134,-0.6994044064074755
1782811758565534000,2.404533935546875,2.812236518090963,1.4798764459565281,0.47348399262987073
1782811758575605800,2.414605712890625,1.313904085728526,2.3630723623991012,1.131876808886975
1782811758585676800,2.4246767578125,0.4162216710329055,2.5620991432279347,1.1291918075866996
1782811758595748900,2.434748779296875,0.772602913609147,2.399260697111487,1.030893930441886
1782811758605820000,2.44481982421875,2.2049919244647023,1.7166963663458823,0.6793411309354007
1782811758615892000,2.45489208984375,3.842389713168144,0.6284960559695959,-0.059818801146745676
1782811758625964000,2.464964111328125,5.264041641432047,-0.2842746222645044,-0.5460957129195332
1782811758636035000,2.47503515625,6.795956609922647,-0.7668617396086453,-0.5788238241754472
1782811758646107000,2.48510693359375,8.430701838290691,-1.014043917927891,-0.42984234623685474
1782811758656178000,2.495177978515625,9.176663413211703,-0.9146766579858958,-0.23163813383728266
1782811758666250000,2.50525,9.141694391161202,-0.4010169415079057,0.16180515754595398
1782811758676321000,2.515321044921875,8.639202549907564,0.4580917046435177,0.9237298060785979
1782811758686393000,2.52539306640625,8.027573457586765,1.3004213576905428,1.7190316774256527
1782811758696464100,2.535464111328125,7.639751951608061,1.9577914798364042,2.2978800515204667
1782811758706536000,2.545535888671875,7.505437589186429,2.2603210129767657,2.65510680501014
1782811758716607000,2.55560693359375,7.626226115080714,2.229900448010862,2.6860882187291977
1782811758726678800,2.5656787109375,7.992752319574356,1.8657792588323354,2.4241058000326157
1782811758736750800,2.575750732421875,8.514394851499796,1.3635316015981136,2.0363551673330367
1782811758746822000,2.58582177734375,8.973659545445441,0.8424344285957515,1.6926828919433057
1782811758756894000,2.59589404296875,9.295232509490846,0.3681286712542176,1.351016257287562
1782811758766965000,2.605965087890625,9.174670193567872,-0.026675094827264545,1.024931441840902
1782811758777036800,2.616036865234375,8.80238235680759,-0.3051799015186727,0.8468089904181658
1782811758787107800,2.62610791015625,8.1916651186347,-0.4607487950235605,0.793246765448153
1782811758797180000,2.636179931640625,7.164622164532542,-0.43744902184829115,0.9323222047917544
1782811758807251000,2.6462509765625,5.839470124080777,-0.4399060596115887,1.0435095202565192
1782811758817323000,2.656322998046875,4.592583226570487,-0.4142226061701774,1.0159414951775223
1782811758827395000,2.66639501953125,3.5078222429931163,-0.3446792604751885,1.0368741008300333
1782811758837466000,2.676466064453125,2.481086162883043,-0.2741566944845021,1.1147277403611688
1782811758847538000,2.686537841796875,0.9112690414994955,-0.08650120249763131,1.1462477179363368
1782811758857609000,2.69660888671875,-1.097701713693142,-0.04668839367777109,1.08220450402759
1782811758867681000,2.706680908203125,-2.509166009941697,-0.18816139568239448,0.7621019778609275
1782811758877752000,2.716751953125,-3.4047669421881435,0.13243424776345492,0.45663164202831685
1782811758887824100,2.72682421875,-4.638389868977666,0.796284817969799,0.6309926950909197
1782811758897895000,2.73689501953125,-6.271602480950952,0.7982023420289158,1.0933205759994684
1782811758907967000,2.746967041015625,-8.150573229789734,-0.349746334606409,1.1359156359490006
1782811758918038000,2.7570380859375,-9.53982101805508,-2.2495284008055925,0.7191053513731807
1782811758928109800,2.76710986328125,-9.936951619648934,-4.019356930141151,-0.23783165471516549
1782811758938182000,2.777181884765625,-10.022198292040825,-3.936647375011444,-2.812642176282406
1782811758948253000,2.7872529296875,-11.133466758793592,-3.4789372170314192,-4.335780256338417
1782811758958325000,2.797324951171875,-11.805925290608405,-4.079603601311147,-3.834099439206719
1782811758968396000,2.80739599609375,-11.559420719289779,-4.273218878485262,-3.4767601652532814
1782811758978467800,2.8174677734375,-11.247861199736594,-3.8093969596266746,-3.359433762511611
1782811758988539000,2.827538818359375,-12.19902327568531,-2.749590969085693,-2.8679642505317924
1782811758998611000,2.83761083984375,-12.88568101324439,-1.2812233207456767,-2.0046262962475416
1782811759008682000,2.847681884765625,-11.241949345344304,0.08502733055278658,-1.0173080342903733
1782811759018754000,2.857754150390625,-8.303343286356329,1.1769973687261341,-0.06981054526381195
1782811759028825000,2.8678251953125,-6.052305065509676,2.0389245794296262,0.5905824318345636
1782811759038897200,2.877897216796875,-5.0794157263994215,2.803717696070671,0.8635803847379981
1782811759048969000,2.887968994140625,-5.145311217111349,3.1573350268915292,0.9859316299043596
1782811759059040000,2.8980400390625,-5.370350391075014,2.8296687144070862,0.6086264033734798
1782811759069112000,2.908112060546875,-4.693004671740532,1.971270262351632,-0.12799071235805748
1782811759079182800,2.918182861328125,-2.861823848080635,0.9454451596066356,-0.735052935154736
1782811759089255000,2.9282548828125,-0.4001327060192823,0.09213394768759607,-1.0775826163806022
1782811759099326000,2.938325927734375,1.7906231878221035,-0.612825900889933,-1.1796956678994
1782811759109398000,2.94839794921875,3.5533816326409577,-1.073491693805158,-1.047497420848906
1782811759119469000,2.958468994140625,4.741168106406927,-1.3190242052212358,-0.7271746029950678
1782811759129541000,2.968541015625,5.761742156755924,-1.35143009878546,-0.1645554791674018
1782811759139612000,2.97861181640625,6.763194742527603,-1.2457628619164227,0.6132146079465747
1782811759149684200,2.988684326171875,7.628213489505648,-0.9627997606419026,1.3959678903006016
1782811759159756300,2.99875634765625,7.981943925312161,-0.5626753840595483,1.892271398308128
1782811759169827000,3.0088271484375,7.927509155291318,-0.13113631690740585,2.1609052377179263
1782811759179899000,3.01889892578125,7.754398321485519,0.34933643863126634,2.4960575220435857
1782811759189970000,3.028969970703125,7.660227753403783,0.7270708503596485,2.804993122833967
1782811759200042000,3.0390419921875,7.490930340406298,0.7918938895344734,2.7670260880112645
1782811759210113000,3.049113037109375,7.284552612292766,0.6765406865619122,2.421912235511094
1782811759220185000,3.05918505859375,7.050695341101289,0.31111382161229845,1.9612132709786294
1782811759230256000,3.069256103515625,7.009455568218231,-0.2665729613572359,1.356746179241687
1782811759240328200,3.079328125,7.285383802419901,-0.8284376135557889,0.8480885088346898
1782811759250399200,3.089399169921875,7.743650132977962,-1.3685145045772193,0.4694561253532767
1782811759260471000,3.099470947265625,8.321458204239606,-1.8539179945163429,0.261391759327054
1782811759270543000,3.109543212890625,9.045137804725766,-2.119972631087899,0.21385770860537887
1782811759280614100,3.1196142578125,9.430672076550126,-2.239776237598061,0.14310630229488014
1782811759290686200,3.129686279296875,9.428403547096252,-2.271417284269631,0.09748159232586621
1782811759300757200,3.13975732421875,9.208594675001502,-2.215743327842653,0.09146357414536177
1782811759310829000,3.1498291015625,8.451102821284532,-2.2422785758078096,0.19995463626347482
1782811759320899800,3.15989990234375,7.187859247735142,-2.2517319021992384,0.20689597983397542
1782811759330972200,3.16997216796875,5.774569489625096,-2.240694521486759,0.11201689815670252
1782811759341043000,3.18004296875,4.3798277801185845,-2.1439197622559965,0.158454166617617
1782811759351115000,3.190114990234375,3.0410289071083065,-1.7445811292238533,0.3749896065322682
1782811759361187000,3.20018701171875,1.6273323217630384,-1.2191278068386018,0.6702462625928223
1782811759371258000,3.210258056640625,0.09967968689203262,-0.4772378652706742,0.9051324384406209
1782811759381330000,3.220329833984375,-1.522607626441121,0.5877988655306399,1.1559197285797447
1782811759391401000,3.23040087890625,-4.0036528727918865,1.6725924362033604,1.3298244161769748
1782811759401473000,3.24047314453125,-6.323336759841442,2.5753172289803623,1.5337160265631973
1782811759411544000,3.2505439453125,-8.131026233276724,2.77445769931674,1.827324294362217
1782811759421616000,3.2606162109375,-9.778401226115227,1.9168733401231466,1.851869829814881
1782811759431687200,3.270687255859375,-10.795109248685836,0.4959504567861557,1.5154799665182828
1782811759441759200,3.28075927734375,-11.149377444630861,-0.7336180800460279,0.4829525165904313
1782811759451830300,3.290830322265625,-10.713585980731247,-0.7347161044158041,-1.4540364867791533
1782811759461902000,3.300902099609375,-10.385164173704386,-0.3105807376489043,-2.4113554779224096
1782811759471974100,3.31097412109375,-9.936806658220291,-0.36578093908429143,-1.5651820089288055
1782811759482045200,3.321045166015625,-9.485118537008761,-0.2715351138092577,-1.0693301902115344
1782811759492117200,3.3311171875,-9.701644734171031,0.1442401286303997,-1.0933152422372252
1782811759502188000,3.34118798828125,-10.390435392105578,0.8691828809201717,-0.8561104872487485
1782811759512259800,3.351259765625,-11.30061079314947,1.4783923448786138,-0.7794163930162787
1782811759522331000,3.361330810546875,-11.377066256320475,1.5830837224528194,-1.1638497178614138
1782811759532403000,3.37140283203125,-9.736742351037263,1.0779193009890615,-1.8163520878404378
1782811759542474000,3.381473876953125,-7.438442612800002,0.4765656650975346,-2.4571754182025787
1782811759552546000,3.391546142578125,-4.7538925634235145,-0.13924407390877605,-2.6636095526784658
1782811759562617000,3.4016171875,-2.130696854197979,-1.030829779164493,-2.839743533697724
1782811759572689200,3.411689208984375,0.193169871494174,-1.687209282837808,-3.162600107812881
1782811759582761000,3.421760986328125,2.1413877595603465,-1.6365644066192209,-2.8463594447061418
1782811759592832000,3.43183203125,2.8532518345683813,-0.8726485112041235,-1.9391148364171384
1782811759602904000,3.441904052734375,3.1369290754616257,0.34732955578826363,-0.7807548020131886
1782811759612975000,3.45197509765625,3.2205104449898,1.4381196634620428,0.3916026319526136
1782811759623047200,3.462047119140625,2.80800925578475,1.8458926551014183,1.1477408791035413
1782811759633118200,3.4721181640625,2.030609171026945,1.590536961068213,1.1808107895344495
1782811759643190300,3.482190185546875,1.6483523134380578,0.8848273170366883,0.958672597709298
1782811759653261300,3.49226123046875,2.081206554841995,-0.2921744721362367,0.598808773714304
1782811759663333000,3.5023330078125,3.0425270367115735,-1.987141492961347,-0.04461377936080098
1782811759673404000,3.51240380859375,3.923717750811577,-3.16873817217648,-0.7010131567783653
1782811759683476000,3.52247607421875,4.341362148123979,-3.294829772914946,-0.8473189857669174
1782811759693548000,3.532548095703125,4.60932568705678,-2.900282173551619,-0.19787132718339562
1782811759703619000,3.542619140625,4.725729714256524,-2.534817753070593,0.8902667316116392
1782811759713691000,3.55269091796875,4.7920700261265035,-2.5444851606041192,1.798750526306778
1782811759723762000,3.562761962890625,5.074928351852297,-2.49525701931566,2.2740243980281054
1782811759733834000,3.572833984375,5.5031619477182625,-2.072747061793506,2.3724033775851128
1782811759743905000,3.582905029296875,5.842481580856442,-1.5905449982441962,2.5296985103607175
1782811759753977000,3.59297705078125,5.964049858951569,-1.3366940096855162,2.8496681308627125
1782811759764048100,3.603048095703125,6.022769174423813,-1.234061318206787,3.167941468840837
1782811759774120200,3.6131201171875,6.1890299962043755,-1.2817277631364763,3.3568943071618675
1782811759784191200,3.623191162109375,6.390100265559553,-1.4741764807492495,3.2566353590771553
1782811759794263000,3.633262939453125,6.497125639039278,-1.7426754417330026,2.8089740091636775
1782811759804335000,3.643335205078125,6.412115113490819,-2.066770325471461,2.206317766240984
1782811759814406100,3.65340625,6.327511999699473,-2.370766862424463,1.6532769103586673
1782811759824478200,3.663478271484375,6.132320851510763,-2.555876615451276,1.2622040013685822
1782811759834549200,3.67354931640625,5.708537805312871,-2.4558254648983477,1.24118021030128
1782811759844621000,3.68362109375,4.735617486542463,-1.9818001319333909,1.395438751859963
1782811759854692000,3.693692138671875,3.375779917156696,-1.3629524865359066,1.501860460358113
1782811759864764000,3.703763916015625,1.3715315143108366,-0.59322344786264,1.5534696515642106
1782811759874835000,3.7138349609375,-0.7589128264307975,-0.02452960723116994,1.6049807892233132
1782811759884907000,3.723906982421875,-2.710318112361431,0.7331664638210088,1.4640917245864866
1782811759894978000,3.73397802734375,-5.25331098858118,1.7609068256027995,0.8877628590319305
1782811759905050000,3.744050048828125,-8.156018635714053,2.549610248532891,0.1463951147072017
1782811759915121200,3.75412109375,-10.592455509531497,2.370582445768267,-0.6296385040029883
1782811759925193000,3.76419287109375,-11.800719538658857,1.3381130827032028,-0.9426662694778293
1782811759935265000,3.77426513671875,-11.529905870991945,0.14318331305384635,-0.4030897291939705
1782811759945336000,3.784336181640625,-9.841211610293389,-0.5285343372657895,0.291396510033682
1782811759955408100,3.794408203125,-8.345158228778839,-0.3545687863267958,-0.02364822128675878
1782811759965479200,3.804479248046875,-7.911948598065972,0.25413170519620176,-1.844961950122565
1782811759975551200,3.81455126953125,-8.34961228557825,0.28984102421998975,-2.794103480029106
1782811759985622300,3.824622314453125,-9.294800547814368,-0.7572521997421979,-2.2360922883883116
1782811759995694000,3.834694091796875,-10.056332032310962,-1.8988158515155313,-1.5879866920635104
1782811760005764900,3.844764892578125,-10.682543192213773,-1.9440774272605776,-2.0583295371234414
1782811760015837200,3.854837158203125,-11.757253321897982,-1.2211328630506992,-2.9626453984841703
1782811760025908000,3.864907958984375,-12.723956665849684,-0.6694082043334841,-3.517404894852638
1782811760035980000,3.87497998046875,-12.410156089371442,-0.4735626838892698,-3.4878199039280413
1782811760046052000,3.885052001953125,-10.739677868843078,-0.5012216751873493,-2.8839158529013393
1782811760056123100,3.895123046875,-8.334913898140192,-0.4418427267625928,-2.0362245266906918
1782811760066195000,3.90519482421875,-5.388703209367394,-0.0853521785929799,-1.1251157903194426
1782811760076266000,3.915265869140625,-2.444211599472165,0.4949288586534559,-0.09325622971579432
1782811760086338000,3.925338134765625,0.27121114255189893,1.0091022237420082,0.8540588154159485
1782811760096409000,3.9354091796875,2.428765608537197,1.291663173956424,1.464395822099596
1782811760106481200,3.945481201171875,3.68426309800446,1.3518760889872907,1.5364078959956764
1782811760116551700,3.9555517578125,4.141625757721067,1.3199058103613555,1.2091865507997572
1782811760126623700,3.965623779296875,4.333887866720557,1.1269026737362147,0.7991222333528101
1782811760136694800,3.97569482421875,4.539527928209305,0.990918624536693,0.5738062882743775
1782811760146766600,3.9857666015625,4.861877137324214,0.9671553255029022,0.596511748818308
1782811760156838700,3.995838623046875,5.444871086791157,0.9366763083480298,0.8684132117219269
1782811760166909700,4.00590966796875,6.022231998807191,0.9112447838410734,1.1845173889674245
1782811760176981800,4.015981689453125,6.2770478868752715,0.875500978025794,1.3563890363670885
1782811760187052800,4.026052734375,6.409791638979315,0.8590611537478864,1.4141291315436362
1782811760197124600,4.03612451171875,6.49122839769423,0.9610098084852099,1.3629473719693719
1782811760207195600,4.046195556640625,6.595478461241722,1.1142827000074087,1.2723998166903854
1782811760217267700,4.056267822265625,6.8969257521033285,1.1605796101495622,1.2301144802771509
1782811760227338500,4.06633837890625,7.21447779006958,1.2095322954975067,1.258441580095142
1782811760237410600,4.07641064453125,7.534148719885945,1.3440836815454065,1.391265703959018
1782811760247481600,4.086481689453125,7.661602548888325,1.5260061828382312,1.4867854946926236
1782811760257553700,4.0965537109375,7.669711036542058,1.6709236262083054,1.5248697261542081
1782811760267624700,4.106624755859375,7.77026809079051,1.7915592996284364,1.484765094780922
1782811760277696500,4.116696533203125,7.765483779123425,1.8568962796747683,1.272014032243192
1782811760287768600,4.1267685546875,7.636230791744589,1.8015417644605038,0.9208652104277163
1782811760297839600,4.136839599609375,7.649075660270452,1.717692976167798,0.5612927705947309
1782811760307911700,4.14691162109375,7.832313920336961,1.5020879855036735,0.09470043717473745
1782811760317982700,4.156982666015625,7.9498560116559265,1.0340946261793373,-0.38555301305744794
1782811760328054800,4.1670546875,7.775823386830091,0.6398632531583309,-0.7834171530902385
1782811760338125800,4.177125732421875,7.460038358536362,0.4948845811203122,-1.055785648983717
1782811760348197600,4.18719775390625,7.090853163966536,0.4974091311618685,-1.1592946118403225
1782811760358268700,4.1972685546875,6.62237640503943,0.5840878821834922,-1.0780393471721559
1782811760368340700,4.2073408203125,5.970948386293649,0.8558633806198835,-0.6851128462046384
1782811760378411800,4.217411865234375,4.957717099922895,1.3443369256541131,0.0035389329821802675
1782811760388483800,4.22748388671875,3.168311471197009,1.914177086776495,0.7202789251971989
1782811760398555600,4.2375556640625,0.024399697241187093,2.327864855417609,1.2331015332639217
1782811760408626400,4.24762646484375,-3.7385102364987133,2.214709893141687,0.9940610872808844
1782811760418698500,4.257698486328125,-6.170318281471729,1.4713190454915166,0.03499919799305498
1782811760428769500,4.26776953125,-6.82618223683834,0.02829115172177553,-0.8924842615306376
1782811760438841600,4.277841552734375,-7.062219774678349,-2.1221599119991064,-1.0149378710929304
1782811760448912600,4.28791259765625,-7.672855179786682,-4.543241103513538,0.021741109023801983
1782811760458984700,4.297984619140625,-8.892956946223974,-6.0083402515769,1.8717893129020928
1782811760469055700,4.3080556640625,-9.445587906131149,-5.354844778907299,2.332584869676828
1782811760479127600,4.31812744140625,-8.678760653313994,-3.1564003763899207,0.9427335625603794
1782811760489198600,4.328198486328125,-7.940313691806793,-2.0643056889235973,-0.19261777230305596
1782811760499270700,4.338270751953125,-8.25561648954153,-2.484169223590195,-0.13585319849462246
1782811760509342700,4.3483427734375,-9.201616068160533,-2.5604262415796515,-0.001711758654215373
1782811760519413800,4.358413818359375,-10.136617282903194,-1.851779082791507,-0.6717986066013574
1782811760529485800,4.36848583984375,-10.428878227746486,-1.2404840447306633,-1.6409066736072302
1782811760539556900,4.378556884765625,-9.094577835199237,-0.9575126140192151,-2.413582652452588
1782811760549628700,4.388628662109375,-6.197236099013685,-0.7154805119395256,-2.6189243155166504
1782811760559699700,4.39869970703125,-3.303531258025765,-0.29383593907505273,-2.2645298628434536
1782811760569771800,4.408771728515625,-1.3698603662282227,0.29738311016261576,-1.8508399022452533
1782811760579842600,4.418842529296875,0.06053834759294986,0.9122522073179483,-1.4787256684862076
1782811760589914600,4.42891455078125,1.388425950488448,1.409508193744719,-1.0326935272097586
1782811760599985700,4.438985595703125,2.6218431255728003,1.4697455125644803,-0.5676436739914119
1782811760610057500,4.449057373046875,3.398836967617273,0.9600985388591885,-0.39813466406986114
1782811760620128500,4.45912841796875,3.6494478052109476,0.37168870182335373,-0.46965910057947036
1782811760630200600,4.46920068359375,3.4247651895999907,0.22547084337919948,-0.4830943362139165
1782811760640272600,4.479272705078125,2.8741116672456264,0.34947307062298055,-0.32603564254269
1782811760650343700,4.48934375,2.1514625788509845,0.5704639921091497,0.07176204465776681
1782811760660415700,4.499415771484375,1.624824722856283,0.778689393915981,0.6199214121088386
1782811760670486800,4.50948681640625,1.5742419520884752,0.8335274840407073,1.308335345685482
1782811760680558600,4.51955859375,2.036078542348742,0.7084218255996704,2.117911606904864
1782811760690629600,4.529629638671875,2.544075410759449,0.471336386141926,2.7680089615687726
1782811760700701700,4.53970166015625,2.9406770200431347,0.06826280436515808,2.8715508768469094
1782811760710772700,4.549772705078125,3.353681482595205,-0.5003337864369154,2.476329323744774
1782811760720844800,4.5598447265625,4.034433210980892,-1.0365995947375892,1.754582737147808
1782811760730915600,4.56991552734375,4.933661101552843,-1.3918769677251577,1.1534820531040428
1782811760740988000,4.57998779296875,5.557186967894435,-1.4431268240995705,0.9310895942568779
1782811760751059700,4.590059814453125,5.640823867002129,-1.150846736164391,1.0689961359515785
1782811760761130500,4.600130615234375,4.996863115397096,-0.6239249486617744,1.3531063614346086
1782811760771202600,4.61020263671875,4.534479997169972,-0.08363017710596322,1.6085554328396916
1782811760781273600,4.620273681640625,4.722782554888725,0.3474472638837993,1.8486122893236576
1782811760791345700,4.630345703125,5.022174666786194,0.6893740107804537,1.9508342080444097
1782811760801416700,4.640416748046875,5.26718812276423,0.7979393071785569,1.9458616803288458
1782811760811488500,4.650488525390625,5.176354590150714,0.8007026344120503,1.984345432502031
1782811760821559600,4.6605595703125,4.762517768427729,0.8258198322728276,2.040878489976376
1782811760831631600,4.670631591796875,4.27681398036778,0.7840417147293687,1.9662372366204857
1782811760841702700,4.68070263671875,4.064778080362081,0.5597732328772544,1.6430309722848235
1782811760851774700,4.690774658203125,4.136517620927095,0.1617465592265129,1.1910498594760894
1782811760861845800,4.700845703125,3.9310897408843037,-0.153409815774858,0.7482070157602428
1782811760871917800,4.710917724609375,3.0937714862585066,-0.24643968938887117,0.2883781120605767
1782811760881989600,4.72098974609375,1.6303426094949245,-0.3065887454032898,-0.04260127049461007
1782811760892060700,4.731060791015625,-0.5332540592640638,-0.2888815315380692,0.12319880190640688
1782811760902132700,4.7411328125,-3.5840123332262035,-0.407938411334157,0.5881688678868114
1782811760912203500,4.75120361328125,-6.783238582646846,-0.7323427994132041,0.4457914643883705
1782811760922275600,4.761275634765625,-8.543188984307646,-1.1396014117896556,-0.2432176586024463
1782811760932346600,4.7713466796875,-8.835269311887025,-1.9942115774780511,-0.9171015470452606
1782811760942418700,4.781418701171875,-8.083065043184162,-3.1612510312914845,-0.8714946649938822
1782811760952489700,4.79148974609375,-7.424097861105203,-3.9583410281643268,-0.06902355960458517
1782811760962561500,4.8015615234375,-7.127613745608925,-4.328548551519215,0.7258158818624914
1782811760972632600,4.811632568359375,-6.402292223134636,-3.9215263782471417,0.01260842942148447
1782811760982704600,4.82170458984375,-5.765044120910764,-3.479309849736094,-1.4634920051276683
1782811760992776700,4.831776611328125,-6.255988147711753,-4.105394460649788,-1.927095605060458
1782811761002847700,4.84184765625,-7.161545825827122,-4.9011681142270564,-1.8490319760404526
1782811761012919600,4.85191943359375,-8.025804694348572,-4.720376662790775,-2.3900107843376697
1782811761022990600,4.861990478515625,-9.038038201853633,-4.115980152072012,-3.514601527869701
1782811761033062700,4.872062744140625,-9.7321041698426,-3.4536508000835773,-4.356422354611754
1782811761043133700,4.8821337890625,-9.777261992952226,-2.1787653040573,-4.1750273843243715
1782811761053205800,4.892205810546875,-9.001678602227567,-0.41844548456221814,-3.0052301562353967
1782811761063276800,4.90227685546875,-7.505608854100108,0.9972346758157015,-1.599244583658874
1782811761073348900,4.912348876953125,-5.559713856023549,1.688197709353268,-0.5509868459619581
1782811761083419600,4.922419677734375,-3.2998172059386968,1.726085249198973,-0.06475494237467647
1782811761093491500,4.932491455078125,-1.101347376719117,0.9894228330209851,-0.18214944191649554
1782811761103562500,4.9425625,0.5249596936494112,-0.5444964610293507,-0.7462884687878191
1782811761113634600,4.952634521484375,1.66645729444921,-1.8994944814294576,-1.1821430610515176
1782811761123707100,4.96270703125,2.4219810629636047,-2.4390076010882855,-1.2301079044058918
1782811761133778200,4.972778076171875,2.9516917505323885,-2.449186319144815,-0.9133831110440194
1782811761143850000,4.98285009765625,3.3810365225106476,-2.134906288586557,-0.3709375911951065
1782811761153921000,4.992921142578125,3.867405496481061,-1.6567393257722258,0.27052535224482416
1782811761163993000,5.0029931640625,4.399451933521032,-1.1517521605715155,0.8916673921898007
1782811761174064000,5.013064208984375,4.948820092239975,-0.7329499715261161,1.5410625899337231
1782811761184136200,5.02313623046875,5.619544932129979,-0.5213796432055533,2.2395864141143855
1782811761194207200,5.033207275390625,6.4829135738134385,-0.5832797806710004,2.7108763307660815
1782811761204279300,5.043279296875,7.245639821052551,-0.8230470065586268,2.9653640097931024
1782811761214350300,5.053350341796875,7.264756024932861,-1.0984393072526901,3.125106535720825
1782811761224422100,5.063422119140625,6.437536554995178,-1.0263949385222046,3.1783792762249705
1782811761234493200,5.0734931640625,5.143185895520449,-0.7504569135788828,3.212075501860678
1782811761244565200,5.083565185546875,3.7415474122375247,-0.49199846775736655,3.314882088601589
1782811761254637300,5.09363720703125,2.665022926607728,-0.2593471017569303,3.4299142429262397
1782811761264708000,5.1037080078125,2.0656763927549124,-0.1003465533029288,3.4347675281763075
1782811761274780200,5.1137802734375,2.09283444879353,-0.04261624886803329,3.2137668159484862
1782811761284851200,5.123851318359375,2.591532158461213,0.00030826223157346246,2.719576354572177
1782811761294923000,5.133923095703125,3.5414106243401764,0.08756181746646761,2.1590261459730566
1782811761304994000,5.143994140625,4.671591296833753,0.22061273582354188,1.67344203877002
1782811761315066000,5.154066162109375,5.595984023800492,0.43106501989960666,1.3323356683455407
1782811761325137200,5.16413720703125,6.252833483073115,0.6776033473573625,1.2071668815404175
1782811761335209200,5.174209228515625,6.762846367481351,0.8999950755521654,1.1581611508309841
1782811761345280300,5.1842802734375,7.235874213841557,1.1944023847743868,1.121529602395743
1782811761355352000,5.19435205078125,7.701394461050629,1.549480435797572,1.2495393117152154
1782811761365424000,5.204424072265625,7.527582785499096,1.8326316069900987,1.4803040237188339
1782811761375495200,5.2144951171875,6.459924327892065,2.1637565354958177,1.5379844976626336
1782811761385567200,5.224567138671875,4.858096449741721,2.396515197795629,1.3561490901313722
1782811761395638300,5.23463818359375,3.2349639177560805,2.1624176881074906,0.9834037188619374
1782811761405710300,5.24471044921875,1.8233897313922642,1.6280483610779046,0.4640582118324935
1782811761415781400,5.254781494140625,0.36848084569275374,1.2922612859800457,-0.12757175629362463
1782811761425853200,5.264853271484375,-0.8629238205254077,1.3448533507436513,-0.5938021975986659
1782811761435924000,5.274924072265625,-2.731222953224182,1.2693252315506338,-0.9860466345861554
1782811761445996000,5.28499609375,-6.118334411734343,0.8171344215139746,-1.1211924793958663
1782811761456067000,5.295067138671875,-10.177444967854022,0.26020196502059695,-1.3094183186165989
1782811761466139100,5.30513916015625,-12.226203543555735,-0.6303875688046217,-1.9156291852809488
1782811761476210200,5.315210205078125,-11.197784040403365,-2.005250273364782,-2.747019072771072
1782811761486282000,5.325281982421875,-8.873080863887072,-3.4232378339022396,-3.252708541022241
1782811761496353000,5.33535302734375,-7.482769245782494,-3.7770056791096924,-3.383084687212109
1782811761506425000,5.345425048828125,-6.444537958189844,-3.2598689341709015,-2.745539063346386
1782811761516497200,5.3554970703125,-4.506604732772708,-3.627089550669491,-1.5257600991226732
1782811761526568200,5.365568115234375,-2.70151696626842,-4.526093861618638,-0.3895999868933111
1782811761536640300,5.37564013671875,-2.269643552595377,-4.734011220389604,0.13265271281972527
1782811761546711300,5.385711181640625,-3.417038394740224,-4.447012433858216,0.07249430445507168
1782811761556783000,5.395783203125,-4.9158863754093645,-4.075754232406616,-0.39235871101692316
1782811761566854100,5.405854248046875,-6.230317699882388,-3.268371097317338,-0.6479717408120632
1782811761576926200,5.41592626953125,-7.358184834736585,-2.1358301254332064,-0.6510626925647258
1782811761586997200,5.425997314453125,-7.642427892819047,-1.2184817640200256,-0.8217850237987935
1782811761597069300,5.4360693359375,-6.841067671281099,-0.7646569230407476,-1.1722807154677808
1782811761607140000,5.44614013671875,-5.191809933435916,-0.9586498013556003,-1.5670025023542344
1782811761617212200,5.456212158203125,-3.0509003127813337,-1.6560481286376714,-1.804737199500948
1782811761627283200,5.466283203125,-0.8083423355102538,-2.1293922013401985,-1.7128255162619053
1782811761637355000,5.47635498046875,0.8480506610423326,-1.9756015695542095,-1.1618459768235683
1782811761647427000,5.486427001953125,1.1487398270130156,-1.430275087441504,-0.43442178298160433
1782811761657498000,5.496498046875,0.5371019668638706,-0.6346034329339861,0.3332277460038662
1782811761667570200,5.506570068359375,0.050586862421035765,0.16115356176942586,0.9712921330466866
1782811761677641200,5.51664111328125,-0.14230769926309586,0.6685124245375395,1.609139954729378
1782811761687713000,5.526713134765625,0.14140227485597132,0.735271254080534,2.1303867653355
1782811761697784000,5.5367841796875,0.6738543700873851,0.46785102824419733,2.477937927985191
1782811761707856100,5.546856201171875,1.253692485871911,0.043426469272375104,2.6489061968043446
1782811761717927200,5.55692724609375,2.199291082474589,-0.4266676617234945,2.527555068591237
1782811761727999200,5.566999267578125,3.4499528223484752,-0.7485594824597239,2.2955545311823484
1782811761738070300,5.5770703125,4.573620751947164,-0.7831903585970401,2.1959540470063685
1782811761748142300,5.587142333984375,5.205462026691436,-0.35062662457227706,2.286506424590945
1782811761758213000,5.597213134765625,5.265058124998212,0.3160524470582604,2.475231883896887
1782811761768285200,5.60728515625,5.177381595110893,0.9002788609296083,2.5853385645180937
1782811761778357200,5.617357177734375,5.180672453349828,1.2471522704482079,2.5200693890109656
1782811761788428000,5.627427978515625,5.270864180928468,1.2359835184410213,2.1846644450984893
1782811761798500000,5.6375,5.383454202798009,1.130484623876214,1.6476315979480742
1782811761808571100,5.647571044921875,5.50504936890006,0.9935328986883163,1.132932163158804
1782811761818643200,5.657643310546875,5.399314035230875,0.9336962696239351,0.7005959542796015
1782811761828714200,5.66771435546875,4.44673332465589,1.2276920754358172,0.3923987507663667
1782811761838786000,5.6777861328125,3.1559365582704544,1.987102622255683,0.31845980046093464
1782811761848857000,5.687857177734375,2.05622525832057,2.44549842441231,0.2972610912181437
1782811761858929200,5.69792919921875,6.050446285900473,2.2633383149713278,0.7392195533148944
1782811761869000200,5.708000244140625,8.02237881155312,2.912482314433157,1.6562709776081144
1782811761879073000,5.718072998046875,4.759751226323843,4.028096701435745,1.7961949966050683
1782811761889144000,5.72814404296875,3.933099327141046,3.942859089133143,1.8953034594804048
1782811761899216100,5.738216064453125,5.280898668208718,3.4871149705290794,2.154929816570133
1782811761909287200,5.748287109375,5.693106427425146,3.018243659326434,2.131867651543021
1782811761919359200,5.758359130859375,4.465546161675453,2.4395465302705763,1.735561518074572
1782811761929430300,5.76843017578125,2.3304057720720768,1.9195541036397217,1.174503652214259
1782811761939502300,5.77850244140625,-0.9578554361075162,2.1319284418195483,0.6217261234432458
