time,seconds_elapsed,z,y,x
1782661144328852000,0.06785205078125,-0.5206447530597448,-0.09431509111896157,0.033558716861158605
1782661144338923000,0.077923095703125,-0.47287762423455715,-0.051126376125216484,0.1992693574130535
1782661144348993800,0.087993896484375,-0.33486791442632674,-0.014576733819767831,0.2302512095235288
1782661144359064800,0.09806494140625,-0.04433656985461712,0.015430939496308565,0.27351591236293316
1782661144369134800,0.108134765625,0.26759002944529053,-0.04594853509590029,0.2694701441034674
1782661144379206000,0.118205810546875,0.575031592285633,-0.08628434487655759,0.2791395974636078
1782661144389277000,0.12827685546875,0.7136170561552048,-0.12046506609357893,0.2589702312685549
1782661144399347700,0.13834765625,0.5607505534768105,-0.11944734041839837,0.1854367930240929
1782661144409418000,0.14841796875,0.2601157480418682,-0.09286372326686977,0.05742226139903068
1782661144419489000,0.158489013671875,-0.02772036609649658,-0.08713906200975179,-0.09992679352089762
1782661144429560000,0.16856005859375,-0.2188017408788204,-0.07752170416302978,-0.17482348294258115
1782661144439631000,0.178631103515625,-0.3531786471426487,-0.09079385819025337,-0.21859555078223347
1782661144449702000,0.188701904296875,-0.2829296373963356,-0.10911547762677073,-0.27702494339719413
1782661144459772000,0.19877197265625,-0.10653963578939438,-0.10934183372855186,-0.2793500253438949
1782661144469843000,0.208843017578125,0.1403577342391014,-0.10961297882013023,-0.24435937598347662
1782661144479914000,0.2189140625,0.3807610660731792,-0.10487520970851183,-0.17147621834129095
1782661144489984800,0.22898486328125,0.555133882638812,-0.11957856558263301,-0.07158069674149155
1782661144500054800,0.2390546875,0.6672405049055814,-0.12842596197016537,0.03319339068010449
1782661144510125800,0.249125732421875,0.6551695433616638,-0.13904504420533775,0.0803086314678192
1782661144520196000,0.259196044921875,0.497730910462141,-0.11010953016541898,0.0659703095138073
1782661144530267000,0.269266845703125,0.28240707482695576,-0.13939480749107896,0.021403584165126083
1782661144540338000,0.279337890625,0.13294599667787552,-0.14874657320417464,-0.01920782768651843
1782661144550408200,0.289408203125,-0.08910802399516105,-0.16748291092142462,-0.0794768568187952
1782661144560479200,0.299479248046875,-0.22844576753675935,-0.186612047348544,-0.10064064087867736
1782661144570550300,0.30955029296875,-0.2528086398988962,-0.1857663172394037,-0.0973275708079338
1782661144580621000,0.31962109375,-0.23691958137154578,-0.18892989583685993,-0.08585325998291372
1782661144590691000,0.329691162109375,-0.15327975965440271,-0.18173954594135283,-0.06380480204299092
1782661144600762000,0.33976220703125,-0.060543023768067354,-0.17025179111286998,-0.04050765921622514
1782661144610833200,0.349833251953125,0.019436521875858304,-0.18047668639868497,-0.004104074317961931
1782661144620904200,0.359904296875,0.04581716380119324,-0.20028635243587195,0.022978724527359006
1782661144630975000,0.36997509765625,0.05462532415688037,-0.21950411699451505,0.021959318351745603
1782661144641045000,0.380044921875,0.03739712598025799,-0.19770320407487452,0.04359729579463601
1782661144651116000,0.390115966796875,-0.010525485667586326,-0.17530279089212417,0.08389189678207039
1782661144661187000,0.40018701171875,-0.04671148229241371,-0.13704751371257007,0.1219825579844415
1782661144671258000,0.410258056640625,-0.05205342784225941,-0.14366547054760156,0.12545271831303834
1782661144681328000,0.420328125,-0.05767360581159591,-0.17919139582850038,0.07141074700206518
1782661144691399200,0.430399169921875,-0.11534721162319182,-0.2061816940847784,0.02752586643770337
1782661144701470200,0.44047021484375,-0.11990940497219561,-0.1882667557530105,-0.005943710835278034
1782661144711541200,0.450541259765625,-0.01674362953007221,-0.16395312936007975,0.0010613456211984156
1782661144721612300,0.4606123046875,0.02170329776406288,-0.18187325532361864,0.03249006471633911
1782661144731682000,0.47068212890625,0.05313654690384864,-0.1869920596420765,0.06012202187702059
1782661144741753000,0.480753173828125,0.056657122245430944,-0.21333529216647146,0.00361132236495614
1782661144751824100,0.49082421875,0.0371568874835968,-0.23404292995668946,-0.06275500072911382
1782661144761895200,0.500895263671875,0.03836450970768928,-0.2740036228146404,-0.12412936075478792
1782661144771965000,0.51096484375,0.12535071924328803,-0.308488733805716,-0.1556558411359787
1782661144782036000,0.521035888671875,0.16913842304348944,-0.3192618375588208,-0.1614360319726169
1782661144792107000,0.53110693359375,0.16491700595617292,-0.31300577283874154,-0.13573372770026326
1782661144802178000,0.541177978515625,0.18076397890746593,-0.27396964747980235,-0.10597849477529525
1782661144812249000,0.5512490234375,0.21460896536409854,-0.22894801797047257,-0.01835807898938656
1782661144822319000,0.561319091796875,0.19948504599034786,-0.20200375081300734,0.04600304176211357
1782661144832390100,0.57139013671875,0.1328115566432476,-0.2016712309230119,0.07012611401900648
1782661144842461200,0.581461181640625,0.13606442095935345,-0.2013741476725787,0.06999298915863036
1782661144852532200,0.5915322265625,0.06244739608466625,-0.17392836073376236,0.07986044930890202
1782661144862602200,0.601602294921875,-0.02821837874650955,-0.10921974171884358,0.1384263277851045
1782661144872673000,0.611673095703125,-0.03517711184322834,-0.04283661362044513,0.22982421628311275
1782661144882744000,0.621744140625,-0.02915770542323589,0.00649286915063858,0.2606821497529745
1782661144892815000,0.631815185546875,-0.05850888759195804,0.024585209875926373,0.2511673024326563
1782661144902886100,0.64188623046875,-0.032523966985940934,0.027354309263080356,0.2200445805467665
1782661144912956200,0.6519560546875,0.05267711269855499,0.026770810286700725,0.1640175728984177
1782661144923027000,0.66202685546875,0.1110609126061201,0.0013673428304493427,0.17082886034846304
1782661144933098000,0.672097900390625,0.08199789972901343,0.010602861752733587,0.1795836830817163
1782661144943169000,0.6821689453125,0.03507891216576099,0.038080359004065395,0.1693953204140067
1782661144953239300,0.6922392578125,-0.04512625892758369,0.03409362745545804,0.15284341406375168
1782661144963310000,0.70231005859375,-0.15956921518743036,0.004498407397791743,0.13229951546788216
1782661144973381000,0.712381103515625,-0.27455577680468557,-0.07207600597776471,0.04507891265451908
1782661144983452200,0.7224521484375,-0.3499696219682693,-0.10953297238647937,-0.0647261546716094
1782661144993523200,0.732523193359375,-0.313794731259346,-0.1261491030793637,-0.14928937484398483
1782661145003593200,0.74259326171875,-0.2075561242431402,-0.19443989142999052,-0.19679770660251378
1782661145013664000,0.7526640625,-0.08395897066891193,-0.2787287516403943,-0.260623405303061
1782661145023735000,0.762735107421875,-0.0037859482795000073,-0.373218907065317,-0.34905499134138224
1782661145033806000,0.77280615234375,-0.010718962413072585,-0.44352220428213474,-0.39651305421739813
1782661145043876000,0.7828759765625,-0.07033084281086921,-0.4576737714923918,-0.3461851349934935
1782661145053947100,0.792947021484375,-0.10562193642258644,-0.36680867469683287,-0.2425917817890644
1782661145064018000,0.803017822265625,-0.06657821227908134,-0.2664149943165481,-0.10406126297712326
1782661145074089000,0.8130888671875,-0.034487960535287854,-0.20995017977282404,0.009887333894520997
1782661145084160000,0.823159912109375,0.013315408647060394,-0.1946557992029935,0.06137845167890191
1782661145094230300,0.833230224609375,0.1300140348792076,-0.2686754135292023,0.03530088435336947
1782661145104301300,0.84330126953125,0.1752618743598461,-0.3830298877879977,-0.04989128137230873
1782661145114372000,0.8533720703125,0.22043314147293566,-0.4361541597321629,-0.15726692959442734
1782661145124443100,0.863443115234375,0.15106442169249057,-0.46823703188709914,-0.17920359772294758
1782661145134513200,0.87351318359375,-0.0592383709102869,-0.42731969589143987,-0.13341025318875907
1782661145144584200,0.883584228515625,-0.25385259599387644,-0.3549179650906473,-0.1431505798280239
1782661145154655200,0.8936552734375,-0.2880003647893667,-0.2623273596767336,-0.1075700017504394
1782661145164726000,0.90372607421875,-0.19641689059138298,-0.14891301581226288,-0.007592354825139046
1782661145174797000,0.913797119140625,-0.0219376910418272,-0.0042693478822708126,0.18099851831570266
1782661145184867000,0.9238671875,0.16933482239842415,0.13898513071164487,0.3844564134597778
1782661145194938000,0.933938232421875,0.30043723703622816,0.24373254932202398,0.5509111503772437
1782661145205009200,0.944009033203125,0.34632980416119097,0.3595044891633093,0.6558804681099951
1782661145215080000,0.954079833984375,0.35668051778376103,0.4049217669267207,0.6186522689558566
1782661145225150200,0.964150146484375,0.33553076224923134,0.3067017773237079,0.4876194124229252
1782661145235221200,0.97422119140625,0.30381401999294755,0.11087773805893957,0.2917044800043106
1782661145245292300,0.984292236328125,0.26194004085958,-0.03828033855557442,0.08111746363267303
1782661145255363300,0.99436328125,0.19524901585578916,-0.1253997460167855,-0.09704553899616003
1782661145265434000,1.00443408203125,0.13881284288465975,-0.16454503083862362,-0.2433120588876307
1782661145275504000,1.014504150390625,0.14797639254927633,-0.2561969671629369,-0.3612961948856711
1782661145285575200,1.0245751953125,0.096003044205904,-0.2798445308625698,-0.43891617179140446
1782661145295646200,1.034646240234375,0.057117725494503974,-0.2662598768200725,-0.44214039453491566
1782661145305717200,1.04471728515625,0.06222936941981315,-0.23639343860559164,-0.4649864325933158
1782661145315787000,1.054787109375,0.04012333607375622,-0.19714074788652358,-0.41840427576899525
1782661145325858000,1.064858154296875,0.03568739945292473,-0.1916558136694133,-0.3097936789244413
1782661145335929000,1.07492919921875,0.0761392368286848,-0.24960998998805878,-0.28033903638124463
1782661145346000100,1.085000244140625,0.09531564646363258,-0.3787559367958456,-0.32405528238043185
1782661145356071200,1.0950712890625,0.09296762203276157,-0.5068674259893596,-0.3505110353685915
1782661145366141200,1.10514111328125,0.06099018301367759,-0.4878679803565144,-0.291776376196742
1782661145376212200,1.115212158203125,0.06148468853235244,-0.38877683394216,-0.1388435302838683
1782661145386283300,1.125283203125,0.060679801890254015,-0.2484056556995958,0.015010375996679067
1782661145396354300,1.135354248046875,0.06015490123331546,-0.22289675510749218,0.10120017445757984
1782661145406424000,1.145424072265625,0.02929331450164318,-0.27998788485601545,0.1518060338400304
1782661145416495000,1.1554951171875,-0.02015431475639343,-0.31146541152894497,0.18854995660856366
1782661145426566100,1.165566162109375,-0.09963935488164424,-0.3071518957113847,0.23651246187537908
1782661145436637200,1.17563720703125,-0.21134733321964738,-0.260492764660716,0.2808778194330632
1782661145446708200,1.185708251953125,-0.36656069128513336,-0.1856682636924088,0.3181082105442881
1782661145456778000,1.195778076171875,-0.46346389920115466,-0.1673146416824311,0.2725926600381732
1782661145466849000,1.20584912109375,-0.5500228232353925,-0.1731319131264463,0.2145304933004081
1782661145476920000,1.215920166015625,-0.5514017103731632,-0.22401903713569044,0.1172676582917571
1782661145486991000,1.2259912109375,-0.4307254126816988,-0.27359098689313976,0.04023775623366237
1782661145497061000,1.23606103515625,-0.31979075680375096,-0.30652455759327857,-0.05232172338962555
1782661145507132200,1.246132080078125,-0.19142332008779048,-0.3168570779720321,-0.112941027264297
1782661145517203500,1.256203369140625,-0.0069791913628578185,-0.36424503475390374,-0.16209318070709705
1782661145527274500,1.2662744140625,0.09234452169835566,-0.4460232273176312,-0.2150570013925433
1782661145537344800,1.2763447265625,0.18623568831682205,-0.4950084266956895,-0.25590470621809364
1782661145547415600,1.28641552734375,0.2453793666809797,-0.5140294265732169,-0.28066636863946914
1782661145557486600,1.296486572265625,0.2816518725454807,-0.47549087547287344,-0.2485103581830859
1782661145567557600,1.3065576171875,0.2964046205192804,-0.4510840909037739,-0.17217837526127694
1782661145577628700,1.316628662109375,0.241581727963686,-0.3994541491705924,-0.056281566931307314
1782661145587698400,1.326698486328125,0.1068698906570673,-0.298597235192731,0.05011500712558627
1782661145597769500,1.33676953125,0.027235212928056717,-0.20891075372248888,0.13560147962272168
1782661145607840500,1.346840576171875,0.03027180414497852,-0.1749143030311912,0.2175805285207927
1782661145617911600,1.35691162109375,0.07729425208270549,-0.16509448141492902,0.3168136406891048
1782661145627981600,1.366981689453125,0.10725509058237075,-0.13153810264132917,0.41918446636125445
1782661145638052400,1.37705224609375,0.10767828443050384,-0.05891505724005401,0.4982262927636504
1782661145648123400,1.387123291015625,0.15915245108008383,0.011128346931561827,0.5734957610204815
1782661145658194400,1.3971943359375,0.21431728894114493,0.019672814849764107,0.5969152150526642
1782661145668265500,1.407265380859375,0.25001462526619433,-0.12057451781742275,0.4603557040527463
1782661145678335700,1.417335693359375,0.274420752248168,-0.323247473128885,0.20218466033786534
1782661145688406500,1.427406494140625,0.2332499529480934,-0.5143688145954162,-0.09092442576736211
1782661145698477600,1.4374775390625,0.03760696933865547,-0.5698696794778109,-0.3146228526465595
1782661145708548600,1.447548583984375,-0.07029577149748802,-0.5236174852602183,-0.4033316481910646
1782661145718618600,1.45761865234375,-0.04616436980366707,-0.52106867756024,-0.39149814866483207
1782661145728689700,1.467689697265625,0.02115910788476467,-0.553887974230945,-0.37687940233424305
1782661145738760400,1.477760498046875,0.05250935491621494,-0.5798387003064155,-0.40010800996944307
1782661145748831500,1.48783154296875,0.051158524829149246,-0.6134463708758354,-0.4395876413121819
1782661145758901500,1.497901611328125,-0.02269406236708164,-0.6337963543348014,-0.465425262401998
1782661145768972500,1.50797265625,-0.06311842721402645,-0.6036717035755514,-0.42975802895426746
1782661145779043600,1.518043701171875,-0.09164835612773894,-0.5351954756554216,-0.33148119459748265
1782661145789114400,1.5281142578125,-0.05607552296519279,-0.5319345741633326,-0.11001812555491923
1782661145799185400,1.538185302734375,-0.03480652496516704,-0.5481024496320634,0.045532501640915865
1782661145809255700,1.548255615234375,-0.17552841634154318,-0.5224766446620226,0.09422785122692584
1782661145819326700,1.55832666015625,-0.31851649908423424,-0.6949879782047123,-0.11955810731649398
1782661145829397800,1.568397705078125,-0.40283670428097246,-1.0185976357094944,-0.5547428374946117
1782661145839468500,1.578468505859375,-0.41599896819293497,-1.3164844576105474,-0.9665541447393595
1782661145849538600,1.58853857421875,-0.32659692968726156,-1.4972443448647856,-1.2083916010297835
1782661145859609600,1.598609619140625,-0.13070610879659653,-1.5153852739721536,-1.3034998883530498
1782661145869680600,1.6086806640625,0.0964390975356102,-1.4007628694921732,-1.2548058539412914
1782661145879751700,1.618751708984375,0.4258902476102113,-1.1313061693921684,-0.9064246702082455
1782661145889821400,1.628821533203125,0.6877250745296478,-0.7550095353819429,-0.43717955725714563
1782661145899892500,1.638892578125,0.7594277902156115,-0.34902941850870844,0.09432356668636202
1782661145909963500,1.648963623046875,0.8066501446396112,-0.008134133551642298,0.612882014991343
1782661145920034600,1.65903466796875,0.8171779683947563,0.28858057583011687,1.0411435217775404
1782661145930105600,1.669105712890625,0.8110662075161933,0.49441710973903535,1.386193661391735
1782661145940175600,1.679175537109375,0.7389175016283989,0.5958678248915821,1.5603611646436153
1782661145950246700,1.68924658203125,0.6469143407136202,0.6255576644301414,1.5082634592682123
1782661145960317700,1.699317626953125,0.6218558873027563,0.5659698955602943,1.3529676836162805
1782661145970388700,1.709388671875,0.6140542736411094,0.4131530041772872,1.1644370162300766
1782661145980458500,1.71945849609375,0.5853501572042703,0.18506109157949685,0.9104223615422844
1782661145990529500,1.729529541015625,0.5929138704568148,-0.12056406948864459,0.601814969792962
1782661146000600600,1.7396005859375,0.5589513951003551,-0.5073583513114601,0.2476395666979253
1782661146010671600,1.749671630859375,0.4461211347341537,-0.8152709657296537,-0.06106660925075411
1782661146020741400,1.759741455078125,0.30412790824770924,-0.9746663587201386,-0.2858499087572098
1782661146030812400,1.7698125,0.1755102961629629,-1.0418089999489486,-0.4219796500377357
1782661146040883500,1.779883544921875,0.05801321302950382,-1.0329717596292496,-0.40611207268983124
1782661146050954500,1.78995458984375,-0.01808218465745449,-0.9651469082899391,-0.2954229160055518
1782661146061025500,1.800025634765625,-0.024254735812544823,-0.9009490883413702,-0.11327712735086679
1782661146071095600,1.810095458984375,-0.03590776420533657,-0.8343545825146138,0.12158815183937549
1782661146081166600,1.82016650390625,-0.006741875475645065,-0.7235445028644055,0.3415013610914349
1782661146091237600,1.830237548828125,-0.0231359609156847,-0.6317609029844403,0.5261880664005876
1782661146101308700,1.84030859375,0.02352057631909847,-0.5434482671506703,0.6452614589400589
1782661146111378700,1.850378662109375,0.04954056823849678,-0.591039016495645,0.7075863976888358
1782661146121449500,1.860449462890625,0.05062193373441696,-0.7381481246910989,0.7268227208174765
1782661146131520500,1.8705205078125,-0.018757891961932182,-0.8791055783890187,0.687674221125245
1782661146141591600,1.880591552734375,-0.1868295625567436,-0.9721205466948449,0.6217654325403272
1782661146151661600,1.89066162109375,-0.2794230905801058,-0.9885257380507886,0.5405722733229399
1782661146161732600,1.900732666015625,-0.3002618804693222,-0.9122667472999543,0.5468313337177038
1782661146171803400,1.910803466796875,-0.2818967872172594,-0.959728244242072,0.5208873296439648
1782661146181874400,1.92087451171875,-0.23623627528250216,-1.0943562026575206,0.44028862918838857
1782661146191944700,1.93094482421875,-0.2164063701748848,-1.3257625735655427,0.3254195564709604
1782661146202015700,1.941015625,-0.2235164944410324,-1.5002292058944702,0.25422742065563797
1782661146212086800,1.951086669921875,-0.09536416178047656,-1.6038330804929137,0.23101459511145947
1782661146222157600,1.961157470703125,0.09078969347178935,-1.6608257183030246,0.25121859422847626
1782661146232227600,1.9712275390625,0.35329379795491694,-1.7149390012845396,0.326790114171803
1782661146242298600,1.981298583984375,0.6503671115159988,-1.8146613582745192,0.4091472026020288
1782661146252369700,1.99136962890625,0.8885159424215555,-1.8900015536800026,0.4775041149914264
1782661146262440700,2.001440673828125,1.0785083529233932,-1.8689555507808924,0.5707239582195878
1782661146272511500,2.011511474609375,1.148643965423107,-1.7795497128829358,0.6406698933660984
1782661146282581500,2.02158154296875,1.097121283456683,-1.6867343588024377,0.7296015378810465
1782661146292652500,2.031652587890625,0.956429202696681,-1.6390794581800698,0.7757960105620324
1782661146302723600,2.0417236328125,0.7551537661582232,-1.631253294599056,0.763149148826301
1782661146312794600,2.051794677734375,0.5196364528000355,-1.5682871353372931,0.7508600144870579
1782661146322864600,2.06186474609375,0.32099837902784345,-1.504102832457423,0.6918861397318542
1782661146332935700,2.071935791015625,0.16766016718447208,-1.533404038004577,0.6238210498958826
1782661146343006700,2.0820068359375,-0.021664719319343564,-1.5518421964928506,0.5127268195420503
1782661146353077800,2.092077880859375,-0.18471417783796787,-1.5203843974336981,0.40419484089165925
1782661146363147500,2.1021474609375,-0.25359423731863495,-1.4975053338885307,0.3524788283102214
1782661146373218600,2.112218505859375,-0.17102584422528744,-1.5260110051438212,0.35831177224740385
1782661146383289600,2.12228955078125,0.02503156540393829,-1.5345068846799432,0.3424868649974465
1782661146393360600,2.132360595703125,0.14392974750697612,-1.5856848448619245,0.3170426271393895
1782661146403430400,2.142430419921875,0.18400924443900585,-1.6885136434346437,0.20666531288325785
1782661146413501400,2.15250146484375,0.1856838996529579,-1.7843609125569462,0.07917012895718216
1782661146423572500,2.162572509765625,0.166679339453578,-1.831611324031651,0.018065087392181156
1782661146433643500,2.1726435546875,0.06359305898845195,-1.8131293264016508,-0.00617328180745244
1782661146443713800,2.1827138671875,-0.03779693895280361,-1.7952461714476347,-0.017755290790647266
1782661146453784600,2.19278466796875,-0.13886018915772438,-1.7953632219560443,-0.05457841627523303
1782661146463855600,2.202855712890625,-0.19026655126810071,-1.85616562731266,-0.07979527511820196
1782661146473926700,2.2129267578125,-0.21187983266115187,-1.9058235383205115,-0.06841156518608331
1782661146483996700,2.22299658203125,-0.25837854898571966,-1.911958680074662,-0.034719577334076164
1782661146494067700,2.233067626953125,-0.44954409492015834,-1.855409694378823,-0.00773570881858468
1782661146504138500,2.243138427734375,-0.7744798133969306,-1.741573471840471,-0.021347908455133437
1782661146514209500,2.25320947265625,-1.0081488685399294,-1.6451257526069878,-0.04548983154296875
1782661146524280300,2.2632802734375,-1.1095762758821248,-1.5520976325586437,-0.09212722568586468
1782661146534350300,2.273350341796875,-1.0971575238138436,-1.541000484482944,-0.16145108341127634
1782661146544421400,2.28342138671875,-1.1256944669902325,-1.572173182990402,-0.11975421441048383
1782661146554492200,2.2934921875,-1.215222762224078,-1.4738754519760608,-0.006862871506810188
1782661146564563200,2.303563232421875,-1.3076672371655702,-1.334040864828229,0.118876408662647
1782661146574633500,2.313633544921875,-1.5488497366786003,-1.084148696897924,0.16204378860741853
1782661146584704500,2.32370458984375,-1.9293226334601639,-0.724055521126464,0.19685922753140328
1782661146594775600,2.333775634765625,-2.428127310633659,-0.46418066916838285,0.23665055517181752
1782661146604846300,2.343846435546875,-2.857818119570613,-0.3071167513327673,0.24293182739838956
1782661146614916400,2.353916259765625,-3.0494892769396302,-0.10927929901950992,0.2129587139390409
1782661146624987400,2.3639873046875,-2.979537204313278,0.06336928756940179,0.22797668872028587
1782661146635058400,2.374058349609375,-2.662490193259716,0.27814262231551107,0.29101211382597686
1782661146645129500,2.38412939453125,-2.161985726431012,0.462932020814158,0.4080271125309169
1782661146655199200,2.39419921875,-1.641371368509531,0.6139417531773448,0.5225850734725594
1782661146665270300,2.404270263671875,-1.1729857949972151,0.8145948200337588,0.5705940482296049
1782661146675341300,2.41434130859375,-0.8053402310848236,1.0335865305267273,0.6193139477349817
1782661146685412400,2.424412353515625,-0.34314474438428877,1.1436435267873108,0.5622539437770843
1782661146695482400,2.434482421875,0.2647293793171644,1.1538198336910457,0.4774355797998607
1782661146705553400,2.444553466796875,0.8347656475335359,1.036492042709887,0.39240050433203577
1782661146715624400,2.45462451171875,1.1090227336525917,0.9670707159593701,0.2851629494063556
1782661146725695500,2.464695556640625,1.2487620437324047,1.0101721910610795,0.11714724678248166
1782661146735765200,2.47476513671875,1.3338269298166037,1.034885703491792,-0.04364537272006273
1782661146745836300,2.484836181640625,1.3082652030587196,0.8466113489542156,-0.32902459522560235
1782661146755907300,2.4949072265625,1.0556932945251465,0.3377301719896495,-0.8597465056635439
1782661146765978400,2.504978271484375,0.6726677906513213,-0.4427491740830242,-1.6377961403712629
1782661146776048400,2.51504833984375,0.2179658745765686,-1.3271762397557496,-2.4785282950937746
1782661146786119200,2.525119140625,-0.34867549050450325,-2.07784511558488,-3.1072254265934225
1782661146796190200,2.535190185546875,-0.9832184254229068,-2.3731781613498923,-3.3453520456671715
1782661146806261200,2.54526123046875,-1.621525681310892,-2.065810540528595,-3.200637285262346
1782661146816331300,2.555331298828125,-2.046096078494191,-1.3030372392773628,-2.7161206611603497
1782661146826402300,2.56540234375,-1.979095841410756,-0.5366404868319631,-1.9982360106885433
1782661146836473300,2.575473388671875,-1.734647618100047,-0.003267660026438534,-1.3328092772066593
1782661146846544400,2.58554443359375,-1.4246692302584647,0.4182822202919051,-0.8444502984628081
1782661146856614400,2.595614501953125,-0.8985609510958195,0.7631442534554749,-0.3032635465033352
1782661146866685400,2.605685546875,-0.38082127182781694,0.9743257285889237,0.17227482137307523
1782661146876756500,2.615756591796875,0.20504969438016413,1.021259913721308,0.4516990809969604
1782661146886827300,2.6258271484375,0.901258519616723,0.8873024749785661,0.4687827561363578
1782661146896897300,2.635897216796875,1.5425398228794336,0.7083924533747136,0.43697256344296037
1782661146906968300,2.64596826171875,2.071866479566693,0.5363466184519231,0.43884127992428834
1782661146917039400,2.656039306640625,2.5792133596360682,0.322561609756574,0.3973700363729149
1782661146927110400,2.6661103515625,2.9971885963380336,0.14734028660282492,0.4110747365985065
1782661146937180200,2.67618017578125,3.2149072181552647,-0.011702128231525421,0.40116241439320144
1782661146947251200,2.686251220703125,3.2776427835315465,-0.1928796563759446,0.3332447702039033
1782661146957322200,2.696322265625,3.2729894047677517,-0.4145619941923767,0.22540530386231838
1782661146967393300,2.706393310546875,3.2398499362319706,-0.571156212157011,0.06123093296699225
1782661146977463300,2.71646337890625,3.1645787144094704,-0.608437602803111,-0.024391879260912536
1782661146987534300,2.726534423828125,3.0379543219685554,-0.5569879860728979,0.003772138949856162
1782661146997605400,2.73660546875,2.705028773781657,-0.4524617359325289,0.10837101593501865
1782661147007676400,2.746676513671875,2.277196744453907,-0.3062285337887704,0.12872311828583477
1782661147017746200,2.75674609375,1.9679606994122265,-0.15376140569150448,0.17165164797343313
1782661147027817200,2.766817138671875,1.7946902911305427,-0.11560191703662276,0.2462683514099568
1782661147037888300,2.77688818359375,1.66308168053627,-0.15403335450068115,0.3068689505841583
1782661147047959300,2.786959228515625,1.5047136578321456,-0.1664167429946363,0.30420009670108555
1782661147058029300,2.797029296875,1.446774679082632,-0.1526402927070856,0.31088096270449456
1782661147068100000,2.80710009765625,1.4183230761021375,-0.20508812669441104,0.3098484778515994
1782661147078171100,2.817171142578125,1.2242150469750166,-0.3130481506757438,0.27257432066388426
1782661147088242200,2.8272421875,0.9026309770137071,-0.41606984147205944,0.2398792348947376
1782661147098312400,2.8373125,0.5732166518181562,-0.4903317401215434,0.17824147469252347
1782661147108383500,2.847383544921875,0.2965057428061962,-0.6235571382626891,0.18792028040289877
1782661147118454300,2.857454345703125,0.09239245249330998,-0.7985429721601307,0.23147300640344617
1782661147128525300,2.867525390625,-0.14559329680502414,-0.9408372274197637,0.2140517698727548
1782661147138595300,2.87759521484375,-0.3500514550328255,-1.1211619381271303,0.09848083249628543
1782661147148666400,2.887666259765625,-0.47165538896322245,-1.4267194407865404,-0.15525909690335393
1782661147158737400,2.8977373046875,-0.7076806518435478,-1.8361720560759305,-0.5155420230932534
1782661147168808200,2.90780810546875,-0.9081137923389673,-2.3827700194291768,-0.9698030635327101
1782661147178878200,2.917878173828125,-1.1706371860444544,-3.058699296094477,-1.490803498162329
1782661147188949200,2.92794921875,-1.507141177240014,-3.5190512007549404,-1.914902186180651
1782661147199020300,2.938020263671875,-1.8480986407130955,-3.668020988255739,-2.1937584366582334
1782661147209091300,2.94809130859375,-1.9170447511672972,-3.7332618144512173,-2.488798344695568
1782661147219161300,2.958161376953125,-1.581153923434019,-3.7893832223847506,-2.71643747202456
1782661147229232400,2.968232421875,-1.0477671777009963,-3.7826737878739833,-2.728094884331524
1782661147239303400,2.978303466796875,-0.7346323716551065,-3.538190493249893,-2.378644171670824
1782661147249374500,2.98837451171875,-0.8564782976478338,-3.028486528660357,-1.7537004013553261
1782661147259444200,2.9984443359375,-1.2558119622439146,-1.9930039552539587,-0.9560567161224782
1782661147269515300,3.008515380859375,-1.6701438740074634,-0.6559880201376974,-0.17522519561126826
1782661147279586300,3.01858642578125,-1.903652770152688,0.5343789716407656,0.5385102262265979
1782661147289657300,3.0286572265625,-1.911658966475725,1.4654142053619026,1.1482178489655255
1782661147299727400,3.038727294921875,-1.6897604286253451,1.8975003850027918,1.3819064855918288
1782661147309798100,3.048798095703125,-1.365262517043948,1.8454972260430453,1.2889631212174892
1782661147319869200,3.058869140625,-1.5028893650144337,1.1810445982903242,0.8952842675127088
1782661147329940200,3.068940185546875,-1.3813713558018206,0.5838188559837639,0.3420399249475449
1782661147340010500,3.079010498046875,-1.0409726952552796,0.4569156466014683,-0.008428878714516759
1782661147350081500,3.08908154296875,-0.800941703864932,0.6747752843245863,-0.026483371647447348
1782661147360152300,3.09915234375,-0.6421621777504682,0.9489762563422321,0.06415799939483403
1782661147370222300,3.109222412109375,-0.30254969914555546,1.096877245567739,0.015153876120597123
1782661147380293400,3.11929345703125,0.228866038775444,1.3057786469399928,-0.09141279380619526
1782661147390364400,3.129364501953125,0.6273772810727357,1.557372211960703,-0.1265259005025029
1782661147400435200,3.139435302734375,0.8644687118798494,1.711577708157897,0.02256707498654723
1782661147410505200,3.149505126953125,1.0523293710500001,1.7137397084973751,0.17530498284921048
1782661147420576300,3.159576171875,1.1322703382492065,1.6054036908105014,0.18099165018349886
1782661147430647300,3.169647216796875,1.0283926151454448,1.5146720111362635,0.09556552957147359
1782661147440718300,3.17971826171875,1.0117366638988257,1.4442317166015506,-0.07605462728515267
1782661147450788400,3.189788330078125,1.1061159062951802,1.3727524344079196,-0.1800948474742472
1782661147460859400,3.199859375,1.2355787370324134,1.2733845899440348,-0.17194558941870927
1782661147470930400,3.209930419921875,1.3035393435806035,1.184359860318154,-0.14410086629018187
1782661147481001500,3.22000146484375,1.2260831789344548,1.065429675641656,-0.1168329201363027
1782661147491071200,3.2300712890625,1.0144915155649186,0.9500615673609077,-0.16372633486688137
1782661147501142300,3.240142333984375,0.8047393425822258,0.8477258130021392,-0.15821706992611287
1782661147511213300,3.25021337890625,0.5935241113096476,0.8093988588258624,-0.11920797870457171
1782661147521284400,3.260284423828125,0.36467385462522506,0.7971219994463026,-0.014022972394526004
1782661147531354400,3.270354248046875,0.21513737315237522,0.7963290955029427,0.09419774834960698
1782661147541425200,3.280425048828125,0.1222498306185007,0.8480351712122559,0.13060732459723948
1782661147551496200,3.29049609375,0.1401928990662098,0.8912947594851255,0.2131977833919227
1782661147561567200,3.300567138671875,0.2809960389852524,0.9210944160737097,0.33553631520718336
1782661147571637500,3.310637451171875,0.5502496177285909,0.883311651776731,0.47054552802518007
1782661147581708500,3.32070849609375,0.7984598239213228,0.7984412653513252,0.601899871597439
1782661147591779300,3.330779296875,1.0130915856391192,0.696471567825973,0.6732869454629719
1782661147601850400,3.340850341796875,1.1456588121324778,0.5250925262488424,0.6472469336688518
1782661147611920400,3.35092041015625,1.168659163969755,0.4027957877486944,0.5720170667700469
1782661147621991400,3.360991455078125,1.2209271113455296,0.31227102882340546,0.5396726941347122
1782661147632062500,3.3710625,1.3486632644206284,0.25969825328215956,0.595141044986993
1782661147642133200,3.38113330078125,1.3947440475940704,0.24992884667888282,0.6700773357667028
1782661147652203300,3.391203369140625,1.4083973098933695,0.2631783504828811,0.7501023279875516
1782661147662274300,3.4012744140625,1.2563561521232127,0.2100464797541499,0.7708028784498572
1782661147672345300,3.411345458984375,0.9321271206110715,0.15891761941090224,0.6864964095175266
1782661147682415400,3.421415283203125,0.6257137317746877,0.09023688189461827,0.6173354872688651
1782661147692486400,3.431486328125,0.44399405957758425,0.006900280907750129,0.5690256298691034
1782661147702557400,3.441557373046875,0.39858547657728194,-0.07810688363984226,0.5915069262683391
1782661147712628500,3.45162841796875,0.4799328034430742,-0.19491583837866783,0.6489169127076864
1782661147722698200,3.4616982421875,0.5792787283360957,-0.28856106741204857,0.6886905585609376
1782661147732769300,3.471769287109375,0.6208131002515554,-0.3339487537547946,0.7070851701684295
1782661147742840300,3.48184033203125,0.5532464614570141,-0.3814455412060022,0.7077782669991255
1782661147752911400,3.491911376953125,0.4520855960965156,-0.3857937995433807,0.6500349569521844
1782661147762981400,3.5019814453125,0.25204876144230365,-0.47929815880134696,0.595485182249546
1782661147773052200,3.51205224609375,-0.03226736187636852,-0.5283266858644783,0.5304724657215177
1782661147783123200,3.522123291015625,-0.24954291610121726,-0.49784050831645726,0.5380876169003546
1782661147793194200,3.5321943359375,-0.5077887786179781,-0.43573228105828166,0.5564097477935255
1782661147803264300,3.54226416015625,-0.8676023337304591,-0.38876704320050776,0.5761999054126441
1782661147813335300,3.552335205078125,-1.2399796023398637,-0.2783173212952912,0.574819118578732
1782661147823406300,3.56240625,-1.5448416700810192,-0.1741776593197137,0.5554788966841996
1782661147833477400,3.572477294921875,-1.7396359279066322,-0.07327668700441718,0.5212754521787166
1782661147843547400,3.58254736328125,-1.7615625130325554,0.10182787790186702,0.4845855976849794
1782661147853618400,3.592618408203125,-1.6626164011120794,0.17923516190499067,0.4755110414780676
1782661147863689500,3.602689453125,-1.4715169061511755,0.17723960417360066,0.4342207074515521
1782661147873760300,3.61276025390625,-1.1731740110456943,0.05765709306821227,0.3054430824995041
1782661147883830300,3.622830322265625,-0.7548281874656677,-0.11398227994553745,0.16747648118063807
1782661147893901300,3.6329013671875,-0.37658641073703764,-0.29788594511821864,0.08585691324472428
1782661147903972400,3.642972412109375,-0.2864852840512991,-0.5094708134207874,0.03760521577298641
1782661147914042000,3.6530419921875,-0.5138555313110351,-0.6911757264401763,-0.071522975204885
1782661147924113200,3.663113037109375,-0.7230828036367892,-0.6830504337821155,-0.15219576380997896
1782661147934184200,3.67318408203125,-0.8460176939100027,-0.5122853593848645,-0.2037789437919855
1782661147944255200,3.683255126953125,-0.8530617672026157,-0.3879256239403039,-0.2509061672784388
1782661147954325500,3.693325439453125,-0.867285522866249,-0.35609278102368114,-0.2828065955385566
1782661147964396300,3.703396240234375,-0.8874065198749304,-0.29546631675586105,-0.2970291821584105
1782661147974467300,3.71346728515625,-0.8446487436443567,-0.21939086587838827,-0.2622299637168646
1782661147984538400,3.723538330078125,-0.844627700856328,-0.04881020813733339,-0.20629881765842437
1782661147994608400,3.7336083984375,-0.9662234514802693,0.19347674548625945,-0.21445319028049706
1782661148004679400,3.743679443359375,-0.9492664714604616,0.42108562380746006,-0.22885215638056397
1782661148014750200,3.753750244140625,-0.7380465640127658,0.5925016363941132,-0.20518895672038195
1782661148024821200,3.7638212890625,-0.6063964523643255,0.5972917932800949,-0.20884777148887515
1782661148034891300,3.773891357421875,-0.49361529183685776,0.5911676843766123,-0.15641294311359524
1782661148044962300,3.78396240234375,-0.44669922688305375,0.6548178803797811,-0.11156447821408509
1782661148055033300,3.794033447265625,-0.29090894571244713,0.7173908025402576,-0.0939453810237348
1782661148065103400,3.804103271484375,-0.14144085330069064,0.6765574185010045,-0.0724761842764914
1782661148075174400,3.81417431640625,-0.09142916041910648,0.56885947952196,-0.041887423136830325
1782661148085245400,3.824245361328125,0.004364624950289726,0.4406548321522772,-0.049747196726500985
1782661148095316500,3.83431640625,0.1487801101475954,0.24557620442733166,-0.06525602376461029
1782661148105386200,3.84438623046875,0.2519640057682991,0.0396061072666198,-0.11140300404205918
1782661148115457300,3.854457275390625,0.19683949991762636,-0.1915671855378896,-0.13900032828077674
1782661148125528300,3.8645283203125,-0.04932254157364368,-0.32982597473636266,-0.09851005859076976
1782661148135599400,3.874599365234375,-0.32505028476715087,-0.4031970620259642,-0.10216536622792481
1782661148145669000,3.884669189453125,-0.5675052884340286,-0.48119763574711977,-0.1720160243064165
1782661148155740200,3.894740234375,-0.6720487819701433,-0.5156387614659965,-0.24582272653430698
1782661148165811200,3.904811279296875,-0.5139373643755912,-0.4643766301319003,-0.24089418409094213
1782661148175882200,3.91488232421875,-0.05850888759195804,-0.3938848246056586,-0.12640534286275507
1782661148185952500,3.924952392578125,0.47574762671291826,-0.37339616332836445,0.012530834140628576
1782661148196023300,3.935023193359375,0.8770248265922069,-0.46877859141789374,0.06986614790856838
1782661148206094300,3.94509423828125,1.0983341663777828,-0.6772045572981238,-0.04085281939208507
1782661148216164400,3.955164306640625,1.255141515636444,-0.9435062274333089,-0.19369009597599504
1782661148226235400,3.9652353515625,1.3890233318597078,-1.3222642100557684,-0.4066872422292828
1782661148236306400,3.975306396484375,1.5736778884649276,-1.6515632383085785,-0.5820020158201455
1782661148246377200,3.985377197265625,1.755770485627651,-1.6929378896176814,-0.5644676743037998
1782661148256447200,3.995447265625,1.9265677817940712,-1.5738625973820686,-0.4570931951254606
1782661148266518300,4.005518310546875,2.061867063599825,-1.3701941282272339,-0.3563113922104239
1782661148276589300,4.01558935546875,2.1669716981500384,-1.1806756919126957,-0.29946517713367937
1782661148286660400,4.025660400390625,2.2432582344949243,-1.0436979555007069,-0.2234409449867904
1782661148296730400,4.03573046875,2.3000796073913574,-0.8931307427406311,-0.16292685505226254
1782661148306801400,4.045801513671875,2.430302316585183,-0.8039872090406716,-0.05938391686081886
1782661148316872400,4.05587255859375,2.485031101116538,-0.7264294837161899,0.03791296654790639
1782661148326943500,4.065943603515625,2.383369885018468,-0.587151507537812,0.15113602562397718
1782661148337013200,4.07601318359375,2.2335054867655035,-0.5989452595755458,0.14491218267306685
1782661148347084300,4.086084228515625,2.21926419544518,-0.8113029388815164,0.00616173750013113
1782661148357155300,4.0961552734375,2.2267910838186737,-1.1200057538293302,-0.26339696166962384
1782661148367225300,4.106225341796875,2.166777636882663,-1.41924589003548,-0.5636357535243034
1782661148377296100,4.116296142578125,2.0178081416428086,-1.5538643499702214,-0.7235435530163348
1782661148387367200,4.1263671875,1.753806492078304,-1.5842153568312525,-0.8015100052721797
1782661148397438200,4.136438232421875,1.2784002261489629,-1.4955055383734404,-0.7995971573881805
1782661148407508500,4.146508544921875,0.5916197389930486,-1.3844057550616562,-0.7297713414900004
1782661148417579500,4.15657958984375,-0.10741583410203456,-1.5486970303349197,-0.5757192822888493
1782661148427650300,4.166650390625,-0.9418553184211254,-1.8793163474060595,-0.5774450831681489
1782661148437721300,4.176721435546875,-2.095279503858089,-2.122259280720353,-1.0869488490104675
1782661148447791400,4.186791259765625,-3.204910724797845,-2.022899765693396,-2.0139402141682803
1782661148457862400,4.1968623046875,-3.5743840886592864,-1.9673104188099502,-2.799718981823325
1782661148467933400,4.206933349609375,-3.3282232162117955,-1.4659120718814431,-2.5657740323483944
1782661148478003200,4.217003173828125,-2.8836060562998056,0.2236590081842616,-0.8450324822649359
1782661148488074200,4.22707421875,-3.4841040982753038,1.8267058702029286,1.24032213216722
1782661148498145300,4.237145263671875,-3.8332986442178485,2.684963598613441,2.3377713324040172
1782661148508216300,4.24721630859375,-3.4289205557137725,2.925938592855632,2.3730814229771493
1782661148518285800,4.257285888671875,-2.47430337087512,3.3514418869748708,2.1895532400533555
1782661148528356900,4.26735693359375,-2.159600292599201,3.420221116429567,2.03589675604105
1782661148538428000,4.277427978515625,-2.2353332867145537,3.2491286367088557,1.7700909796640276
1782661148548499000,4.2874990234375,-2.017468534424901,2.9868136250570414,1.281787968891114
1782661148558569000,4.29756884765625,-1.748782526436448,2.1127488173142073,0.29609964622333645
1782661148568639700,4.3076396484375,-1.3853227237761019,0.6657417907804251,-0.8910814820606261
1782661148578710800,4.317710693359375,-1.0664490818172692,-0.002291325807571411,-1.5528069498717785
1782661148588780800,4.32778076171875,-1.0449760856777428,0.150521839248389,-1.5261040902547538
1782661148598851800,4.337851806640625,-1.0479904650628566,0.6207987064000219,-1.184515489271283
1782661148608923000,4.3479228515625,-0.664712447732687,1.1938314530186354,-0.7497321064356715
1782661148618993700,4.35799365234375,0.005133855757117271,1.700155127520114,-0.16960947462134063
1782661148629064000,4.36806396484375,0.6161094526052474,2.075776054225862,0.5513445733584463
1782661148639135000,4.378135009765625,1.0035773228406906,2.1520053074255583,1.050617233369872
1782661148649206000,4.3882060546875,1.3352934952378273,2.0037968596860765,1.2501115586452185
1782661148659275800,4.39827587890625,1.5279162542432545,1.8132348326027392,1.183315319701284
1782661148669346800,4.408346923828125,1.5751993989437818,1.5625158584594725,1.029986898599565
1782661148679417900,4.41841796875,1.4396259763717651,1.219039105641842,0.8615734288297593
1782661148689489000,4.428489013671875,1.3443214358240365,0.8447440937776118,0.7067274427719413
1782661148699559000,4.438558837890625,1.2903133667826652,0.5785950569208711,0.599275952834636
1782661148709629700,4.448629638671875,1.0988982300013304,0.41305641193501647,0.4562006301999092
1782661148719700700,4.45870068359375,0.7667378209680319,0.34426337315067645,0.3668170041337609
1782661148729771800,4.468771728515625,0.5057639947921038,0.39076267399713394,0.2998847177200019
1782661148739842000,4.478842041015625,0.3962415437996387,0.491539070084691,0.27207170490399
1782661148749913000,4.4889130859375,0.5178156671136618,0.5536501468870788,0.4190437427163124
1782661148759983900,4.49898388671875,0.8464473174989223,0.504276240452379,0.6508546027719974
1782661148770054000,4.509053955078125,1.1331266628175973,0.4066276209965348,0.84103859032318
1782661148780125000,4.519125,1.4705436772048472,0.3446285532012582,1.002292105335742
1782661148790196000,4.529196044921875,1.7347943330943583,0.2705572817530483,1.0940972594603895
1782661148800267000,4.53926708984375,1.8303204074382782,0.12538330633863806,1.0971709678173065
1782661148810336800,4.549336669921875,1.7556407217681407,-0.10450345378667115,1.0151296673379837
1782661148820407800,4.55940771484375,1.5505197157174349,-0.283668326934427,0.9513168281190096
1782661148830478800,4.569478759765625,1.313465694311261,-0.26613354702666403,0.9886217457711696
1782661148840550000,4.5795498046875,1.1998065819054842,-0.04544723451025784,1.1082691388063133
1782661148850620000,4.589619873046875,1.1135825889140367,0.14765285968333483,1.2684230220139026
1782661148860691000,4.59969091796875,0.9592460136830806,0.2609655332716182,1.3963365774825214
1782661148870762000,4.609761962890625,0.6821990045845508,0.3130223586473614,1.5913554378442465
1782661148880832000,4.61983203125,0.3731120126247406,0.22987422943729907,1.649531001828611
1782661148890902800,4.62990283203125,0.18106968385577202,-0.16059026533085852,1.4262990234173833
1782661148900973800,4.639973876953125,0.07615034274458884,-1.4863003415241836,0.5165026848189532
1782661148911044900,4.650044921875,0.0391916081815958,-3.3977716764733192,-1.0726076044470072
1782661148921115000,4.660114990234375,-0.11236264285445213,-4.7499379805788395,-2.5771517509311437
1782661148931186000,4.67018603515625,-0.4066694143116474,-4.972177002429962,-3.416801371113956
1782661148941256700,4.680256591796875,-0.681312869399786,-3.8984664051771163,-3.3651083010166882
1782661148951326700,4.69032666015625,-0.9218307675242423,-2.2261304279528558,-2.3162556661665437
1782661148961397800,4.700397705078125,-0.9906266558527946,-1.0464011500447987,-0.7311167647495865
1782661148971468800,4.71046875,-0.9751251353383064,-0.4400478427024558,0.8085437033012509
1782661148981539800,4.720539794921875,-1.1976245616912842,-0.08128120282702148,1.78053054061383
1782661148991609900,4.73060986328125,-1.6373393365144728,0.07937978965248912,1.9747488982476293
1782661149001681000,4.740680908203125,-2.088310249367356,0.024700251090340315,1.7728424703292547
1782661149011752000,4.750751953125,-2.292441659858823,-0.2001064292917028,1.4521017193242907
1782661149021822000,4.760822021484375,-2.138613618671894,-0.507818223908171,1.0056168658442795
1782661149031892700,4.770892822265625,-1.8732395117104053,-0.727918772425875,0.5153370020404457
1782661149041963800,4.7809638671875,-1.5865297712534665,-0.863345699199289,-0.04969985045343637
1782661149052034800,4.791034912109375,-1.2795704389721154,-0.9019112113717943,-0.6691622667483985
1782661149062104800,4.801104736328125,-0.8823930756270885,-0.8608557090144604,-1.237251492550224
1782661149072175900,4.81117578125,-0.5893792665898799,-0.8668284267485141,-1.615359121505171
1782661149082246700,4.82124658203125,-0.5666729292631149,-0.829353267095983,-1.6925176183789967
1782661149092317700,4.831317626953125,-0.7448077287107706,-0.5589988875038922,-1.4539020467445254
1782661149102388000,4.841387939453125,-1.0136264231681824,-0.14400697746165095,-1.0059672867171465
1782661149112459000,4.851458984375,-1.2359329572975635,0.2743533130351454,-0.5666941181816161
1782661149122530000,4.861530029296875,-1.39427818364799,0.6404704252712429,-0.14131123557165265
1782661149132599800,4.871599853515625,-1.5507751517832278,1.1862872481841593,0.40491409507691856
1782661149142670800,4.8816708984375,-1.5785136380583047,1.9151576222464441,1.0047289770938455
1782661149152742000,4.891741943359375,-1.1905571075230836,2.5939666921317577,1.6442539382085204
1782661149162813000,4.90181298828125,-0.5015595288395881,2.9967683250993487,2.173691215663403
1782661149172882700,4.911882568359375,0.2316390106201172,3.030782530643046,2.4673446377784014
1782661149182953700,4.92195361328125,0.8243833697289228,2.693239844049513,2.4767425807207823
1782661149193024800,4.932024658203125,1.0216086540937424,2.0156170613393187,2.0225869003519414
1782661149203095000,4.942094970703125,0.8915244765877723,1.4776257444202898,1.035600646828115
1782661149213165800,4.952165771484375,0.85348262296319,0.9882834537275135,-0.12668401367366314
1782661149223236900,4.96223681640625,0.9605214404463768,0.309143398322165,-1.19877928468436
1782661149233308000,4.972307861328125,0.8745938000530004,-0.38377676063254473,-2.0142529333792627
1782661149243378000,4.9823779296875,0.6173322723984718,-1.0028409713901578,-2.7906331735700367
1782661149253449000,4.992448974609375,0.33563948332071303,-1.538911695510149,-3.5104742188066242
1782661149263519700,5.002519775390625,-0.0015846388429403304,-1.9636308535143732,-4.100595243674516
1782661149273590800,5.0125908203125,-0.18763386467695234,-1.962059074153006,-4.221466771677136
1782661149283660800,5.022660888671875,-0.21205694279372692,-1.2936316975504158,-3.49194370585978
1782661149293731800,5.03273193359375,-0.4422878401815891,-0.6880773220334202,-2.231208900260925
1782661149303803000,5.042802978515625,-0.7684510546267033,-0.12926979238316416,-1.021386389645189
1782661149313873000,5.052872802734375,-0.900885594651103,0.6647028761867433,0.017963088322430848
1782661149323944000,5.06294384765625,-1.2492039422810077,1.4393167642921207,0.8404245500780642
1782661149334015000,5.073014892578125,-1.6326999862760305,1.9417147897824645,1.356369747144729
1782661149344086000,5.0830859375,-1.6741501870393751,2.147907370587438,1.5333224972009658
1782661149354155800,5.09315576171875,-1.209115092998743,2.0576541220799087,1.499842690794915
1782661149364226800,5.103226806640625,-0.38698563967645166,1.6923748489074408,1.3796987464144825
1782661149374297900,5.1132978515625,0.5267120902746916,1.0713742632597685,1.0549363386780024
1782661149384367900,5.123367919921875,1.2507622776389122,0.3792643612420186,0.6653019380584358
1782661149394439000,5.13343896484375,1.7444623251497744,-0.30674937932509927,0.24059783149287103
1782661149404509700,5.143509765625,1.9566502008467912,-0.8261063941292465,-0.1632898431457579
1782661149414580700,5.153580810546875,1.9054718022733925,-1.0836699734702706,-0.46801308693811294
1782661149424651000,5.163651123046875,1.875632544326782,-1.0563212171651422,-0.674308324399963
1782661149434722000,5.17372216796875,2.0517963359624147,-1.0741828178744763,-0.6905659239787608
1782661149444793000,5.18379296875,2.2856062608808276,-1.1978229338075965,-0.6911179318383336
1782661149454862800,5.19386279296875,2.509951607361436,-1.2895897286832332,-0.6681574736200273
1782661149464934000,5.203933837890625,2.6425276016831396,-1.2922531026735902,-0.700070030709356
1782661149475005000,5.2140048828125,2.5457448052763936,-1.2875742972075939,-0.7868232352066785
1782661149485076000,5.224075927734375,2.4517191986232993,-1.3379033854752778,-0.8534563194781541
1782661149495145700,5.234145751953125,2.3367343905717135,-1.3146721474915741,-0.817545924924314
1782661149505216800,5.244216796875,2.1832266673803327,-1.2390896677628158,-0.700376027918607
1782661149515287800,5.254287841796875,1.9810469754785298,-1.185862227705121,-0.5461684858947992
1782661149525358000,5.264358154296875,1.7469471277028321,-1.0115757011834532,-0.41089331561699505
1782661149535429000,5.27442919921875,1.6530232278585433,-0.9839279619317501,-0.301618994166702
1782661149545500200,5.284500244140625,1.5964274804115295,-1.0882985100537539,-0.3822726396799087
1782661149555571200,5.2945712890625,1.2260030994355677,-0.9746827253330498,-0.3421815984405577
1782661149565641200,5.30464111328125,0.5317454082667827,-0.47547282835952936,-0.05654021786749363
1782661149575711200,5.314711181640625,-0.07088672312796115,-0.03156703158728778,0.346821240939945
1782661149585782300,5.3247822265625,-0.3286813347458839,-0.016453560542315244,0.5978893207818269
1782661149595853000,5.33485302734375,-0.4887824648529291,-0.2697418006516993,0.35785219191163775
1782661149605923000,5.344923095703125,-0.5508797323256731,-0.6198418440666049,-0.11093436361700296
1782661149615994000,5.354994140625,-0.512343373182416,-0.9076390144340694,-0.47037777024284
1782661149626065200,5.365065185546875,-0.4129810816764831,-1.1915692071750759,-0.5690612857043743
1782661149636135200,5.37513525390625,-0.36891748354434967,-1.492124517633021,-0.5061242064066231
1782661149646206200,5.385206298828125,-0.49707624594569205,-1.6399626707553863,-0.4351036277659237
1782661149656277200,5.39527734375,-0.8485773152649402,-1.590879783156514,-0.3906142054371535
1782661149666348300,5.405348388671875,-1.261031158196926,-1.5286410613864658,-0.5009599555112422
1782661149676418300,5.415418212890625,-1.5794465349942446,-1.424552910402417,-0.9150992673121392
1782661149686489000,5.425489013671875,-1.7658511501371859,-1.3216314651101826,-1.4596801917545497
1782661149696560000,5.43556005859375,-1.9300737440884113,-1.2292594708830118,-1.6927268772155046
1782661149706630100,5.445630126953125,-2.088006297984719,-0.918036051416397,-1.327241560076922
1782661149716701200,5.455701171875,-2.1962860554397103,-0.2571121823117137,-0.7215481414154171
1782661149726772200,5.465772216796875,-2.0710528250962494,0.4160032425092533,-0.23976328036487102
1782661149736842200,5.47584228515625,-2.106850699186325,0.7867509006228297,0.40388840529099107
1782661149746913300,5.485913330078125,-2.648753928852081,0.8642943782262503,0.5070285348352045
1782661149756984300,5.495984375,-2.733052506738901,1.233019115677476,0.0473331943873316
1782661149767055400,5.506055419921875,-2.4867028337210417,1.8923525007203221,-0.05428498628661036
1782661149777125000,5.516125,-2.1955103948920964,2.588309981544316,0.30468400776050986
1782661149787196200,5.526196044921875,-1.989349524399638,2.7786677182272075,0.4673580570954829
1782661149797267200,5.53626708984375,-1.3524813614040612,2.6966899845033883,0.2935669859405607
1782661149807337200,5.546337158203125,-0.6340490139216184,2.7184108179241417,0.07580518256872892
1782661149817408000,5.556407958984375,-0.4529454277962446,2.667985868066549,-0.07896430418677627
1782661149827479000,5.56647900390625,-0.044622401058673856,2.6265222232997414,-0.08595277483463287
1782661149837550000,5.576550048828125,0.4793441899001598,2.5945970989897846,0.11271043337881564
1782661149847620400,5.586620361328125,0.9003308833777904,2.515458095823228,0.20129355671703814
1782661149857691400,5.59669140625,1.266073828539252,2.514555886286497,0.3415408163189888
1782661149867762200,5.60676220703125,1.805070230847597,2.4369765336520968,0.40338140561692415
1782661149877832200,5.616832275390625,2.1878619259655476,2.171045815721154,0.492906632110849
1782661149887903200,5.6269033203125,2.1761042681545018,1.8536694265827536,0.566329522652924
1782661149897974300,5.636974365234375,1.81368082280457,1.6900953596681356,0.4472772459667176
1782661149908045300,5.64704541015625,1.4671996274739503,1.7456819300726054,0.32912637509964404
1782661149918115000,5.657114990234375,1.6065192508369683,1.7481689245827494,0.6464123094756156
1782661149928186000,5.66718603515625,1.0203080928891897,1.760097701177001,0.8016735252708196
1782661149938257200,5.677257080078125,0.9214631032556295,1.7822225853540001,0.7732046788945793
1782661149948327400,5.687327392578125,0.7429682383239269,1.746333671979606,0.6847765999875962
1782661149958398200,5.697398193359375,0.3110416331589222,1.6227096303984523,0.5499670013949275
1782661149968470000,5.707469970703125,-0.15010639031529427,1.572083458880335,0.4281524934537709
1782661149978540300,5.717540283203125,-0.7607517322957515,1.5036829996101557,0.3259526404343545
1782661149988611300,5.727611328125,-1.395768714466691,1.3687386687219143,0.2767924498155713
1782661149998682400,5.737682373046875,-1.6623744090497492,1.0325478351287543,0.11150193437188863
1782661150008752000,5.747752197265625,-1.5415642558455467,0.6107927876271307,-0.051003188136965034
1782661150018823200,5.7578232421875,-1.2298890009582042,0.29421814332567153,-0.12579247166141866
1782661150028894200,5.767894287109375,-0.341234526848793,0.07545278893448412,-0.08310863744989037
