time,seconds_elapsed,z,y,x
1782661144328852000,0.06785205078125,-0.02007676661014557,0.050096794962882996,0.1837494820356369
1782661144338923000,0.077923095703125,0.004793659318238497,0.049383942037820816,0.22066810727119446
1782661144348993800,0.087993896484375,0.0291764959692955,0.039395757019519806,0.22765304148197174
1782661144359064800,0.09806494140625,0.05445048213005066,0.013084686361253262,0.207831472158432
1782661144369134800,0.108134765625,0.07940057665109634,-0.03750551864504814,0.15713581442832947
1782661144379206000,0.118205810546875,0.09909354150295258,-0.10247299820184708,0.10154318064451218
1782661144389277000,0.12827685546875,0.10932141542434692,-0.1575509011745453,0.05761859938502312
1782661144399347700,0.13834765625,0.11617403477430344,-0.18299907445907593,0.04585379362106323
1782661144409418000,0.14841796875,0.10061558336019516,-0.19034859538078308,0.06044551730155945
1782661144419489000,0.158489013671875,0.08745784312486649,-0.1782117784023285,0.08835618197917938
1782661144429560000,0.16856005859375,0.06808867305517197,-0.14066387712955475,0.12014713138341904
1782661144439631000,0.178631103515625,0.049127742648124695,-0.09041903913021088,0.14109010994434357
1782661144449702000,0.188701904296875,0.027693022042512894,-0.050559502094984055,0.14983274042606354
1782661144459772000,0.19877197265625,0.016445042565464973,-0.023663213476538658,0.13964365422725677
1782661144469843000,0.208843017578125,0.004449366591870785,-0.011471261270344257,0.11245332658290863
1782661144479914000,0.2189140625,0.005014999769628048,-0.010703952983021736,0.06934408843517303
1782661144489984800,0.22898486328125,0.008732239715754986,-0.019077729433774948,0.010997694917023182
1782661144500054800,0.2390546875,0.018634852021932602,-0.0329933762550354,-0.039618704468011856
1782661144510125800,0.249125732421875,0.026426995173096657,-0.04623860865831375,-0.07419346272945404
1782661144520196000,0.259196044921875,0.0345463864505291,-0.049179691821336746,-0.09293529391288757
1782661144530267000,0.269266845703125,0.03209175169467926,-0.054773662239313126,-0.09946243464946747
1782661144540338000,0.279337890625,0.028880104422569275,-0.04321606457233429,-0.0912955105304718
1782661144550408200,0.289408203125,0.026339447125792503,-0.025723354890942574,-0.07778236269950867
1782661144560479200,0.299479248046875,0.025316737592220306,-0.011125657707452774,-0.05893049016594887
1782661144570550300,0.30955029296875,0.023091133683919907,0.001167760230600834,-0.041231919080019
1782661144580621000,0.31962109375,0.022809889167547226,0.004413382615894079,-0.028643816709518433
1782661144590691000,0.329691162109375,0.021913204342126846,0.007320488803088665,-0.02266768366098404
1782661144600762000,0.33976220703125,0.02457403764128685,0.004200988449156284,-0.02294362150132656
1782661144610833200,0.349833251953125,0.026357024908065796,0.0034505093935877085,-0.02036248706281185
1782661144620904200,0.359904296875,0.025440918281674385,-0.0030010445043444633,-0.025891099125146866
1782661144630975000,0.36997509765625,0.026638008654117584,-0.006640786305069923,-0.030217669904232025
1782661144641045000,0.380044921875,0.0294476430863142,-0.007082072086632252,-0.027288192883133888
1782661144651116000,0.390115966796875,0.03821796923875809,-0.001294224406592548,-0.02224629744887352
1782661144661187000,0.40018701171875,0.04464030638337135,0.007208467926830053,-0.013329166918992996
1782661144671258000,0.410258056640625,0.045855771750211716,0.007004735991358757,-0.00697086937725544
1782661144681328000,0.420328125,0.047003306448459625,0.020636433735489845,0.003904572455212474
1782661144691399200,0.430399169921875,0.04861371964216232,0.03738532215356827,0.016729291528463364
1782661144701470200,0.44047021484375,0.05019594356417656,0.04545249044895172,0.015846693888306618
1782661144711541200,0.450541259765625,0.05892738327383995,0.04136134311556816,0.020654497668147087
1782661144721612300,0.4606123046875,0.06626728177070618,0.03299030661582947,0.020512577146291733
1782661144731682000,0.47068212890625,0.06752163171768188,0.02680857665836811,0.020901132375001907
1782661144741753000,0.480753173828125,0.06188192218542099,0.027753060683608055,0.022235875949263573
1782661144751824100,0.49082421875,0.05550365149974823,0.032496947795152664,0.02426999807357788
1782661144761895200,0.500895263671875,0.044744960963726044,0.02702959068119526,0.01925622671842575
1782661144771965000,0.51096484375,0.03164513781666756,0.01998952403664589,0.017344342544674873
1782661144782036000,0.521035888671875,0.01862955652177334,0.009007281623780727,0.015723902732133865
1782661144792107000,0.53110693359375,0.008939378894865513,-0.0014070096658542752,0.00961354561150074
1782661144802178000,0.541177978515625,0.0075058541260659695,-0.011580931954085827,0.0012308182194828987
1782661144812249000,0.5512490234375,0.005981194321066141,-0.02715270034968853,-0.00848332792520523
1782661144822319000,0.561319091796875,0.008852513507008553,-0.028303520753979683,-0.015727348625659943
1782661144832390100,0.57139013671875,0.009869573637843132,-0.03901209309697151,-0.018817681819200516
1782661144842461200,0.581461181640625,0.00960747990757227,-0.040637869387865067,-0.019758284091949463
1782661144852532200,0.5915322265625,0.016539687290787697,-0.03386065736413002,-0.007765803020447493
1782661144862602200,0.601602294921875,0.035961080342531204,-0.026075754314661026,-0.008114833384752274
1782661144872673000,0.611673095703125,0.05914709344506264,-0.021724149584770203,-0.001679304288700223
1782661144882744000,0.621744140625,0.084393709897995,-0.0061275772750377655,-0.0009604307124391198
1782661144892815000,0.631815185546875,0.10928814113140106,0.021361572667956352,-0.01263013668358326
1782661144902886100,0.64188623046875,0.13625986874103546,0.057086993008852005,-0.050267282873392105
1782661144912956200,0.6519560546875,0.163153275847435,0.0875072181224823,-0.0940970629453659
1782661144923027000,0.66202685546875,0.18801826238632202,0.10717018693685532,-0.13176140189170837
1782661144933098000,0.672097900390625,0.21388447284698486,0.11350531131029129,-0.15066052973270416
1782661144943169000,0.6821689453125,0.23788486421108246,0.11108720302581787,-0.15300793945789337
1782661144953239300,0.6922392578125,0.25543883442878723,0.09918980300426483,-0.1393323391675949
1782661144963310000,0.70231005859375,0.265483021736145,0.08615288138389587,-0.1105945035815239
1782661144973381000,0.712381103515625,0.26340070366859436,0.07769201695919037,-0.0731121152639389
1782661144983452200,0.7224521484375,0.2493561953306198,0.0719359964132309,-0.03677511215209961
1782661144993523200,0.732523193359375,0.22576485574245453,0.05980263650417328,-0.015303906053304672
1782661145003593200,0.74259326171875,0.1936519294977188,0.04944373667240143,-0.00786383356899023
1782661145013664000,0.7526640625,0.14843571186065674,0.0399562269449234,-0.01811141148209572
1782661145023735000,0.762735107421875,0.10106038302183151,0.03651879355311394,-0.028904765844345093
1782661145033806000,0.77280615234375,0.05622846260666847,0.029655560851097107,-0.030619841068983078
1782661145043876000,0.7828759765625,0.018652217462658882,0.024479126557707787,-0.020516013726592064
1782661145053947100,0.792947021484375,-0.005388137884438038,0.00987807847559452,-0.004629458300769329
1782661145064018000,0.803017822265625,-0.023043636232614517,-0.00809971522539854,0.010931958444416523
1782661145074089000,0.8130888671875,-0.036924030631780624,-0.02251354232430458,0.028199361637234688
1782661145084160000,0.823159912109375,-0.051600318402051926,-0.04038413614034653,0.034979306161403656
1782661145094230300,0.833230224609375,-0.06783441454172134,-0.0559987835586071,0.021974558010697365
1782661145104301300,0.84330126953125,-0.09805438667535782,-0.06202015280723572,0.005531804636120796
1782661145114372000,0.8533720703125,-0.12609454989433289,-0.07572425156831741,-0.0032180107664316893
1782661145124443100,0.863443115234375,-0.15557105839252472,-0.06859205663204193,0.0052506509236991405
1782661145134513200,0.87351318359375,-0.17840632796287537,-0.0401897095143795,0.028868895024061203
1782661145144584200,0.883584228515625,-0.20278267562389374,-0.006467634811997414,0.05731925740838051
1782661145154655200,0.8936552734375,-0.21293491125106812,0.025349415838718414,0.07368358969688416
1782661145164726000,0.90372607421875,-0.20901598036289215,0.04683960601687431,0.08071614801883698
1782661145174797000,0.913797119140625,-0.1869594156742096,0.04659006744623184,0.07934222370386124
1782661145184867000,0.9238671875,-0.15305179357528687,0.02840573899447918,0.0679304301738739
1782661145194938000,0.933938232421875,-0.10448531806468964,0.014288854785263538,0.05738218501210213
1782661145205009200,0.944009033203125,-0.05356970801949501,0.008804417215287685,0.03359725698828697
1782661145215080000,0.954079833984375,-0.01356130838394165,0.01861816644668579,0.004672662355005741
1782661145225150200,0.964150146484375,0.007677384186536074,0.028054310008883476,-0.024435285478830338
1782661145235221200,0.97422119140625,0.01744346134364605,0.037078697234392166,-0.052517518401145935
1782661145245292300,0.984292236328125,0.01353461667895317,0.04724183678627014,-0.07099832594394684
1782661145255363300,0.99436328125,0.006723315455019474,0.06229109317064285,-0.08539403975009918
1782661145265434000,1.00443408203125,-0.0070676920004189014,0.05212227255105972,-0.0908067375421524
1782661145275504000,1.014504150390625,-0.016205264255404472,0.0483565628528595,-0.08872387558221817
1782661145285575200,1.0245751953125,-0.02317335270345211,0.047049880027770996,-0.0770411491394043
1782661145295646200,1.034646240234375,-0.03725854679942131,0.035063255578279495,-0.06485239416360855
1782661145305717200,1.04471728515625,-0.043331846594810486,0.020000331103801727,-0.04796824976801872
1782661145315787000,1.054787109375,-0.03928064554929733,0.010467546992003918,-0.037156347185373306
1782661145325858000,1.064858154296875,-0.03947998955845833,0.005486118607223034,-0.03423824906349182
1782661145335929000,1.07492919921875,-0.04729876294732094,0.0064163608476519585,-0.043952398002147675
1782661145346000100,1.085000244140625,-0.06634286046028137,0.010611570440232754,-0.06122307479381561
1782661145356071200,1.0950712890625,-0.0822075754404068,0.014585006982088089,-0.0772092342376709
1782661145366141200,1.10514111328125,-0.09076417237520218,0.020316915586590767,-0.08545311540365219
1782661145376212200,1.115212158203125,-0.08526874333620071,0.02479262463748455,-0.0998256653547287
1782661145386283300,1.125283203125,-0.07526735961437225,0.020867347717285156,-0.11079397797584534
1782661145396354300,1.135354248046875,-0.06576386839151382,0.015195611864328384,-0.11673416197299957
1782661145406424000,1.145424072265625,-0.06191162392497063,-0.0019100807840004563,-0.12255407869815826
1782661145416495000,1.1554951171875,-0.05481749400496483,-0.025336310267448425,-0.11482451856136322
1782661145426566100,1.165566162109375,-0.04536963999271393,-0.04890747368335724,-0.09980444610118866
1782661145436637200,1.17563720703125,-0.03468051180243492,-0.054600246250629425,-0.07107719033956528
1782661145446708200,1.185708251953125,-0.02381599135696888,-0.05478697642683983,-0.043589845299720764
1782661145456778000,1.195778076171875,-0.017110684886574745,-0.03799068555235863,-0.00948141235858202
1782661145466849000,1.20584912109375,-0.01732521876692772,-0.007636188995093107,0.020746344700455666
1782661145476920000,1.215920166015625,-0.016813626512885094,0.01104934886097908,0.04899103194475174
1782661145486991000,1.2259912109375,-0.02408493123948574,0.029047919437289238,0.07159744203090668
1782661145497061000,1.23606103515625,-0.027527334168553352,0.043285444378852844,0.09132347255945206
1782661145507132200,1.246132080078125,-0.03791821002960205,0.035297080874443054,0.10751164704561234
1782661145517203500,1.256203369140625,-0.052806079387664795,0.031816329807043076,0.11008266359567642
1782661145527274500,1.2662744140625,-0.07138717919588089,0.018952397629618645,0.10133136063814163
1782661145537344800,1.2763447265625,-0.09402164816856384,0.013970422558486462,0.08286606520414352
1782661145547415600,1.28641552734375,-0.11829816550016403,0.015107964165508747,0.06025832146406174
1782661145557486600,1.296486572265625,-0.13498924672603607,0.0009569917456246912,0.045216258615255356
1782661145567557600,1.3065576171875,-0.15168076753616333,-0.012249572202563286,0.03318630903959274
1782661145577628700,1.316628662109375,-0.16438138484954834,-0.020470216870307922,0.038910504430532455
1782661145587698400,1.326698486328125,-0.1690603792667389,-0.021771809086203575,0.05062219873070717
1782661145597769500,1.33676953125,-0.17492014169692993,-0.009287442080676556,0.05918639153242111
1782661145607840500,1.346840576171875,-0.16987575590610504,-0.008313153870403767,0.06108291819691658
1782661145617911600,1.35691162109375,-0.15740123391151428,-0.010114249773323536,0.060222186148166656
1782661145627981600,1.366981689453125,-0.13340452313423157,-0.003373614978045225,0.060523632913827896
1782661145638052400,1.37705224609375,-0.09151246398687363,-0.001763201435096562,0.05832359567284584
1782661145648123400,1.387123291015625,-0.044456761330366135,-0.004143333528190851,0.04769556596875191
1782661145658194400,1.3971943359375,0.0008739673648960888,0.0022469214163720608,0.03527671471238136
1782661145668265500,1.407265380859375,0.027406536042690277,0.013194303959608078,0.014175540767610073
1782661145678335700,1.417335693359375,0.0329618901014328,0.018415696918964386,-0.0012287150602787733
1782661145688406500,1.427406494140625,0.02104993537068367,0.042448412626981735,-0.000859383144415915
1782661145698477600,1.4374775390625,0.014887646771967411,0.0769810900092125,0.0077255829237401485
1782661145708548600,1.447548583984375,0.02006669156253338,0.10077162086963654,0.009852510876953602
1782661145718618600,1.45761865234375,0.03276118263602257,0.1268242597579956,-0.0026435735635459423
1782661145728689700,1.467689697265625,0.046807270497083664,0.15575435757637024,-0.03593270480632782
1782661145738760400,1.477760498046875,0.058056995272636414,0.1833263337612152,-0.08323017507791519
1782661145748831500,1.48783154296875,0.05804503709077835,0.2102135568857193,-0.12056917697191238
1782661145758901500,1.497901611328125,0.05009843409061432,0.21319842338562012,-0.1308809369802475
1782661145768972500,1.50797265625,0.03537414222955704,0.1888120323419571,-0.11551611870527267
1782661145779043600,1.518043701171875,0.0209957342594862,0.11916051059961319,-0.08426499366760254
1782661145789114400,1.5281142578125,0.015495717525482178,0.018440676853060722,-0.0318242572247982
1782661145799185400,1.538185302734375,0.028060510754585266,-0.07386874407529831,0.04357568919658661
1782661145809255700,1.548255615234375,0.015283533371984959,-0.15772037208080292,0.14067476987838745
1782661145819326700,1.55832666015625,-0.05170588567852974,-0.21159771084785461,0.24986384809017181
1782661145829397800,1.568397705078125,-0.1496153324842453,-0.2529754042625427,0.3483569622039795
1782661145839468500,1.578468505859375,-0.25437209010124207,-0.258452445268631,0.41860076785087585
1782661145849538600,1.58853857421875,-0.3579627573490143,-0.23336319625377655,0.45425722002983093
1782661145859609600,1.598609619140625,-0.44166404008865356,-0.1972949355840683,0.44632604718208313
1782661145869680600,1.6086806640625,-0.5013030767440796,-0.18419146537780762,0.4065689146518707
1782661145879751700,1.618751708984375,-0.5200046300888062,-0.17292310297489166,0.35079219937324524
1782661145889821400,1.628821533203125,-0.49375441670417786,-0.15042541921138763,0.2987239360809326
1782661145899892500,1.638892578125,-0.42422914505004883,-0.13642731308937073,0.25355830788612366
1782661145909963500,1.648963623046875,-0.3143351674079895,-0.12404592335224152,0.21586716175079346
1782661145920034600,1.65903466796875,-0.17388218641281128,-0.12425790727138519,0.17836984992027283
1782661145930105600,1.669105712890625,-0.02177320420742035,-0.1103530153632164,0.14665311574935913
1782661145940175600,1.679175537109375,0.12200606614351273,-0.07848696410655975,0.10797470808029175
1782661145950246700,1.68924658203125,0.24924236536026,-0.029950954020023346,0.05703134834766388
1782661145960317700,1.699317626953125,0.3482438027858734,0.023415599018335342,-0.0009179727640002966
1782661145970388700,1.709388671875,0.4297005534172058,0.08048607409000397,-0.07089093327522278
1782661145980458500,1.71945849609375,0.4801858365535736,0.13328377902507782,-0.15651102364063263
1782661145990529500,1.729529541015625,0.5029906630516052,0.1812153458595276,-0.25337159633636475
1782661146000600600,1.7396005859375,0.49621421098709106,0.22488826513290405,-0.3329862654209137
1782661146010671600,1.749671630859375,0.4728669822216034,0.23997262120246887,-0.36929747462272644
1782661146020741400,1.759741455078125,0.4365513026714325,0.22681766748428345,-0.3723510503768921
1782661146030812400,1.7698125,0.39700955152511597,0.20840604603290558,-0.35212984681129456
1782661146040883500,1.779883544921875,0.3700818121433258,0.18728478252887726,-0.32154929637908936
1782661146050954500,1.78995458984375,0.35138168931007385,0.17080946266651154,-0.2986091375350952
1782661146061025500,1.800025634765625,0.35624197125434875,0.1514349728822708,-0.2777397930622101
1782661146071095600,1.810095458984375,0.38475292921066284,0.1313825398683548,-0.26321035623550415
1782661146081166600,1.82016650390625,0.4306895136833191,0.10674776136875153,-0.25381579995155334
1782661146091237600,1.830237548828125,0.4910086691379547,0.0700770914554596,-0.2563168704509735
1782661146101308700,1.84030859375,0.5438316464424133,0.013584521599113941,-0.256504088640213
1782661146111378700,1.850378662109375,0.5836052894592285,-0.08622825145721436,-0.2388075441122055
1782661146121449500,1.860449462890625,0.5986164212226868,-0.2176552414894104,-0.1921340525150299
1782661146131520500,1.8705205078125,0.5952677726745605,-0.333982914686203,-0.12307511270046234
1782661146141591600,1.880591552734375,0.5887877941131592,-0.4249253571033478,-0.05284515768289566
1782661146151661600,1.89066162109375,0.602270781993866,-0.4767136573791504,0.001194944023154676
1782661146161732600,1.900732666015625,0.623345136642456,-0.48992082476615906,0.03378457948565483
1782661146171803400,1.910803466796875,0.6316816806793213,-0.48320114612579346,0.059628427028656006
1782661146181874400,1.92087451171875,0.613778829574585,-0.4503933787345886,0.08293428272008896
1782661146191944700,1.93094482421875,0.5680379867553711,-0.38508376479148865,0.10681087523698807
1782661146202015700,1.941015625,0.5120258331298828,-0.31046971678733826,0.13155163824558258
1782661146212086800,1.951086669921875,0.4544186294078827,-0.22589559853076935,0.14141282439231873
1782661146222157600,1.961157470703125,0.4060777425765991,-0.14581726491451263,0.12089557200670242
1782661146232227600,1.9712275390625,0.3664310574531555,-0.07739463448524475,0.06196805089712143
1782661146242298600,1.981298583984375,0.32490622997283936,-0.021382233127951622,-0.021663997322320938
1782661146252369700,1.99136962890625,0.2882653474807739,0.018661677837371826,-0.1198524758219719
1782661146262440700,2.001440673828125,0.2659406065940857,0.03915843367576599,-0.21168465912342072
1782661146272511500,2.011511474609375,0.2588803470134735,0.029205111786723137,-0.27455419301986694
1782661146282581500,2.02158154296875,0.25562116503715515,-0.00904693640768528,-0.29691916704177856
1782661146292652500,2.031652587890625,0.25118428468704224,-0.06055821105837822,-0.2953377366065979
1782661146302723600,2.0417236328125,0.24277347326278687,-0.10260047018527985,-0.275304913520813
1782661146312794600,2.051794677734375,0.24685373902320862,-0.11969779431819916,-0.25102299451828003
1782661146322864600,2.06186474609375,0.24440284073352814,-0.12551520764827728,-0.23121388256549835
1782661146332935700,2.071935791015625,0.23355574905872345,-0.10687430948019028,-0.20384006202220917
1782661146343006700,2.0820068359375,0.21828411519527435,-0.08469497412443161,-0.1602475792169571
1782661146353077800,2.092077880859375,0.20175212621688843,-0.06249777227640152,-0.11098726093769073
1782661146363147500,2.1021474609375,0.18754389882087708,-0.05005121976137161,-0.07502499967813492
1782661146373218600,2.112218505859375,0.1783222109079361,-0.05373901128768921,-0.06389778852462769
1782661146383289600,2.12228955078125,0.1715812087059021,-0.053724098950624466,-0.070384182035923
1782661146393360600,2.132360595703125,0.16301263868808746,-0.05117758736014366,-0.09126264601945877
1782661146403430400,2.142430419921875,0.14448024332523346,-0.037365902215242386,-0.11307340115308762
1782661146413501400,2.15250146484375,0.12009893357753754,-0.01790286786854267,-0.13510476052761078
1782661146423572500,2.162572509765625,0.10495326668024063,-0.01120954379439354,-0.1392928510904312
1782661146433643500,2.1726435546875,0.08383210003376007,-0.014791117049753666,-0.12984907627105713
1782661146443713800,2.1827138671875,0.0649297758936882,-0.032145339995622635,-0.10848865658044815
1782661146453784600,2.19278466796875,0.045505400747060776,-0.06880627572536469,-0.08461697399616241
1782661146463855600,2.202855712890625,0.02032015286386013,-0.12363783270120621,-0.07388709485530853
1782661146473926700,2.2129267578125,-0.008605504408478737,-0.1892424076795578,-0.07915376126766205
1782661146483996700,2.22299658203125,-0.027855364605784416,-0.2414427548646927,-0.0776248425245285
1782661146494067700,2.233067626953125,-0.040314625948667526,-0.25539228320121765,-0.0638081356883049
1782661146504138500,2.243138427734375,-0.05260564759373665,-0.251150906085968,-0.04687735065817833
1782661146514209500,2.25320947265625,-0.06926430761814117,-0.25350049138069153,-0.036956120282411575
1782661146524280300,2.2632802734375,-0.10236740112304688,-0.2627565860748291,-0.047305431216955185
1782661146534350300,2.273350341796875,-0.14342983067035675,-0.28135621547698975,-0.07166258990764618
1782661146544421400,2.28342138671875,-0.18007811903953552,-0.32713890075683594,-0.10575824230909348
1782661146554492200,2.2934921875,-0.22128114104270935,-0.40606021881103516,-0.12713269889354706
1782661146564563200,2.303563232421875,-0.2585661709308624,-0.4648713171482086,-0.1503053903579712
1782661146574633500,2.313633544921875,-0.2754254639148712,-0.4688844382762909,-0.16007044911384583
1782661146584704500,2.32370458984375,-0.28134194016456604,-0.4054040014743805,-0.15803898870944977
1782661146594775600,2.333775634765625,-0.28146636486053467,-0.27877160906791687,-0.13272175192832947
1782661146604846300,2.343846435546875,-0.2797324061393738,-0.120233915746212,-0.07969822734594345
1782661146614916400,2.353916259765625,-0.26841089129447937,0.037464022636413574,0.007689222693443298
1782661146624987400,2.3639873046875,-0.23649422824382782,0.1552918553352356,0.12956345081329346
1782661146635058400,2.374058349609375,-0.17872858047485352,0.22384998202323914,0.26023992896080017
1782661146645129500,2.38412939453125,-0.10047025978565216,0.2582271099090576,0.3922559916973114
1782661146655199200,2.39419921875,-0.007443141657859087,0.2846952974796295,0.5011435747146606
1782661146665270300,2.404270263671875,0.09963377565145493,0.34138041734695435,0.5843490362167358
1782661146675341300,2.41434130859375,0.19347457587718964,0.4102714955806732,0.640430748462677
1782661146685412400,2.424412353515625,0.2696036994457245,0.43410730361938477,0.6765040755271912
1782661146695482400,2.434482421875,0.3206009864807129,0.3735525906085968,0.7060558795928955
1782661146705553400,2.444553466796875,0.3549048900604248,0.27840691804885864,0.7231637835502625
1782661146715624400,2.45462451171875,0.391541987657547,0.17849552631378174,0.7350739240646362
1782661146725695500,2.464695556640625,0.44146478176116943,0.07203619927167892,0.7058954834938049
1782661146735765200,2.47476513671875,0.48086440563201904,-0.015792731195688248,0.6149502396583557
1782661146745836300,2.484836181640625,0.466296911239624,-0.028424104675650597,0.42984670400619507
1782661146755907300,2.4949072265625,0.3523730933666229,0.05220961570739746,0.13332511484622955
1782661146765978400,2.504978271484375,0.1332295536994934,0.18968093395233154,-0.22429905831813812
1782661146776048400,2.51504833984375,-0.16504082083702087,0.33101049065589905,-0.5357213616371155
1782661146786119200,2.525119140625,-0.48833924531936646,0.4290017783641815,-0.7083407640457153
1782661146796190200,2.535190185546875,-0.7687752842903137,0.51959627866745,-0.7292309999465942
1782661146806261200,2.54526123046875,-0.9705874919891357,0.624724805355072,-0.6387934684753418
1782661146816331300,2.555331298828125,-1.0721662044525146,0.6894412040710449,-0.4999195337295532
1782661146826402300,2.56540234375,-1.129597544670105,0.753237247467041,-0.3284575045108795
1782661146836473300,2.575473388671875,-1.1485074758529663,0.8016773462295532,-0.12011236697435379
1782661146846544400,2.58554443359375,-1.1014914512634277,0.7854019999504089,0.1031835675239563
1782661146856614400,2.595614501953125,-0.9952600598335266,0.745186984539032,0.31716373562812805
1782661146866685400,2.605685546875,-0.8622164726257324,0.7029231786727905,0.5141270756721497
1782661146876756500,2.615756591796875,-0.75254887342453,0.6477875113487244,0.6664045453071594
1782661146886827300,2.6258271484375,-0.6653401851654053,0.5879249572753906,0.7621499300003052
1782661146896897300,2.635897216796875,-0.5979878902435303,0.5369899272918701,0.8156765103340149
1782661146906968300,2.64596826171875,-0.5426676869392395,0.4986339509487152,0.8030129075050354
1782661146917039400,2.656039306640625,-0.4916583299636841,0.44998347759246826,0.7518497109413147
1782661146927110400,2.6661103515625,-0.45166271924972534,0.3988877832889557,0.6876920461654663
1782661146937180200,2.67618017578125,-0.42097577452659607,0.341886043548584,0.6322765350341797
1782661146947251200,2.686251220703125,-0.39155715703964233,0.2781131863594055,0.5728462338447571
1782661146957322200,2.696322265625,-0.37262532114982605,0.20098644495010376,0.5143234133720398
1782661146967393300,2.706393310546875,-0.352609246969223,0.11091487109661102,0.460843950510025
1782661146977463300,2.71646337890625,-0.3308773934841156,0.012950623407959938,0.4282773435115814
1782661146987534300,2.726534423828125,-0.28784656524658203,-0.0724409744143486,0.421875923871994
1782661146997605400,2.73660546875,-0.2366495430469513,-0.13539038598537445,0.4446881115436554
1782661147007676400,2.746676513671875,-0.18495866656303406,-0.19464677572250366,0.4812924563884735
1782661147017746200,2.75674609375,-0.1286519318819046,-0.2614022195339203,0.5184733867645264
1782661147027817200,2.766817138671875,-0.06833372265100479,-0.3271346390247345,0.5379384160041809
1782661147037888300,2.77688818359375,-0.006149014923721552,-0.3739708364009857,0.5419241189956665
1782661147047959300,2.786959228515625,0.06228037551045418,-0.4043212831020355,0.5088838934898376
1782661147058029300,2.797029296875,0.12876030802726746,-0.4140911102294922,0.4284406006336212
1782661147068100000,2.80710009765625,0.18667899072170258,-0.3760686218738556,0.3117757737636566
1782661147078171100,2.817171142578125,0.23874521255493164,-0.2989366948604584,0.19572420418262482
1782661147088242200,2.8272421875,0.2884123623371124,-0.23351480066776276,0.10909610986709595
1782661147098312400,2.8373125,0.3358933925628662,-0.21921589970588684,0.08634006232023239
1782661147108383500,2.847383544921875,0.3975626230239868,-0.27292600274086,0.1146092563867569
1782661147118454300,2.857454345703125,0.46339505910873413,-0.34969934821128845,0.17628513276576996
1782661147128525300,2.867525390625,0.5220466256141663,-0.4223434329032898,0.23479583859443665
1782661147138595300,2.87759521484375,0.5628220438957214,-0.46337783336639404,0.24634584784507751
1782661147148666400,2.887666259765625,0.576811671257019,-0.41678479313850403,0.18590086698532104
1782661147158737400,2.8977373046875,0.5352048277854919,-0.3436345160007477,0.10304860770702362
1782661147168808200,2.90780810546875,0.4170014560222626,-0.33556196093559265,0.09536991268396378
1782661147178878200,2.917878173828125,0.25108006596565247,-0.40707409381866455,0.22351928055286407
1782661147188949200,2.92794921875,0.05959051474928856,-0.4826367497444153,0.46589359641075134
1782661147199020300,2.938020263671875,-0.14935491979122162,-0.5122445821762085,0.7260271310806274
1782661147209091300,2.94809130859375,-0.3871312737464905,-0.4527892470359802,0.8550671339035034
1782661147219161300,2.958161376953125,-0.6326786875724792,-0.23894406855106354,0.698802649974823
1782661147229232400,2.968232421875,-0.8136077523231506,0.13472352921962738,0.266442209482193
1782661147239303400,2.978303466796875,-0.8680304288864136,0.5909359455108643,-0.27985259890556335
1782661147249374500,2.98837451171875,-0.7779732346534729,1.0297034978866577,-0.7781965732574463
1782661147259444200,2.9984443359375,-0.5919659733772278,1.3251081705093384,-1.0849330425262451
1782661147269515300,3.008515380859375,-0.3541385233402252,1.376869559288025,-1.1448911428451538
1782661147279586300,3.01858642578125,-0.08302436023950577,1.1801897287368774,-0.9656139612197876
1782661147289657300,3.0286572265625,0.17127369344234467,0.7899362444877625,-0.6326748728752136
1782661147299727400,3.038727294921875,0.3718147873878479,0.37154167890548706,-0.26668059825897217
1782661147309798100,3.048798095703125,0.41692474484443665,0.05309872329235077,0.17246216535568237
1782661147319869200,3.058869140625,0.30583199858665466,-0.2595527768135071,0.6410633325576782
1782661147329940200,3.068940185546875,0.13535213470458984,-0.5886102914810181,1.0138739347457886
1782661147340010500,3.079010498046875,0.026673128828406334,-0.8110602498054504,1.2174288034439087
1782661147350081500,3.08908154296875,0.007081585470587015,-0.8313764333724976,1.2487530708312988
1782661147360152300,3.09915234375,0.016773955896496773,-0.6915881037712097,1.1108126640319824
1782661147370222300,3.109222412109375,0.032011497765779495,-0.46163052320480347,0.837666392326355
1782661147380293400,3.11929345703125,0.06892604380846024,-0.16724590957164764,0.4932388365268707
1782661147390364400,3.129364501953125,0.1308770328760147,0.12312228232622147,0.16436295211315155
1782661147400435200,3.139435302734375,0.19372795522212982,0.31239408254623413,-0.10065250843763351
1782661147410505200,3.149505126953125,0.23928798735141754,0.3755645155906677,-0.2618696391582489
1782661147420576300,3.159576171875,0.25772950053215027,0.36872217059135437,-0.314665287733078
1782661147430647300,3.169647216796875,0.2609197199344635,0.3027109205722809,-0.29774221777915955
1782661147440718300,3.17971826171875,0.240305557847023,0.21054573357105255,-0.23727674782276154
1782661147450788400,3.189788330078125,0.22439689934253693,0.09801118820905685,-0.1895153522491455
1782661147460859400,3.199859375,0.20528043806552887,-0.022951548919081688,-0.16281574964523315
1782661147470930400,3.209930419921875,0.18758532404899597,-0.1336144208908081,-0.15681298077106476
1782661147481001500,3.22000146484375,0.15958748757839203,-0.20948177576065063,-0.16832947731018066
1782661147491071200,3.2300712890625,0.12239085137844086,-0.24459795653820038,-0.19528520107269287
1782661147501142300,3.240142333984375,0.0897553563117981,-0.23222237825393677,-0.23294521868228912
1782661147511213300,3.25021337890625,0.0664505660533905,-0.1753404587507248,-0.27385348081588745
1782661147521284400,3.260284423828125,0.04965953528881073,-0.09594375640153885,-0.313824325799942
1782661147531354400,3.270354248046875,0.038317400962114334,0.005101366434246302,-0.34654125571250916
1782661147541425200,3.280425048828125,0.04157978668808937,0.12356225401163101,-0.38500717282295227
1782661147551496200,3.29049609375,0.059479955583810806,0.2289278209209442,-0.41010215878486633
1782661147561567200,3.300567138671875,0.08507783710956573,0.2885522246360779,-0.4172936677932739
1782661147571637500,3.310637451171875,0.116317518055439,0.29448574781417847,-0.4073624610900879
1782661147581708500,3.32070849609375,0.14147786796092987,0.24783837795257568,-0.37296125292778015
1782661147591779300,3.330779296875,0.15003806352615356,0.16806258261203766,-0.32500144839286804
1782661147601850400,3.340850341796875,0.14650759100914001,0.09768816083669662,-0.27739790081977844
1782661147611920400,3.35092041015625,0.13721901178359985,0.04036441817879677,-0.2578558921813965
1782661147621991400,3.360991455078125,0.13727355003356934,-0.009576903656125069,-0.2708117663860321
1782661147632062500,3.3710625,0.1465030014514923,-0.05519232898950577,-0.30594897270202637
1782661147642133200,3.38113330078125,0.17055241763591766,-0.10851943492889404,-0.3372110426425934
1782661147652203300,3.391203369140625,0.192047581076622,-0.15891124308109283,-0.3502083420753479
1782661147662274300,3.4012744140625,0.20343372225761414,-0.19808384776115417,-0.3311748504638672
1782661147672345300,3.411345458984375,0.20218069851398468,-0.2248147875070572,-0.28902125358581543
1782661147682415400,3.421415283203125,0.19362568855285645,-0.23009556531906128,-0.24752463400363922
1782661147692486400,3.431486328125,0.18317864835262299,-0.21794888377189636,-0.22697673738002777
1782661147702557400,3.441557373046875,0.16845138370990753,-0.22093240916728973,-0.23111547529697418
1782661147712628500,3.45162841796875,0.15709353983402252,-0.24724097549915314,-0.2465120106935501
1782661147722698200,3.4616982421875,0.139668270945549,-0.290377140045166,-0.263569712638855
1782661147732769300,3.471769287109375,0.12337078899145126,-0.35052090883255005,-0.2780703604221344
1782661147742840300,3.48184033203125,0.10290484875440598,-0.42518913745880127,-0.29524675011634827
1782661147752911400,3.491911376953125,0.0661577507853508,-0.4938153326511383,-0.320150762796402
1782661147762981400,3.5019814453125,0.03105025365948677,-0.5262805819511414,-0.3560742735862732
1782661147773052200,3.51205224609375,-0.0007870382396504283,-0.5361958146095276,-0.40517258644104004
1782661147783123200,3.522123291015625,-0.024125587195158005,-0.5363456010818481,-0.4530142843723297
1782661147793194200,3.5321943359375,-0.047900427132844925,-0.5199242830276489,-0.4800221920013428
1782661147803264300,3.54226416015625,-0.06607823818922043,-0.5076524615287781,-0.47044458985328674
1782661147813335300,3.552335205078125,-0.07926248013973236,-0.4888225793838501,-0.4315560460090637
1782661147823406300,3.56240625,-0.08189945667982101,-0.446919709444046,-0.37235647439956665
1782661147833477400,3.572477294921875,-0.05765244737267494,-0.39355021715164185,-0.3009280860424042
1782661147843547400,3.58254736328125,-0.024047503247857094,-0.3388478755950928,-0.22052165865898132
1782661147853618400,3.592618408203125,0.0115421824157238,-0.2875250279903412,-0.14463888108730316
1782661147863689500,3.602689453125,0.031041055917739868,-0.26388493180274963,-0.08712433278560638
1782661147873760300,3.61276025390625,0.020860590040683746,-0.27617114782333374,-0.07153152674436569
1782661147883830300,3.622830322265625,0.00016257044626399875,-0.323178768157959,-0.10930343717336655
1782661147893901300,3.6329013671875,-0.03478076308965683,-0.3736525774002075,-0.16584394872188568
1782661147903972400,3.642972412109375,-0.08521631360054016,-0.3931023180484772,-0.217086061835289
1782661147914042000,3.6530419921875,-0.13255079090595245,-0.376343309879303,-0.2520941197872162
1782661147924113200,3.663113037109375,-0.1800016164779663,-0.3263055682182312,-0.2898103594779968
1782661147934184200,3.67318408203125,-0.2143702358007431,-0.2540510892868042,-0.33470433950424194
1782661147944255200,3.683255126953125,-0.23275303840637207,-0.16118094325065613,-0.37952396273612976
1782661147954325500,3.693325439453125,-0.25411316752433777,-0.07619520276784897,-0.39482223987579346
1782661147964396300,3.703396240234375,-0.27160871028900146,-0.05068371444940567,-0.36487507820129395
1782661147974467300,3.71346728515625,-0.28236761689186096,-0.048856787383556366,-0.2913374900817871
1782661147984538400,3.723538330078125,-0.27418407797813416,-0.02930092066526413,-0.19924196600914001
1782661147994608400,3.7336083984375,-0.25795531272888184,0.008834213949739933,-0.12057910859584808
1782661148004679400,3.743679443359375,-0.22729502618312836,0.051291633397340775,-0.0637040063738823
1782661148014750200,3.753750244140625,-0.19611021876335144,0.08254649490118027,-0.022525141015648842
1782661148024821200,3.7638212890625,-0.15974746644496918,0.10611909627914429,0.009997234679758549
1782661148034891300,3.773891357421875,-0.10300375521183014,0.11798614263534546,0.048209335654973984
1782661148044962300,3.78396240234375,-0.03819246590137482,0.0913621187210083,0.09663274884223938
1782661148055033300,3.794033447265625,0.02057497575879097,0.04347449168562889,0.14358535408973694
1782661148065103400,3.804103271484375,0.07348892092704773,-0.01037516724318266,0.1830446869134903
1782661148075174400,3.81417431640625,0.11885933578014374,-0.060632746666669846,0.19848783314228058
1782661148085245400,3.824245361328125,0.15766113996505737,-0.11158709973096848,0.18509924411773682
1782661148095316500,3.83431640625,0.17828279733657837,-0.15774475038051605,0.14981742203235626
1782661148105386200,3.84438623046875,0.1831541657447815,-0.19122959673404694,0.10830169916152954
1782661148115457300,3.854457275390625,0.1811104565858841,-0.19098059833049774,0.10499032586812973
1782661148125528300,3.8645283203125,0.16821517050266266,-0.1635034680366516,0.13280655443668365
1782661148135599400,3.874599365234375,0.13800133764743805,-0.09419416636228561,0.17088682949543
1782661148145669000,3.884669189453125,0.0963297188282013,0.013105521909892559,0.21372780203819275
1782661148155740200,3.894740234375,0.06024787947535515,0.14197614789009094,0.24386198818683624
1782661148165811200,3.904811279296875,0.044586386531591415,0.24685443937778473,0.25090065598487854
1782661148175882200,3.91488232421875,0.052407555282115936,0.3147983253002167,0.2391422688961029
1782661148185952500,3.924952392578125,0.06288322061300278,0.3609335422515869,0.21164631843566895
1782661148196023300,3.935023193359375,0.06602202355861664,0.40842995047569275,0.17238812148571014
1782661148206094300,3.94509423828125,0.05140293017029762,0.47272253036499023,0.11414516717195511
1782661148216164400,3.955164306640625,0.010686924681067467,0.5452523827552795,0.053833093494176865
1782661148226235400,3.9652353515625,-0.05050085857510567,0.5701003670692444,0.02096824161708355
1782661148236306400,3.975306396484375,-0.108619824051857,0.5364534258842468,0.05804609879851341
1782661148246377200,3.985377197265625,-0.1486520618200302,0.44341403245925903,0.15482011437416077
1782661148256447200,3.995447265625,-0.17901955544948578,0.3132554888725281,0.28314054012298584
1782661148266518300,4.005518310546875,-0.19684414565563202,0.17260219156742096,0.4181310832500458
1782661148276589300,4.01558935546875,-0.2086573839187622,0.05250401049852371,0.5225565433502197
1782661148286660400,4.025660400390625,-0.20872797071933746,-0.04204621911048889,0.576598584651947
1782661148296730400,4.03573046875,-0.20963770151138306,-0.13492955267429352,0.5973930954933167
1782661148306801400,4.045801513671875,-0.2114499807357788,-0.24279159307479858,0.6007733941078186
1782661148316872400,4.05587255859375,-0.198527529835701,-0.3127581477165222,0.5964337587356567
1782661148326943500,4.065943603515625,-0.17406560480594635,-0.33519449830055237,0.5780093669891357
1782661148337013200,4.07601318359375,-0.1673419326543808,-0.3282279372215271,0.5145744681358337
1782661148347084300,4.086084228515625,-0.18538875877857208,-0.32662588357925415,0.4426482617855072
1782661148357155300,4.0961552734375,-0.2425207644701004,-0.31370341777801514,0.3533841669559479
1782661148367225300,4.106225341796875,-0.313045471906662,-0.2879857122898102,0.24578605592250824
1782661148377296100,4.116296142578125,-0.36808955669403076,-0.2209499478340149,0.08722864091396332
1782661148387367200,4.1263671875,-0.3968803584575653,-0.058527860790491104,-0.16671061515808105
1782661148397438200,4.136438232421875,-0.4109722077846527,0.18515856564044952,-0.4808485805988312
1782661148407508500,4.146508544921875,-0.4243609309196472,0.3502653241157532,-0.7293142676353455
1782661148417579500,4.15657958984375,-0.4166625142097473,0.40432190895080566,-0.8438326120376587
1782661148427650300,4.166650390625,-0.4045945703983307,0.5354130864143372,-0.9000011682510376
1782661148437721300,4.176721435546875,-0.4134884476661682,0.9397909045219421,-1.1246273517608643
1782661148447791400,4.186791259765625,-0.4937830865383148,1.532549262046814,-1.6427984237670898
1782661148457862400,4.1968623046875,-0.5806729793548584,1.94813072681427,-2.256060838699341
1782661148467933400,4.206933349609375,-0.5193232297897339,1.9507337808609009,-2.6364145278930664
1782661148478003200,4.217003173828125,-0.3165050745010376,1.7663878202438354,-2.465404987335205
1782661148488074200,4.22707421875,-0.10647556185722351,1.465012550354004,-1.8627996444702148
1782661148498145300,4.237145263671875,0.05901060253381729,0.9985234141349792,-1.0738348960876465
1782661148508216300,4.24721630859375,0.22595465183258057,0.3361533284187317,-0.2166009545326233
1782661148518285800,4.257285888671875,0.34268471598625183,-0.2585292160511017,0.5904042720794678
1782661148528356900,4.26735693359375,0.44805556535720825,-0.6410303711891174,1.171739935874939
1782661148538428000,4.277427978515625,0.5776543021202087,-0.7971537113189697,1.3589924573898315
1782661148548499000,4.2874990234375,0.6322004795074463,-0.7250741720199585,1.1896171569824219
1782661148558569000,4.29756884765625,0.47948792576789856,-0.5795392990112305,0.9044272899627686
1782661148568639700,4.3076396484375,0.2542024552822113,-0.44806355237960815,0.6702423095703125
1782661148578710800,4.317710693359375,0.06195873022079468,-0.27962660789489746,0.5195231437683105
1782661148588780800,4.32778076171875,-0.05820736289024353,-0.0478498637676239,0.4212033748626709
1782661148598851800,4.337851806640625,-0.10111302137374878,0.1555032581090927,0.3657672703266144
1782661148608923000,4.3479228515625,-0.05264761671423912,0.2379603087902069,0.34325405955314636
1782661148618993700,4.35799365234375,0.0709930956363678,0.18867158889770508,0.36331379413604736
1782661148629064000,4.36806396484375,0.22048737108707428,0.04465973377227783,0.4229748845100403
1782661148639135000,4.378135009765625,0.33970537781715393,-0.1521819680929184,0.46608081459999084
1782661148649206000,4.3882060546875,0.41365501284599304,-0.3593066930770874,0.47099393606185913
1782661148659275800,4.39827587890625,0.4652881324291229,-0.5362076759338379,0.4371779263019562
1782661148669346800,4.408346923828125,0.4992879331111908,-0.6346253156661987,0.35675323009490967
1782661148679417900,4.41841796875,0.5130745768547058,-0.6555881500244141,0.22895213961601257
1782661148689489000,4.428489013671875,0.5069025158882141,-0.6371355056762695,0.08392544090747833
1782661148699559000,4.438558837890625,0.4876273572444916,-0.5713016390800476,-0.04864645004272461
1782661148709629700,4.448629638671875,0.4593486785888672,-0.45211827754974365,-0.15150751173496246
1782661148719700700,4.45870068359375,0.43414852023124695,-0.2790876626968384,-0.21876537799835205
1782661148729771800,4.468771728515625,0.4217250943183899,-0.07936107367277145,-0.256653755903244
1782661148739842000,4.478842041015625,0.4316672086715698,0.07968423515558243,-0.26163890957832336
1782661148749913000,4.4889130859375,0.4492374658584595,0.1591147929430008,-0.24607202410697937
1782661148759983900,4.49898388671875,0.47405385971069336,0.1835559606552124,-0.21896398067474365
1782661148770054000,4.509053955078125,0.5094859004020691,0.16150976717472076,-0.18649205565452576
1782661148780125000,4.519125,0.5450838208198547,0.09798140823841095,-0.16151107847690582
1782661148790196000,4.529196044921875,0.561637282371521,0.01246057078242302,-0.14908429980278015
1782661148800267000,4.53926708984375,0.5539407134056091,-0.051231056451797485,-0.17058080434799194
1782661148810336800,4.549336669921875,0.5236270427703857,-0.06435128301382065,-0.2177731692790985
1782661148820407800,4.55940771484375,0.49370214343070984,-0.03221039101481438,-0.2662442922592163
1782661148830478800,4.569478759765625,0.4802304208278656,0.01779116503894329,-0.3118937909603119
1782661148840550000,4.5795498046875,0.4756915867328644,0.05792020633816719,-0.36270132660865784
1782661148850620000,4.589619873046875,0.4867565631866455,0.0624418631196022,-0.38532811403274536
1782661148860691000,4.59969091796875,0.5168308019638062,0.04124389961361885,-0.36026909947395325
1782661148870762000,4.609761962890625,0.5529589056968689,-0.008822958916425705,-0.2820030152797699
1782661148880832000,4.61983203125,0.5744301080703735,-0.06318580359220505,-0.1836809664964676
1782661148890902800,4.62990283203125,0.5217083096504211,-0.0831587091088295,-0.1256064772605896
1782661148900973800,4.639973876953125,0.3614371418952942,-0.050767213106155396,-0.16309499740600586
1782661148911044900,4.650044921875,0.1283067911863327,0.014749225229024887,-0.2383703887462616
1782661148921115000,4.660114990234375,-0.11692959815263748,0.10462851077318192,-0.3077540099620819
1782661148931186000,4.67018603515625,-0.3339335024356842,0.17739765346050262,-0.3394152820110321
1782661148941256700,4.680256591796875,-0.49103015661239624,0.21160809695720673,-0.31146782636642456
1782661148951326700,4.69032666015625,-0.5335254073143005,0.13906918466091156,-0.21708804368972778
1782661148961397800,4.700397705078125,-0.4651452898979187,-0.06436515599489212,-0.08212277293205261
1782661148971468800,4.71046875,-0.3350931406021118,-0.3308525085449219,0.08404897153377533
1782661148981539800,4.720539794921875,-0.20885691046714783,-0.5671699643135071,0.2897467315196991
1782661148991609900,4.73060986328125,-0.13180841505527496,-0.7250753045082092,0.4989469647407532
1782661149001681000,4.740680908203125,-0.11115267127752304,-0.8078991174697876,0.6769651174545288
1782661149011752000,4.750751953125,-0.13822215795516968,-0.8478830456733704,0.7923256754875183
1782661149021822000,4.760822021484375,-0.19721649587154388,-0.8509643077850342,0.8382284045219421
1782661149031892700,4.770892822265625,-0.2718041241168976,-0.7864398956298828,0.8116757869720459
1782661149041963800,4.7809638671875,-0.33719751238822937,-0.660006582736969,0.6993908286094666
1782661149052034800,4.791034912109375,-0.4172910153865814,-0.5261765122413635,0.5066369771957397
1782661149062104800,4.801104736328125,-0.5209470987319946,-0.4340572655200958,0.29445791244506836
1782661149072175900,4.81117578125,-0.644112765789032,-0.377444326877594,0.09772655367851257
1782661149082246700,4.82124658203125,-0.7438180446624756,-0.3086812496185303,-0.07308141142129898
1782661149092317700,4.831317626953125,-0.8038374185562134,-0.19929102063179016,-0.23130138218402863
1782661149102388000,4.841387939453125,-0.8342530727386475,-0.0714113637804985,-0.35371920466423035
1782661149112459000,4.851458984375,-0.849087655544281,0.04396034777164459,-0.4266834259033203
1782661149122530000,4.861530029296875,-0.8263658285140991,0.15688450634479523,-0.4093334376811981
1782661149132599800,4.871599853515625,-0.7219330072402954,0.2597586214542389,-0.3055768609046936
1782661149142670800,4.8816708984375,-0.5257381796836853,0.311568021774292,-0.1604127585887909
1782661149152742000,4.891741943359375,-0.28876158595085144,0.25325554609298706,0.025208566337823868
1782661149162813000,4.90181298828125,-0.08033142983913422,0.06585397571325302,0.2675634026527405
1782661149172882700,4.911882568359375,0.11418424546718597,-0.23953616619110107,0.5219585299491882
1782661149182953700,4.92195361328125,0.28281933069229126,-0.486215740442276,0.7081925868988037
1782661149193024800,4.932024658203125,0.422649085521698,-0.4880339801311493,0.7239542603492737
1782661149203095000,4.942094970703125,0.49105104804039,-0.2783803641796112,0.5546197891235352
1782661149213165800,4.952165771484375,0.5028461813926697,-0.003920022398233414,0.2709304392337799
1782661149223236900,4.96223681640625,0.46954044699668884,0.2690470516681671,-0.038029275834560394
1782661149233308000,4.972307861328125,0.40174227952957153,0.5198922753334045,-0.34815898537635803
1782661149243378000,4.9823779296875,0.2867099642753601,0.7718341946601868,-0.6850051879882812
1782661149253449000,4.992448974609375,0.09948134422302246,1.0035347938537598,-1.0354634523391724
1782661149263519700,5.002519775390625,-0.1496560424566269,1.1329319477081299,-1.332849144935608
1782661149273590800,5.0125908203125,-0.36292964220046997,1.1137322187423706,-1.530879259109497
1782661149283660800,5.022660888671875,-0.5090439915657043,1.0438271760940552,-1.5670623779296875
1782661149293731800,5.03273193359375,-0.5965613722801208,0.9160387516021729,-1.4118289947509766
1782661149303803000,5.042802978515625,-0.6207284927368164,0.680363118648529,-1.1027363538742065
1782661149313873000,5.052872802734375,-0.5718691945075989,0.43844303488731384,-0.6777257919311523
1782661149323944000,5.06294384765625,-0.46505752205848694,0.2971005439758301,-0.19441236555576324
1782661149334015000,5.073014892578125,-0.34212005138397217,0.2742002010345459,0.23603317141532898
1782661149344086000,5.0830859375,-0.22372467815876007,0.3119798004627228,0.5349146723747253
1782661149354155800,5.09315576171875,-0.12110103666782379,0.33976009488105774,0.6767299771308899
1782661149364226800,5.103226806640625,-0.048370372503995895,0.3370356857776642,0.6988068222999573
1782661149374297900,5.1132978515625,-0.0009368743048980832,0.3416987657546997,0.6246210336685181
1782661149384367900,5.123367919921875,0.016650374978780746,0.3602612614631653,0.4805448055267334
1782661149394439000,5.13343896484375,0.019467337056994438,0.36455127596855164,0.3192060589790344
1782661149404509700,5.143509765625,0.017953330650925636,0.3664274513721466,0.21607087552547455
1782661149414580700,5.153580810546875,0.017137404531240463,0.35069170594215393,0.1985347718000412
1782661149424651000,5.163651123046875,0.00013897963799536228,0.2788689136505127,0.2438252866268158
1782661149434722000,5.17372216796875,-0.02864593081176281,0.1816050112247467,0.30250832438468933
1782661149444793000,5.18379296875,-0.054553959518671036,0.05986472964286804,0.33622369170188904
1782661149454862800,5.19386279296875,-0.06963444501161575,-0.05780436843633652,0.33801624178886414
1782661149464934000,5.203933837890625,-0.08488956838846207,-0.1423403024673462,0.31968650221824646
1782661149475005000,5.2140048828125,-0.09819605201482773,-0.21380382776260376,0.30126142501831055
1782661149485076000,5.224075927734375,-0.11463601142168045,-0.29743215441703796,0.29455024003982544
1782661149495145700,5.234145751953125,-0.12665845453739166,-0.38319772481918335,0.29022353887557983
1782661149505216800,5.244216796875,-0.15184450149536133,-0.4684143662452698,0.28749194741249084
1782661149515287800,5.254287841796875,-0.16682755947113037,-0.5475202202796936,0.28405725955963135
1782661149525358000,5.264358154296875,-0.18205179274082184,-0.5982374548912048,0.22438167035579681
1782661149535429000,5.27442919921875,-0.21080781519412994,-0.6242853999137878,0.10153291374444962
1782661149545500200,5.284500244140625,-0.2598627209663391,-0.6096817255020142,-0.02713797427713871
1782661149555571200,5.2945712890625,-0.2835692763328552,-0.530243992805481,-0.08243273943662643
1782661149565641200,5.30464111328125,-0.23102939128875732,-0.41762471199035645,-0.0708242878317833
1782661149575711200,5.314711181640625,-0.12016580253839493,-0.3009888529777527,-0.05600094050168991
1782661149585782300,5.3247822265625,-0.02418147586286068,-0.16590717434883118,-0.050656508654356
1782661149595853000,5.33485302734375,0.017134537920355797,-0.0018588457023724914,-0.061554163694381714
1782661149605923000,5.344923095703125,0.009299853816628456,0.14454491436481476,-0.08406276255846024
1782661149615994000,5.354994140625,-0.010555077344179153,0.2445300966501236,-0.10683358460664749
1782661149626065200,5.365065185546875,-0.0410548597574234,0.24080057442188263,-0.0909188911318779
1782661149636135200,5.37513525390625,-0.06747794896364212,0.11463703960180283,-0.005738751031458378
1782661149646206200,5.385206298828125,-0.08418368548154831,-0.057342976331710815,0.1511315554380417
1782661149656277200,5.39527734375,-0.07459045201539993,-0.1456800252199173,0.29500752687454224
1782661149666348300,5.405348388671875,-0.062070462852716446,-0.017375312745571136,0.2610689699649811
1782661149676418300,5.415418212890625,-0.07735754549503326,0.4087834656238556,-0.08441972732543945
1782661149686489000,5.425489013671875,-0.1040322333574295,1.0065683126449585,-0.6517972350120544
1782661149696560000,5.43556005859375,-0.08931240439414978,1.5433859825134277,-1.259054183959961
1782661149706630100,5.445630126953125,-0.054911356419324875,1.7907177209854126,-1.6594185829162598
1782661149716701200,5.455701171875,-0.013852071948349476,1.617018699645996,-1.718451976776123
1782661149726772200,5.465772216796875,0.069206602871418,1.1832343339920044,-1.3909072875976562
1782661149736842200,5.47584228515625,0.08983491361141205,0.713447093963623,-0.6956022381782532
1782661149746913300,5.485913330078125,-0.0041916524060070515,0.23094262182712555,0.14569391310214996
1782661149756984300,5.495984375,-0.13648657500743866,-0.2162519246339798,0.8935282230377197
1782661149767055400,5.506055419921875,-0.15289171040058136,-0.5143908858299255,1.3736082315444946
1782661149777125000,5.516125,-0.04556259512901306,-0.6161057949066162,1.5211249589920044
1782661149787196200,5.526196044921875,0.07902007550001144,-0.6083403825759888,1.3162949085235596
1782661149797267200,5.53626708984375,0.17705291509628296,-0.5120692849159241,0.9723449349403381
1782661149807337200,5.546337158203125,0.2176920771598816,-0.3053707182407379,0.7147952318191528
1782661149817408000,5.556407958984375,0.23522260785102844,-0.13084444403648376,0.5394617319107056
1782661149827479000,5.56647900390625,0.266734778881073,0.02353663183748722,0.3997565507888794
1782661149837550000,5.576550048828125,0.29439276456832886,0.2257445901632309,0.22337695956230164
1782661149847620400,5.586620361328125,0.3527873754501343,0.4255656898021698,0.05585672706365585
1782661149857691400,5.59669140625,0.4178611934185028,0.4918144941329956,-0.08091922849416733
1782661149867762200,5.60676220703125,0.45633912086486816,0.39284834265708923,-0.1750756949186325
1782661149877832200,5.616832275390625,0.4632449746131897,0.20541425049304962,-0.2200716733932495
1782661149887903200,5.6269033203125,0.4421796500682831,0.02895679697394371,-0.19768989086151123
1782661149897974300,5.636974365234375,0.38713741302490234,-0.20822273194789886,-0.09363432973623276
1782661149908045300,5.64704541015625,0.33048105239868164,-0.5687215924263,-0.07148848474025726
1782661149918115000,5.657114990234375,0.3290615975856781,-0.7675646543502808,-0.07783319801092148
1782661149928186000,5.66718603515625,0.37779393792152405,-0.8076948523521423,-0.179993137717247
1782661149938257200,5.677257080078125,0.4484201669692993,-0.6998408436775208,-0.34267154335975647
1782661149948327400,5.687327392578125,0.49653756618499756,-0.5314411520957947,-0.4677381217479706
1782661149958398200,5.697398193359375,0.529531717300415,-0.4049055874347687,-0.5102251172065735
1782661149968470000,5.707469970703125,0.5621300935745239,-0.29946863651275635,-0.4600285291671753
1782661149978540300,5.717540283203125,0.5669837594032288,-0.18589676916599274,-0.3153300881385803
1782661149988611300,5.727611328125,0.49491170048713684,-0.09166773408651352,-0.1140822023153305
1782661149998682400,5.737682373046875,0.41458821296691895,0.01470581628382206,0.11107323318719864
1782661150008752000,5.747752197265625,0.3668593168258667,0.128244087100029,0.4073469638824463
1782661150018823200,5.7578232421875,0.2899741232395172,0.042280908674001694,0.6757796406745911
1782661150028894200,5.767894287109375,0.1905258297920227,-0.20168595016002655,0.8676433563232422
