time,seconds_elapsed,z,y,x
1782811633823314200,0.079314208984375,-1.0278986941486596,-0.3471870055124163,-0.46313437498584387
1782811633833386200,0.08938623046875,-0.9195306738883257,-0.20723288363814352,-0.383327701690793
1782811633843457300,0.099457275390625,-0.7909662532955407,-0.20496406192332506,-0.263909587366879
1782811633853529000,0.109529052734375,-0.5122901816904545,-0.13063859651833773,-0.027263854500651358
1782811633863601200,0.11960107421875,-0.034732875207066534,-0.005898410388827323,0.23328809300139544
1782811633873673200,0.129673095703125,0.2831938412904739,0.013517068699002266,0.6081256142444909
1782811633883745300,0.139745361328125,0.01654898374080658,-0.061629357700049875,0.7256115914620459
1782811633893817000,0.149817138671875,-0.5951186870247125,0.048880643025040624,0.5164361954540014
1782811633903889200,0.15988916015625,-0.9646686232537031,0.09530775541812181,-0.03556085046380758
1782811633913961200,0.169961181640625,-0.5881693062782287,0.1138254088833928,-0.5232195719838142
1782811633924033300,0.180033203125,0.1188952594935894,0.1271717971906066,-0.659008244741708
1782811633934105000,0.19010498046875,0.5076502469301224,0.15448007535487412,-0.9662554540537297
1782811633944177200,0.20017724609375,0.7466963189363479,0.3393441830575466,-1.2102527187265455
1782811633954249200,0.210249267578125,0.9030734600841999,0.467210099992156,-1.251810617648065
1782811633964320300,0.2203203125,0.9731646489202975,0.5415045857369899,-1.21206269075796
1782811633974392000,0.23039208984375,0.9724614690870046,0.7118377715229988,-1.068504845303297
1782811633984464100,0.240464111328125,0.8650240076750516,0.9008791649103164,-0.773892807289213
1782811633994536200,0.2505361328125,1.0121078352987765,1.1687249226823448,-0.5869011860385537
1782811634004608300,0.260608154296875,1.2042664839237929,1.7181658543765543,-0.4552861457034945
1782811634014680000,0.27068017578125,1.3777017273783683,2.123969299508631,-0.3143693162769079
1782811634024752000,0.280752197265625,1.893277506610751,1.7923726618379354,-0.30854097544960674
1782811634034824200,0.29082421875,2.581622758865356,1.7403937605366109,-0.013040610293671488
1782811634044896000,0.30089599609375,2.6074521966487167,0.36711861742883917,-0.10830080024302005
1782811634054968000,0.310968017578125,2.821422279587388,-1.1660869753941894,-0.3973165891526267
1782811634065040100,0.3210400390625,3.4345115075886246,-1.6970388951957225,-0.4715700852999463
1782811634075112200,0.3311123046875,3.4623341650158164,-1.6030170879349113,-0.33363037198800594
1782811634085183200,0.341183349609375,3.0933740113735197,-1.271027943815291,-0.25291761669870466
1782811634095255000,0.351255126953125,2.1215496711462736,-0.9617948213830589,-0.28052597378809
1782811634105327000,0.3613271484375,1.451653683295846,-0.7129705749452113,-0.4215654432136565
1782811634115399200,0.371399169921875,1.3125970947831869,-0.36671003662794827,-0.4204969371993094
1782811634125471200,0.38147119140625,1.3625760544389485,-0.025123043079674244,-0.2969780182267539
1782811634135543000,0.39154296875,1.1022972247898577,0.47728754963129755,-0.07794532726942562
1782811634145615000,0.401614990234375,0.6044143386363983,1.0109294391691683,0.45760012173429127
1782811634155687200,0.411687255859375,0.4480085559159517,1.3666770600169895,0.7978161191903054
1782811634165759000,0.421759033203125,0.3976145857185125,1.5507278055101632,0.8484838648278266
1782811634175831300,0.431831298828125,0.06527589750885963,1.5835682910993694,0.5681891425123438
1782811634185903400,0.4419033203125,-0.7485393164545298,1.5566875906974076,0.07002667223252355
1782811634195975400,0.451975341796875,-1.8473194730341433,1.4409621934115886,-0.6218484346486628
1782811634206047200,0.462047119140625,-2.657565011817217,0.9790490307837724,-1.2743988815531133
1782811634216118000,0.472117919921875,-3.0815006182283162,0.606141893081367,-1.4516574826881288
1782811634226190000,0.482190185546875,-1.8089461954981088,1.3452581321522592,-1.110882609240338
1782811634236262100,0.49226220703125,-2.343859127885103,0.8144672481313348,-0.5080232449609786
1782811634246334200,0.502334228515625,-3.876791748985648,-0.349714770424366,0.16005436835587022
1782811634256406300,0.51240625,-4.45954604447782,-0.9514362167149781,0.5678245104510337
1782811634266478300,0.522478271484375,-6.087941611558199,-1.3594810110330582,0.6639817223053425
1782811634276550400,0.53255029296875,-5.990935527789593,-0.7733727289378642,0.5786924528807401
1782811634286622200,0.542622314453125,-6.4885892813622945,0.13650719629079103,0.363080301823467
1782811634296694300,0.5526943359375,-6.848418618565797,0.23933891747295855,0.06397964715324342
1782811634306766300,0.562766357421875,-6.528074904054403,0.05878448966294527,-0.534259509979561
1782811634316838100,0.572838134765625,-5.9767690552711485,-0.15265198314487932,-0.8845065606497228
1782811634326910200,0.58291015625,-5.90570931366384,-0.8624261001363396,-1.1955319733262062
1782811634336981200,0.592981201171875,-5.249274864932894,-2.380072304777801,-1.8840821005031465
1782811634347053300,0.60305322265625,-3.808806592518091,-4.250047846256196,-3.2672008844941853
1782811634357125400,0.61312548828125,-1.0782178455442188,-6.254573604738712,-5.264748328396678
1782811634367197200,0.623197265625,2.1175813520371913,-8.132448375034333,-6.270275031739473
1782811634377269200,0.633269287109375,3.427914593541622,-7.763661824393272,-4.56835917815715
1782811634387341300,0.64334130859375,1.623405503708124,-4.401004715920984,-1.5214917741537093
1782811634397413400,0.653413330078125,-2.032845551776886,-0.5933337033040821,-2.4647464379787443
1782811634407485400,0.6634853515625,-6.0563645700335496,3.222829535587132,-1.2943404303416608
1782811634417557500,0.6735576171875,-8.115670843234657,5.1855760074824095,0.5065380479045212
1782811634427629600,0.683629638671875,-8.973376052328943,5.367963203677535,1.3610484064802526
1782811634437701400,0.693701416015625,-8.55493202907145,4.410060129036009,2.1848544147126376
1782811634447773400,0.7037734375,-6.5067585597813125,2.635678466440737,2.7558549979165194
1782811634457844500,0.713844482421875,-3.5692584162086245,0.77317092275545,2.8700106616675853
1782811634467916500,0.72391650390625,-0.5510211866229773,-0.48532158380933105,2.419143355319649
1782811634477988600,0.733988525390625,1.986186676454544,-1.3897098528191447,1.899049952532351
1782811634488060400,0.744060302734375,3.741280285733938,-2.1319377941697835,1.7095314431525765
1782811634498132500,0.754132568359375,5.003813665187359,-2.7626553255811332,2.138574894096702
1782811634508204500,0.76420458984375,5.955322947138548,-3.153480689550936,2.930043690086901
1782811634518276600,0.774276611328125,6.707722446152568,-3.0694536220818756,3.4942379542768
1782811634528348700,0.7843486328125,7.168450198388099,-2.6267943182393907,3.7021401154786346
1782811634538420700,0.794420654296875,7.189480126935243,-1.9857384942956267,3.7357828573614356
1782811634548492500,0.804492431640625,6.918881563323736,-1.4197412723369895,3.8899464141130444
1782811634558564600,0.814564697265625,6.645046502009034,-1.0652470125511289,4.027907608604431
1782811634568636700,0.82463671875,6.299711554104089,-0.8539999248355626,4.1419139270126815
1782811634578707500,0.83470751953125,6.038899640491604,-0.6177306240662932,4.218468758904934
1782811634588779800,0.84477978515625,6.177902452990413,-0.42824769745655356,4.223882016125321
1782811634598851600,0.8548515625,6.5650114267855875,-0.4147912729036063,4.076778022496402
1782811634608923600,0.864923583984375,6.940908686214685,-0.4974168760769069,3.9442803541079163
1782811634618995700,0.87499560546875,7.005752037525177,-0.6271505596447736,3.797883631965518
1782811634629067800,0.88506787109375,6.982771559432148,-0.7856438892289995,3.455163834995031
1782811634639139600,0.8951396484375,6.8038651910901065,-0.9932041051253676,3.030321050611138
1782811634649211600,0.905211669921875,6.393591614806652,-1.0865062198095023,2.648839269047975
1782811634659283700,0.91528369140625,6.039810910117626,-1.2177364986106753,2.4036112935364247
1782811634669355500,0.92535546875,5.929661851659417,-1.3004767411395906,2.379206189467758
1782811634679427600,0.935427490234375,5.830300144675373,-1.0908099083527922,2.5268001585707065
1782811634689499600,0.945499755859375,5.480271485996246,-0.885204625916481,2.535264620055258
1782811634699570700,0.95557080078125,4.428764537245035,-0.5710607889585196,2.4019196871876716
1782811634709642800,0.965642822265625,2.697137728270888,0.005429185441881418,2.2716645370289683
1782811634719714600,0.975714599609375,0.5162064783513546,0.7432410639159381,2.0172548916742206
1782811634729786600,0.98578662109375,-1.9543290644228457,1.501962021036446,1.3487775384500622
1782811634739858700,0.995858642578125,-3.963311510053277,2.2411282367289065,0.5413277678653597
1782811634749930500,1.005930419921875,-4.458197552478313,2.675781928770244,0.0024101298816502094
1782811634760002600,1.01600244140625,-3.691359778267145,2.5675512711539863,-0.40162798607833683
1782811634770074600,1.02607470703125,-3.221952460491657,1.9757950462996958,-0.7646583843454718
1782811634780146700,1.036146728515625,-4.264357234376669,1.370678696873784,-0.8138307768587023
1782811634790218500,1.046218505859375,-6.9417223406851285,0.7599784098356962,-0.7344934015758335
1782811634800290600,1.05629052734375,-10.47656001637578,0.19446663330644368,-0.9940355144482106
1782811634810362600,1.066362548828125,-12.629469871425627,-0.33400662142187354,-2.99452785269618
1782811634820433700,1.07643359375,-12.295593306124209,-0.32250790680795904,-5.880492454820871
1782811634830505700,1.086505615234375,-10.637233393412828,-0.7159656651079654,-6.790960701331496
1782811634840577500,1.09657763671875,-9.692206459218262,-1.7668667569205163,-6.172753984186053
1782811634850649600,1.106649658203125,-11.201622011131047,-2.339688856463134,-5.676421834605932
1782811634860721700,1.1167216796875,-13.33904671227932,-2.180166110765934,-5.699970467975735
1782811634870793500,1.12679345703125,-13.539336644911765,-2.004883778139949,-5.6914288496017456
1782811634880865500,1.136865478515625,-11.3127548199296,-2.3384882485017178,-5.1086307149678465
1782811634890937600,1.1469375,-7.718467176404595,-2.8070404107525944,-4.068237573166192
1782811634901009700,1.157009765625,-4.158127979710698,-3.129940531748533,-2.8812615390002727
1782811634911081500,1.16708154296875,-1.5478110412806272,-3.4142800359427925,-1.3772710808761417
1782811634921153500,1.177153564453125,-0.25753508389890195,-3.449595094951987,-0.18948701826296746
1782811634931225600,1.1872255859375,-0.07687164275646209,-3.0140549754649397,0.22730879939608276
1782811634941296600,1.197296630859375,-0.6146744513660669,-2.438213528101146,0.17462021545544265
1782811634951368400,1.207368408203125,-0.9850707752913236,-2.0149679497808215,0.09893025676421821
1782811634961440500,1.2174404296875,-0.7211088732153177,-1.7240706945061683,0.07393310508653521
1782811634971512600,1.2275126953125,0.10822656596302986,-1.5052210228323935,0.33069450119920074
1782811634981584600,1.237584716796875,1.4364309797227381,-1.6369018218800424,0.792563678554818
1782811634991656400,1.247656494140625,2.9359131666421887,-1.8741022660195827,1.294499128034711
1782811635001728500,1.257728515625,4.49483187739253,-1.8644556090131401,1.8006784256294368
1782811635011800600,1.267800537109375,5.130885801395774,-1.9925410139173267,1.9913646636143325
1782811635021872600,1.27787255859375,4.9277100841939445,-2.024126531009376,1.8913345558494328
1782811635031944400,1.2879443359375,4.85240905175507,-1.6802027650766074,1.8008644497208297
1782811635042016500,1.2980166015625,4.907140174373984,-1.3450779532797634,1.873467475247383
1782811635052088600,1.308088623046875,4.9543438240975135,-0.9011356238894164,2.0804456534720956
1782811635062159600,1.31815966796875,4.92415619110465,-0.17104542570859194,2.2558343690820037
1782811635072231400,1.3282314453125,4.910439800441265,0.6083163145110011,2.3863620525717733
1782811635082303500,1.338303466796875,5.241846760758757,1.2199546130515635,2.5088369241178032
1782811635092375600,1.34837548828125,5.9887546766191715,1.553408422896266,2.5858055975079535
1782811635102447600,1.358447509765625,6.972668098568916,1.588889778383076,2.6183698965042828
1782811635112519400,1.36851953125,7.8637711348742245,1.512234700986743,2.5721692863434553
1782811635122591500,1.378591552734375,8.570997028687596,1.3354285197943447,2.3653791780367492
1782811635132663600,1.38866357421875,8.969738572609424,1.0025868504986166,2.0965185441337524
1782811635142735400,1.3987353515625,8.913326949557662,0.6685872433394193,1.9492809872530399
1782811635152807400,1.408807373046875,8.168724972552061,0.44366351244896646,1.858938160765916
1782811635162879500,1.41887939453125,7.257765143132209,0.48426820229887957,1.7649952639602124
1782811635172950500,1.428950439453125,6.722877929708361,0.6900789441794156,1.6475804522827266
1782811635183022600,1.439022705078125,6.448847053560614,0.9263070361554622,1.507832958896458
1782811635193094400,1.449094482421875,6.524639668908715,1.2325778016507625,1.375935156097263
1782811635203166500,1.45916650390625,6.777952751198411,1.4058242445349693,1.1300577767662703
1782811635213238500,1.469238525390625,6.94554336027801,1.280054130835831,1.0102290358148516
1782811635223310600,1.479310546875,6.107289286106824,1.0978361537277699,1.1251979156449436
1782811635233382400,1.48938232421875,4.152226646712422,1.072721586215496,1.0670859184160828
1782811635243454500,1.499454345703125,2.0461697282522917,1.270158467504382,0.7667714309766888
1782811635253526800,1.50952685546875,-0.3210042242467403,1.7881132508277893,0.2628277834795415
1782811635263598600,1.5195986328125,-3.157601861134171,2.5038380929172037,-0.44018648398816584
1782811635273670700,1.529670654296875,-5.5924406521052115,2.8302053055018184,-1.286415044169873
1782811635283742700,1.53974267578125,-7.139156299364567,2.6284321485742925,-1.8915483447305856
1782811635293813500,1.5498134765625,-7.134120643284916,1.921336603142321,-2.296904630617052
1782811635303885600,1.559885498046875,-5.877013965055347,0.7743380668386817,-2.153680108769983
1782811635313957600,1.56995751953125,-5.277804209324717,-0.5856923947706818,-1.5741956287287175
1782811635324029700,1.58002978515625,-5.217944491645693,-1.8759107767462728,-0.6536902645893394
1782811635334101800,1.590101806640625,-5.213160179978609,-2.9784345037683844,-0.40782954413220285
1782811635344173600,1.600173583984375,-5.775818028381466,-3.3342896766439076,-1.4090550431497395
1782811635354245600,1.61024560546875,-6.673283585456013,-3.3311157227829096,-2.7264795580893755
1782811635364317700,1.620317626953125,-7.860649787983298,-3.8521813316032287,-3.760575937834382
1782811635374389800,1.6303896484375,-8.613374281167983,-4.187464548832178,-3.8994004711568353
1782811635384461600,1.640461669921875,-9.496021039295195,-3.809272748725116,-3.3463328733980653
1782811635394533400,1.650533447265625,-10.562249756360053,-2.9250629790648817,-2.545479432338476
1782811635404604400,1.6606044921875,-11.43310203179717,-1.8485899313613772,-1.8203659996569155
1782811635414676500,1.670676513671875,-11.7563625105381,-0.8845745113193988,-1.4095038098305464
1782811635424748500,1.68074853515625,-11.118080973613262,-0.18056056528985498,-1.3470596286162733
1782811635434820400,1.6908203125,-9.397405182242393,0.19419833775907755,-1.350928286743164
1782811635444892400,1.700892333984375,-6.821141320061683,0.3069812518522143,-1.2423929470919073
1782811635454964500,1.710964599609375,-4.28123179681003,0.2648199802100658,-0.8971367635115981
1782811635465036300,1.721036376953125,-2.277308972656727,-0.04150046964585781,-0.6830224497966468
1782811635475108400,1.7311083984375,-0.49097617550492284,-0.4285574209928512,-0.6780868930906057
1782811635485180400,1.741180419921875,1.2820067262083292,-0.6886541720733046,-0.7465611482493579
1782811635495252700,1.751252685546875,2.772225410220027,-0.8299573704689741,-0.8260651853360235
1782811635505324500,1.761324462890625,3.807226629850268,-0.9200734024628996,-0.8155306395791471
1782811635515396600,1.771396728515625,4.601784185636043,-0.9038727937683463,-0.6559943037480116
1782811635525467400,1.78146728515625,5.227209163597226,-0.7501406141713262,-0.3070823741391301
1782811635535539500,1.79153955078125,5.678033945977687,-0.46063861264735456,0.2130688963152468
1782811635545611300,1.801611328125,5.990682429811358,-0.04325725018531084,0.8411362054787576
1782811635555683300,1.811683349609375,6.4260857711762185,0.2928475125595927,1.5526535128757357
1782811635565755600,1.821755615234375,6.6291270483434195,0.36714345960915085,2.0933137567430733
1782811635575827700,1.83182763671875,6.520539247852564,0.302227919845283,2.3373861324787137
1782811635585899500,1.8418994140625,6.5513283538699145,0.3265283944956958,2.2410814749777317
1782811635595971600,1.8519716796875,6.595576660919189,0.4952256496429443,1.9741458177879452
1782811635606043600,1.862043701171875,6.229337456673384,0.5252373415470123,1.7008000012949107
1782811635616115500,1.872115478515625,5.799805637690425,0.44220191546380516,1.416658650021255
1782811635626187500,1.8821875,5.580017223861813,0.4521953400813043,1.2752027452819048
1782811635636259600,1.892259521484375,5.648681010243297,0.571600156532228,1.2616070583887398
1782811635646330600,1.90233056640625,5.904600475639104,0.7007466147966682,1.3360463594317435
1782811635656402700,1.912402587890625,6.198516201952099,0.8282124264977871,1.4751995401866733
1782811635666474500,1.922474609375,6.433400478103756,0.7982014652460813,1.580247329983115
1782811635676546600,1.932546630859375,6.498578175935148,0.6734964965604245,1.6534012673906981
1782811635686618600,1.94261865234375,6.418488740175962,0.5142407312363386,1.5295532077953218
1782811635696690400,1.9526904296875,6.155691205704212,0.39154169554561374,1.1930611262332647
1782811635706762500,1.962762451171875,5.772359996882081,0.37832273301035163,0.8534774353314191
1782811635716834600,1.97283447265625,5.275061632618308,0.5342734654396772,0.6105747609622776
1782811635726906600,1.98290673828125,4.886376203286647,0.8654121302098036,0.3932209538694471
1782811635736978400,1.992978515625,4.320477181005478,1.2653367464363574,0.2263397351682186
1782811635747050500,2.003050537109375,3.408326680496335,1.4815259667292235,-0.06291501359641552
1782811635757121500,2.01312158203125,2.4735955148667097,1.2308172217190265,-0.7434417741198093
1782811635767193600,2.023193603515625,1.4621528654783964,1.0782704525142908,-1.2152531573623417
1782811635777265700,2.033265625,0.04588087668716907,1.2705924750074744,-1.3061030565887688
1782811635787337500,2.04333740234375,-2.366825577452779,1.3849737642079591,-1.6834731650494037
1782811635797409500,2.053409423828125,-5.030208335638046,1.325152040451765,-2.3778211648501455
1782811635807481600,2.063481689453125,-7.479376096212864,0.9570207388490438,-2.6510750652760264
1782811635817553400,2.073553466796875,-9.164552704179286,0.23598434634804724,-1.89567609218508
1782811635827625500,2.08362548828125,-10.208757805484533,-1.0175237228676677,-0.6390357162930071
1782811635837697500,2.093697509765625,-9.92541315754652,-1.8854510507687925,0.05911226031258702
1782811635847769600,2.10376953125,-8.63178788973689,-1.516423384848237,-0.2301343051455915
1782811635857841400,2.11384130859375,-6.9936372368395325,-0.9975427188515662,-0.4979379773415625
1782811635867912400,2.123912353515625,-6.141618256688117,-1.4053236015364527,-0.05212583549134433
1782811635877984500,2.133984619140625,-6.39262598464489,-2.7165356717020273,0.5642598037067801
1782811635888056600,2.144056640625,-7.715750903183221,-4.049750022578239,0.41807409396655854
1782811635898128400,2.15412841796875,-9.025289779439568,-4.372572694423795,-0.8701070100277661
1782811635908200400,2.164200439453125,-10.17563996425867,-3.6760830064192414,-2.4378910181485116
1782811635918272500,2.1742724609375,-11.350206306445598,-3.0210493643969296,-3.514941135087609
1782811635928344600,2.184344482421875,-11.022572434926033,-2.5678777266293764,-3.906050284434855
1782811635938416400,2.19441650390625,-8.911668076434731,-2.0877673746623095,-3.374118413685262
1782811635948488400,2.204488525390625,-5.948534894433617,-1.575989964799583,-2.2085553160347042
1782811635958560500,2.214560546875,-2.988172346189618,-1.1156780998885631,-0.9552081364691257
1782811635968632600,2.224632568359375,-0.5533534289628267,-0.8346196631915866,0.1298484690539539
1782811635978704400,2.234704345703125,1.4453987145543097,-0.7751587355718016,1.0076742367655038
1782811635988775400,2.244775390625,2.93665726300776,-0.8697589272424578,1.6001783573776482
1782811635998847500,2.254847412109375,3.961387848514318,-0.9458135545276105,1.9276709207303822
1782811636008919600,2.26491943359375,4.389538442271948,-1.163552050089091,1.9350189454056321
1782811636018991400,2.274991455078125,4.3137025723040106,-1.4416082362301648,1.698562597631663
1782811636029063400,2.2850634765625,3.88234587598145,-1.4261407641157506,1.5378953580744563
1782811636039135500,2.295135498046875,3.0568554217934607,-1.459372879371047,1.292135906034708
1782811636049207600,2.30520751953125,2.5639105765640733,-1.5203452344670891,0.8741099620588123
1782811636059279400,2.315279296875,1.8657471101284027,-1.504689546304196,0.5916271916471422
1782811636069351400,2.325351318359375,1.6495616892278193,-1.4332617020368574,0.45749797653406854
1782811636079423500,2.335423583984375,2.639133867591619,-1.2199679839897901,0.47790991931334137
1782811636089494500,2.34549462890625,3.5742180844426152,-0.7660244850669056,0.645901948800683
1782811636099566300,2.35556640625,3.9621611709743734,-0.0528938972543925,1.0734355797037483
1782811636109638400,2.365638427734375,4.416244662889838,0.7857737992189824,1.7274826949067412
1782811636119710500,2.37571044921875,5.690726838812232,1.4220309907093642,2.5979385183721777
1782811636129782500,2.385782470703125,6.996954983085393,1.9494522521667181,3.513736435472965
1782811636139854300,2.395854248046875,7.307455348974466,2.457801733407378,4.033817124909162
1782811636149926400,2.405926513671875,7.391886613330245,2.4160307762570676,3.936465588703751
1782811636159998500,2.41599853515625,7.008011214628815,2.0269459723442793,3.458243973092735
1782811636170070500,2.426070556640625,6.443484649744629,1.517535583873838,2.6057325332492587
1782811636180142300,2.436142333984375,5.642661019301414,0.87190426870808,1.6628031558558345
1782811636190214400,2.44621435546875,5.029080208390951,0.46950858619287605,0.8283291847452521
1782811636200286500,2.456286376953125,4.518628348043561,0.2948335718102753,0.07502280001938343
1782811636210357500,2.466357421875,4.150867048797011,0.07656886041760444,-0.3933721258431673
1782811636220429300,2.47642919921875,3.9399639522135255,-0.12952625136226414,-0.6450635982804
1782811636230501400,2.48650146484375,4.234444911193847,-0.27657968384772535,-0.909781725551188
1782811636240573400,2.496573486328125,5.010594703629613,-0.4055468400225043,-1.048444638571143
1782811636250645500,2.5066455078125,5.5726464028328655,-0.3083624770775437,-0.9324101753361522
1782811636260717300,2.51671728515625,4.862866148361563,0.2893807132318616,-0.8414429333403706
1782811636270789400,2.526789306640625,4.465453222694992,0.41636955507099627,-0.8257635720409452
1782811636280861400,2.536861328125,2.943411997964978,0.06376636972874403,-0.8648911750756204
1782811636290933500,2.54693359375,-0.037305356043577195,-0.23863749120533465,-1.256180503295362
1782811636301005600,2.557005615234375,-2.427074586710334,-0.7092997774779796,-1.8865794702768324
1782811636311077600,2.56707763671875,-5.552852153560519,-1.1103285555541516,-2.7929408659905195
1782811636321148400,2.5771484375,-8.071164177510141,-1.4761659010007977,-3.3995781413733956
1782811636331220500,2.587220458984375,-8.972927139517664,-2.072073984837532,-2.5089623040631412
1782811636341292300,2.597292236328125,-9.636514967134595,-2.972955195574462,-0.7083851468510926
1782811636351364400,2.6073642578125,-9.772570620265602,-3.328910906215012,-0.5079958454973995
1782811636361436700,2.617436767578125,-8.809633935371041,-2.2161545389920474,-2.5381255624443293
1782811636371508500,2.627508544921875,-8.639875334602594,-1.443018541419506,-3.2229139990001916
1782811636381580500,2.63758056640625,-8.683669468143583,-2.249240816035867,-1.9708570053756236
1782811636391652600,2.647652587890625,-8.137460065716505,-3.06655497803092,-0.701419910948351
1782811636401724400,2.657724365234375,-8.521490362718701,-2.4442796962723135,-0.784047048491612
1782811636411796200,2.667796142578125,-9.449327092659473,-1.036402610860765,-1.865996408714354
1782811636421868300,2.677868408203125,-9.257101224017143,0.02893997101932764,-2.57465934959352
1782811636431939300,2.687939208984375,-7.795615882536769,0.5867386889532208,-2.4033644791685043
1782811636442011400,2.698011474609375,-5.283892589327692,0.7834051703914999,-1.7254370144233107
1782811636452083500,2.70808349609375,-2.3065023339152333,0.5904530333012342,-1.1891725212968884
1782811636462155300,2.7181552734375,0.40354514481127257,0.33841040933877226,-0.9702503689087927
1782811636472227300,2.728227294921875,2.5119600245743987,0.11230272936075925,-0.9741314481258392
1782811636482299400,2.73829931640625,3.7540713782459494,-0.21046821229755877,-1.1658756707310676
1782811636492371200,2.74837109375,4.264172525459528,-0.3662351125925779,-1.469332693979889
1782811636502443300,2.758443359375,4.326994015553593,-0.21418986316919325,-1.5880707170851527
1782811636512515300,2.768515380859375,4.323112790206075,0.19721827010214327,-1.2945168098218738
1782811636522587400,2.77858740234375,4.150818533480167,0.7812418548777699,-0.5410059885650873
1782811636532659200,2.7886591796875,4.12544911442399,1.187790857680142,0.31252047353982926
1782811636542730200,2.798730224609375,4.31260191758573,1.441045487780869,1.2903690424926577
1782811636552802300,2.80880224609375,4.238644116449356,1.4573811210319398,2.136292628378421
1782811636562874400,2.818874267578125,4.075087877452373,1.142532204544544,2.4720512080341575
1782811636572946400,2.828946533203125,3.98133991869688,0.6702867407336831,2.3406486414059997
1782811636583018200,2.839018310546875,4.245087885761261,0.36019466338455675,2.0959061113238335
1782811636593090300,2.84909033203125,4.679021739095449,0.2735205885380506,1.931473820144683
1782811636603162400,2.859162353515625,4.9992701765388246,0.30918343807160853,1.9519903923422097
1782811636613234200,2.869234130859375,5.233341967263818,0.395321506345272,2.1409981757208705
1782811636623306200,2.87930615234375,5.3266614714741705,0.5373927665039897,2.3707843980811534
1782811636633378300,2.88937841796875,5.2878194073826075,0.7081207968264818,2.5949668090850113
1782811636643450400,2.899450439453125,5.095618673181534,0.8454325874984264,2.7152082224905487
1782811636653521400,2.909521484375,4.428206318840385,0.8207622566223144,2.720978622585535
1782811636663593200,2.91959326171875,3.8524189397513866,0.7588976288616657,2.636044377143681
1782811636673665300,2.929665283203125,3.5487393597930668,0.5134612712964415,2.4001396719031036
1782811636683737300,2.9397373046875,3.439134491214156,0.05938917755782604,2.0645086641497907
1782811636693809200,2.94980908203125,3.40167774400115,-0.24389395042881368,1.800358546025306
1782811636703881200,2.959881103515625,3.2254695287019013,-0.32082696798369287,1.6876584879100323
1782811636713953300,2.969953369140625,3.1849598236590624,-0.21494798806011675,1.6907009243458508
1782811636724025300,2.980025390625,3.1733962271153926,-0.08954656154289842,1.767993715123832
1782811636734097200,2.99009716796875,2.960728458946943,-0.1421285433039069,1.8512544743955135
1782811636744169200,3.000169189453125,2.022850811985135,-0.19496318465173243,1.5860278130806982
1782811636754241300,3.0102412109375,1.7003338450878858,-0.1700824258953333,1.1340446544453502
1782811636764312300,3.020312255859375,1.660519136571884,-0.36154622412398457,0.9160334794223308
1782811636774384400,3.03038427734375,1.1722685866385698,-0.9378165644243359,0.3037561523258686
1782811636784456200,3.040456298828125,0.024366964015364645,-1.7186670818969607,-0.5021050338931381
1782811636794528300,3.0505283203125,-2.439997196647525,-2.1777742471933363,-1.215873919609189
1782811636804600300,3.060600341796875,-5.468959233865141,-2.0733093718513844,-1.8710723968043923
1782811636814672100,3.070672119140625,-7.519062209913134,-1.9062369414269924,-1.954400229962915
1782811636824744200,3.080744140625,-8.185012675008178,-2.2481515594944357,-1.2166948806032538
1782811636834816300,3.090816162109375,-10.130440055572986,-3.0410616403341293,-0.08059723915085196
1782811636844888300,3.100888427734375,-12.69906538569927,-3.6162691737085577,0.6648838587768375
1782811636854960400,3.11096044921875,-12.524178774392604,-3.600708908744156,0.7737196426793932
1782811636865032400,3.121032470703125,-10.771298164987563,-2.838712729345262,-0.214279879540205
1782811636875103200,3.131103271484375,-9.506582180798054,-1.748497279754281,-1.7856727258078753
1782811636885175300,3.14117529296875,-9.006143180420993,-1.4874109331145882,-2.722884748467803
1782811636895247000,3.1512470703125,-9.439631043553351,-2.4298113181978462,-2.6438708329856393
1782811636905319200,3.161319091796875,-9.832177239966391,-3.389570542100072,-1.952889825399965
1782811636915391200,3.17139111328125,-9.555119709473848,-3.333098128771782,-1.5711583068594335
1782811636925463600,3.181463623046875,-8.547400464522838,-2.636312964951992,-1.6443645589761435
1782811636935535400,3.191535400390625,-6.403410998031497,-1.9138558919981121,-1.5280208836615086
1782811636945607400,3.201607421875,-3.365095441535115,-1.297046474429965,-0.8771884927213192
1782811636955679500,3.211679443359375,-0.6195750828891993,-0.8194011974021792,-0.03273483325764537
1782811636965751300,3.221751220703125,1.4808487981200218,-0.5351064091324806,0.4824003626003861
1782811636975823400,3.2318232421875,2.9581255829721687,-0.5078852247297764,0.47256052110940217
1782811636985894400,3.241894287109375,3.883559927946329,-0.499250959636271,0.25045623155385255
1782811636995966500,3.251966552734375,4.396514711025357,-0.49922904006540775,-0.12055164839848875
1782811637006038500,3.26203857421875,4.139722554448246,-1.0664096265897154,-0.6549538547843694
1782811637016110300,3.2721103515625,3.127321873682737,-1.6895754274472594,-1.2596052170470355
1782811637026182400,3.282182373046875,1.4542524676173925,-1.3632105529502034,-1.7081316593572495
1782811637036254500,3.29225439453125,-0.10799684886038302,-0.13218933309167621,-1.5841991363488137
1782811637046326300,3.302326171875,-0.8047358354508877,1.0732441487848758,-0.7211711247965693
1782811637056398300,3.3123984375,-0.5702484496623277,1.7952772972382605,0.5469534987926483
1782811637066470400,3.322470458984375,0.4165156855434179,1.9702469106532632,1.6928467042028903
1782811637076542500,3.33254248046875,1.6505349181741475,1.9324398886978624,2.3126706472866236
1782811637086614300,3.3426142578125,2.832339394921064,1.8803452520623802,2.53484171846807
1782811637096685300,3.352685302734375,3.8546313551038502,1.775618218652904,2.4410835305795073
1782811637106757400,3.36275732421875,4.6783670745790005,1.5321306570678948,2.0374502690933642
1782811637116829400,3.372829345703125,5.298984359997511,1.307377460438758,1.5463681489959358
1782811637126901500,3.382901611328125,5.715037688726186,1.1625862737968564,1.1666280965335667
1782811637136973300,3.392973388671875,6.060908643203973,1.1856718196995555,0.8758604589879512
1782811637147045400,3.40304541015625,6.107811848676205,1.2045049688547849,0.5310496810875833
1782811637157117400,3.413117431640625,6.0964049039989705,1.2808502496495842,0.22263167443051932
1782811637167189200,3.423189208984375,6.384470735239982,1.534865196598321,0.17432992727197705
1782811637177261300,3.43326123046875,6.851657454356551,1.8022165949821471,0.33468298631347715
1782811637187333400,3.44333349609375,7.472843479573727,1.8856205621168016,0.5508681149531155
1782811637197405400,3.453405517578125,7.993948251360655,1.8408812566801904,0.7512008638139813
1782811637207476500,3.4634765625,8.13110806634128,1.79561821963042,0.9040968117825686
1782811637217548300,3.47354833984375,8.021397983822226,1.7744029976442455,0.9493280654545873
1782811637227620400,3.483620361328125,7.579587113502622,1.631380428110063,1.2211447726842015
1782811637237692400,3.4936923828125,7.491371654433012,1.192284954228997,1.3347481363147495
1782811637247764200,3.50376416015625,7.496880773243308,0.7264338676303624,1.1158823902890085
1782811637257836300,3.513836181640625,6.464941279271245,0.17762012792378662,0.4917862132461741
1782811637267908400,3.523908447265625,3.0958921316742893,-0.1801668897971511,-0.2372234962215647
1782811637277980400,3.53398046875,1.8286591962277887,0.2721519305333495,-0.4670709472497925
1782811637288052200,3.54405224609375,1.8198089502960442,0.7487436068549752,-0.6202294551447034
1782811637298124300,3.554124267578125,0.5674433291137219,0.9617831309452652,-0.5996903423218056
1782811637308196400,3.5641962890625,-2.2118998041570186,1.2064850367560982,-0.7035485935401171
1782811637318267400,3.574267333984375,-5.500474900591374,1.6487898280724882,-1.1436552902903407
1782811637328339500,3.58433935546875,-7.904885820072889,1.969778270228207,-1.5259297566011547
1782811637338411300,3.594411376953125,-8.580513045051694,1.5132646285563707,-1.5870888664409517
1782811637348483300,3.6044833984375,-7.699244589540362,0.013845277740061283,-1.2949591467618942
1782811637358555400,3.614555419921875,-6.357759253925085,-1.8844453808575867,-0.8136062473878264
1782811637368627200,3.624627197265625,-5.7223594099164,-3.54558177254498,-0.5979031666440889
1782811637378699300,3.63469921875,-5.366612958112359,-4.349313399389386,-1.2791244487702846
1782811637388771300,3.644771240234375,-5.485283761200309,-3.9928088226944207,-2.498788992834091
1782811637398843400,3.654843505859375,-6.453409831431507,-3.3067291772842404,-2.9998773970305916
1782811637408915200,3.664915283203125,-7.634910356795787,-3.1809663701087234,-2.575588154876232
1782811637418986000,3.674986083984375,-8.921966767609119,-3.303210647769272,-1.9336112705647945
1782811637429058300,3.685058349609375,-9.428124145632982,-2.782389076837897,-1.7143118092969059
1782811637439130400,3.69513037109375,-8.942654166328907,-1.6833084760069845,-1.5973074781164527
1782811637449202200,3.7052021484375,-8.229213051262498,-0.7805778380110859,-1.2456681693702936
1782811637459274200,3.715274169921875,-7.554339859521389,-0.43243455468714237,-0.9329505658231675
1782811637469346300,3.72534619140625,-6.234045780494808,-0.48793636941760776,-0.8809503294728696
1782811637479418400,3.73541845703125,-4.27282228038311,-0.6910185631170869,-1.0468347191564737
1782811637489490200,3.745490234375,-2.3894950899004934,-0.8393418694078921,-1.112290357146412
1782811637499562200,3.755562255859375,-1.2350438995033501,-1.1349480330258608,-1.328839204531908
1782811637509634300,3.76563427734375,-0.39601884095966816,-1.4663164148986338,-1.4672870134964584
1782811637519706400,3.775706298828125,0.16529577614068983,-1.415093592661619,-1.3289879653528331
1782811637529777400,3.78577734375,0.3776157537847757,-0.8307526124998926,-0.8065094209946692
1782811637539849200,3.79584912109375,0.4047925145238638,0.0343202027529478,-0.055036535306274885
1782811637549921300,3.80592138671875,0.5538064334273338,0.8885463375598192,0.8574410052001475
1782811637559993300,3.815993408203125,0.9584282675594091,1.5533645837545393,1.7863259290196
1782811637570065200,3.826065185546875,1.5370242743283509,1.8983742452278731,2.5253575585469603
1782811637580137200,3.83613720703125,2.237375606197119,1.7358873890280722,2.92416135405004
1782811637590209300,3.846209228515625,2.7158827607512475,1.2743354609280824,2.9587045519039035
1782811637600281300,3.85628125,2.977319528263807,0.7831690235480666,2.8345728530615566
1782811637610353200,3.866353271484375,3.3384728075474497,0.35653643313795325,2.7446587733805177
1782811637620425200,3.87642529296875,3.73247329442203,-0.13657675439566372,2.6228879584506153
1782811637630497300,3.886497314453125,4.136366814279556,-0.6103980892211198,2.444955111315846
1782811637640568300,3.896568359375,4.353046740698814,-0.8187567620187998,2.398151859086752
1782811637650640100,3.90664013671875,4.0422301484674215,-0.42461306728124615,2.413646073077619
1782811637660712200,3.916712158203125,3.4945056653022766,-0.13354016317874193,2.8479996131286023
1782811637670784300,3.9267841796875,3.7486703959852457,0.09826689748466014,3.3269717548459767
1782811637680856300,3.936856201171875,4.438122732698917,0.5321162874057889,3.811313022381067
1782811637690928000,3.94692822265625,5.027363467600941,0.7712687423959373,4.303984311366081
1782811637701000200,3.957000244140625,5.398077771434187,0.8802800289958715,4.525386005610227
1782811637711072300,3.967072265625,5.788490462949872,1.064123561479151,4.084918658854067
1782811637721144300,3.977144287109375,6.566297959464788,1.2853817555993794,3.2002354264631867
1782811637731216100,3.987216064453125,6.9399407179653645,1.264900985367596,2.6327140636771915
1782811637741287200,3.997287109375,6.334983358493447,0.8715472719639539,2.3620140855178238
1782811637751359200,4.007359130859375,5.382274053102732,0.5727125016883016,2.209103451436758
1782811637761431300,4.017431396484375,4.800063362967967,0.6316039588570594,1.9810545742630958
1782811637771503000,4.027503173828125,5.015251589524746,0.9656798461228608,1.7325243423357606
1782811637781575200,4.0375751953125,5.39050178322196,1.316352940185368,1.5940344477951525
1782811637791647200,4.047647216796875,5.464984485015273,1.559568114569783,1.5143414640076458
1782811637801719300,4.05771923828125,4.225518677416444,1.7555612267911433,1.4223659217521547
1782811637811791000,4.067791015625,0.678752079001069,1.9409388369739053,1.1859580892950297
1782811637821863200,4.07786328125,-1.599757501617074,1.2470084780633448,0.22351970931142567
1782811637831935200,4.087935302734375,-3.1047540680438277,0.7107850475996732,-0.1889034462213516
1782811637842007000,4.098007080078125,-4.206123656594753,0.4498229118615389,-0.5766828666239977
1782811637852078000,4.108078125,-5.701292656490207,0.23205255985707043,-1.2171755037270486
1782811637862150100,4.118150146484375,-6.658001260650158,-0.1961477182611823,-1.702356144695729
1782811637872222200,4.12822216796875,-7.282903091520071,-1.4329337852567434,-1.8464517502889035
1782811637882294300,4.138294189453125,-7.552003525528312,-3.6482132949799295,-1.4137781261488795
1782811637892366000,4.148365966796875,-8.298173190242052,-6.1663388564467425,-0.5847331943497062
1782811637902438100,4.158438232421875,-7.838742492079734,-7.06042821508646,-0.8962536240015179
1782811637912510200,4.16851025390625,-5.242988332009316,-6.2602399599373335,-1.6059849978297949
1782811637922582300,4.178582275390625,-2.995842442426085,-5.51019666866064,-1.4799217464029788
1782811637932654000,4.188654052734375,-3.137068776193261,-4.781435819387435,-0.6514754380840808
1782811637942726100,4.19872607421875,-5.097338921102881,-3.384913071683049,0.10674728719070553
1782811637952798200,4.208798095703125,-6.914035292336345,-1.41418729147166,0.39968605823032555
1782811637962869200,4.218869140625,-7.941592041179537,0.07248948214948177,0.24686492906361818
1782811637972941000,4.228941162109375,-8.198215855452418,0.32434476684629915,-0.0712725075751543
1782811637983013000,4.23901318359375,-7.486008666095137,-0.31774697601646185,-0.5820484853103757
1782811637993085200,4.249085205078125,-5.720090295940637,-1.1992729134202003,-1.2504334840759634
1782811638003157200,4.2591572265625,-3.3565795421242712,-1.9250582540139556,-1.9063532612830398
1782811638013229000,4.26922900390625,-0.9398293655514717,-2.4909891327381133,-2.2191797320321203
1782811638023301000,4.279301025390625,1.192178571245074,-2.9961589610293506,-2.153575333221257
1782811638033373200,4.289373291015625,2.7346593574136495,-3.3278818554282186,-1.7149933618202804
1782811638043445000,4.299445068359375,3.7494331970512866,-3.1949253373563287,-1.0208701106861233
1782811638053517000,4.30951708984375,4.071228279414773,-2.4359689640447497,-0.2731045550830662
1782811638063588000,4.319588134765625,3.770602241808176,-1.2573010317578912,0.3999382063604891
1782811638073660200,4.32966015625,3.210910257473588,-0.14975918431282043,0.9654719024606049
1782811638083732200,4.339732177734375,2.713674437052011,0.5870528694689273,1.4292531970478592
1782811638093804000,4.349803955078125,2.555313428610563,0.9780322549566626,1.7006401345580815
1782811638103876000,4.3598759765625,2.8916233585387467,1.120242046803236,1.8944583869583904
1782811638113948200,4.3699482421875,3.4554186865389345,0.9609916883066296,2.086721811132133
1782811638124020200,4.380020263671875,3.787787769886851,0.30470921526700256,2.188277667159587
1782811638134092000,4.390092041015625,3.7917034820258615,-0.48497021308839317,2.0820658020198346
1782811638144164000,4.4001640625,3.8303333646714686,-0.7211454058334231,1.876153061069548
1782811638154236400,4.410236328125,3.989887966811657,-0.4218225597798824,1.7116154098197818
1782811638164308200,4.42030810546875,4.108311517140269,0.09474544536024332,1.6268172118477522
1782811638174379000,4.43037890625,4.219938246935606,0.6438330335721373,1.6734831014327705
1782811638184451000,4.440451171875,4.07184904166162,1.021515715113282,1.7556642487742005
1782811638194523100,4.450523193359375,3.779225693246722,1.3438102714315057,1.8243845876485107
1782811638204595200,4.46059521484375,3.742000416702032,1.7081024332627652,1.7628503608860076
1782811638214667000,4.4706669921875,4.000995636281371,2.018457253201306,1.6647485908351838
1782811638224739300,4.4807392578125,4.408672766330838,2.1456366491764784,1.4997475598573684
1782811638234811400,4.490811279296875,4.872598437824845,2.152753787705302,1.337304250538349
1782811638244883200,4.50088330078125,5.281071686688065,2.2036080688908695,1.2327839917473495
1782811638254955300,4.510955322265625,5.5629328180700535,2.354261863955855,1.162136630333215
1782811638265027300,4.52102734375,5.644503432297706,2.53551274959743,1.0596796607475727
1782811638275098000,4.53109814453125,5.351239447891712,2.7469030451759693,0.8714427156109362
1782811638285170400,4.54117041015625,4.754664132317901,2.83812849971652,0.7158639582991599
1782811638295242200,4.5512421875,4.083936954340339,2.772540175257623,0.5466313541661948
1782811638305314300,4.561314208984375,3.243490338560939,2.508052203480899,0.3405295203845948
1782811638315386400,4.571386474609375,2.1695710669934747,2.0766031526997684,-0.057342620291560883
1782811638325458200,4.581458251953125,0.8880325428187846,1.5196148743659257,-0.7008342930801212
1782811638335530200,4.5915302734375,-0.9096423170804977,1.0213324675008655,-1.4309066633433103
1782811638345602300,4.601602294921875,-2.7287825743347405,0.47449265821576114,-2.0687305196285246
1782811638355674400,4.61167431640625,-3.9900539710283276,-0.3242646873474121,-2.2633425527550277
1782811638365746200,4.62174609375,-4.555584744518995,-1.5989081913113594,-1.807274462893605
1782811638375818200,4.631818359375,-4.442954390639066,-2.960176670283079,-0.7751279751073569
1782811638385889300,4.64188916015625,-5.548369455188513,-3.8294080665200947,0.46361967428475614
1782811638395961600,4.651961669921875,-7.367427294856309,-4.240868222239613,1.3087573704898356
1782811638406033400,4.662033447265625,-8.394939035513996,-4.256829176959395,1.0323757664974778
1782811638416105500,4.67210546875,-8.181758641648292,-3.729426766332984,-0.1880912530556321
1782811638426177500,4.682177490234375,-7.623479446721077,-3.4540158340036866,-0.8882560493763536
1782811638436249600,4.69224951171875,-7.745013238024711,-3.8990667091578244,-0.5753446768227964
1782811638446321400,4.7023212890625,-7.472452434429526,-4.2938270744889975,0.11906349219996482
1782811638456393500,4.7123935546875,-5.77014232083261,-4.218711335489154,0.653124155139178
1782811638466465500,4.722465576171875,-4.442963742989302,-4.266039488375187,0.6005459727704525
1782811638476537300,4.732537353515625,-4.493468772345781,-4.201803455308079,-0.17739983623661099
1782811638486608400,4.7426083984375,-5.033078922638297,-3.589047697044909,-1.2897662542939186
1782811638496680400,4.752680419921875,-5.131170463556051,-2.853707469381392,-2.155735287734121
1782811638506752500,4.76275244140625,-5.016608849352598,-2.6090754139363765,-2.8050293631911276
1782811638516824600,4.772824462890625,-4.344425042825937,-2.7777608325153587,-3.163673290002346
1782811638526896400,4.782896484375,-3.262858471375704,-2.897507155880332,-3.3020816437393425
1782811638536968400,4.792968505859375,-2.4688199710279704,-2.261211239814758,-3.026780017003417
1782811638547040500,4.80304052734375,-2.4279034387499094,-0.9607470658957957,-2.431864743596315
1782811638557112600,4.813112548828125,-2.7846973537802695,0.4304027565985918,-1.5651777711451054
1782811638567184600,4.8231845703125,-2.8522996484100815,1.4505033442169426,-0.43549993360713124
1782811638577256700,4.833256591796875,-2.577072255954146,1.8413962204650043,0.4110216181717813
1782811638587327500,4.843327392578125,-2.1149872438907624,1.6077970156878232,0.7852750559166073
1782811638597399600,4.853399658203125,-1.3262445118635893,1.1851391741275787,0.9017245296932757
1782811638607471400,4.863471435546875,-0.4888023385971784,0.7451742239356041,0.8328655130006373
1782811638617543400,4.87354345703125,0.7056441775798797,0.3968018080309033,0.7391806826092302
1782811638627615700,4.88361572265625,2.3982196636259556,0.14042407747358082,0.662312108592689
1782811638637687800,4.893687744140625,4.176050005370378,-0.023349019144475458,0.7694953029826282
1782811638647759600,4.903759521484375,5.496817547127604,-0.01272913319170475,1.0422028215721248
1782811638657831700,4.913831787109375,6.248107623594999,0.3004273001641035,1.4090031668320298
1782811638667903700,4.92390380859375,6.590282646164297,0.8065385009586811,1.701108190461248
1782811638677975600,4.9339755859375,6.672243721014261,1.306966395419836,1.950637808689475
1782811638688047600,4.944047607421875,6.357960329455137,1.6245438600882887,2.2053793163470923
1782811638698118700,4.95411865234375,5.946240646016597,1.7750497711151838,2.2378999223321676
1782811638708190700,4.964190673828125,5.747059551408887,1.8251298530578612,2.009240219783783
1782811638718262800,4.9742626953125,5.738198784083128,1.7585484259083866,1.6462768223382531
1782811638728334600,4.98433447265625,5.84149724599421,1.6687696630448101,1.285472064231336
1782811638738406700,4.99440673828125,5.983564122238755,1.6725529809758066,1.0598559671625494
1782811638748478700,5.004478759765625,5.890675995182991,1.6336030725955961,0.8440576458834111
1782811638758550500,5.014550537109375,5.865557336017489,1.7554209415376185,0.6847086493179202
1782811638768622600,5.02462255859375,5.76473257074356,2.1912147435247897,0.6796415751866995
1782811638778694700,5.034694580078125,5.620490104025602,2.611237852667272,0.7325824533879757
1782811638788766700,5.0447666015625,5.393959814721345,2.9496719351425766,0.7761446048039943
1782811638798837800,5.054837646484375,4.856137132367492,3.2045980055868624,0.7239532297957688
1782811638808909600,5.06490966796875,4.226850218281149,3.322269568504393,0.6032128538921475
1782811638818981600,5.074981689453125,3.816450969791412,3.2626573958456513,0.4776251110225916
1782811638829053700,5.0850537109375,3.981733301928639,2.923926376250386,0.4387625155996531
1782811638839125800,5.095125732421875,4.355122377929091,2.219185869511962,0.5011634056614711
1782811638849197600,5.105197509765625,4.2945974743396045,1.3985732504934072,0.5105858985232189
1782811638859269600,5.11526953125,3.240845377010107,0.6647428428709506,0.42727958307676017
1782811638869341700,5.125341796875,1.1046943490594625,-0.17076514746248722,0.0764275157181546
1782811638879413500,5.13541357421875,-1.801687018150091,-1.0306126292824744,-0.7098347611375153
1782811638889485600,5.145485595703125,-3.873085880205035,-1.2429811222434044,-1.2848425341561436
1782811638899557600,5.1555576171875,-4.735953002107143,-0.8123737829834222,-1.1619603969834744
1782811638909628700,5.165628662109375,-4.878521982654929,-0.5231967756301165,-0.2702216565905139
1782811638919700700,5.17570068359375,-5.184340328207612,-0.8997183044373989,0.7378115131478756
1782811638929772500,5.1857724609375,-5.305934909787774,-1.7972347149163483,1.0570726200543343
1782811638939844600,5.1958447265625,-4.967130824956298,-2.97830269408226,0.33823147257529196
1782811638949916700,5.205916748046875,-4.558436626818776,-3.951248147293925,-1.0982762256454677
1782811638959988500,5.215988525390625,-4.771122515165805,-4.696716970261932,-1.9345769007265567
1782811638970060500,5.226060546875,-5.182749844145775,-5.375826776659489,-1.610008115866035
1782811638980132600,5.236132568359375,-4.801221885353327,-5.710026582565903,-0.5546580818206072
1782811638990204700,5.24620458984375,-4.629762325885892,-5.619556038045883,0.23282106001153588
1782811639000276500,5.2562763671875,-4.704282437080145,-5.315802808329463,0.4851148822560906
1782811639010347500,5.266347412109375,-5.334190697935223,-5.1828293391227716,0.14914163693636656
1782811639020419600,5.276419677734375,-6.756564510732889,-4.99601555865705,-0.7549352280367165
1782811639030491600,5.28649169921875,-7.818606882023811,-4.715214165461063,-1.8386174034014342
1782811639040563500,5.2965634765625,-7.674415853232145,-4.4829485473752015,-2.655631705667078
1782811639050635500,5.306635498046875,-6.973636651340127,-4.060049298274516,-3.077289722535014
1782811639060707600,5.31670751953125,-5.837967902824282,-3.0087235513091084,-2.918551697474718
1782811639070779600,5.326779541015625,-4.688301024094224,-1.35177525896132,-2.163516589260101
1782811639080850700,5.3368505859375,-3.8712873063504696,0.24359657491743564,-1.0276596246957779
1782811639090922500,5.346922607421875,-3.2281589139163493,1.5285829014584422,0.1358791275203228
1782811639100994600,5.35699462890625,-2.8442916985213755,2.2225305037647485,0.95529347666502
1782811639111065600,5.367065673828125,-2.585698045480251,2.266743154978752,1.2988298507153988
1782811639121137700,5.3771376953125,-1.9335873051673174,1.8177470493301748,1.1651328895397484
1782811639131209700,5.387209716796875,-0.616839520445466,0.936880160357058,0.6193010882534087
1782811639141281500,5.397281494140625,1.1347510491490362,-0.052258595025539395,0.05441007397100329
1782811639151353600,5.407353515625,2.850329809641838,-0.8883587060332298,-0.23944500819593667
1782811639161425700,5.41742578125,4.3253877494007344,-1.5037234777510164,-0.23820815987735985
1782811639171497500,5.42749755859375,5.122701325896382,-1.6264631377130745,0.018578297611325977
1782811639181569500,5.437569580078125,5.435444502276182,-1.4257622861921786,0.6703790951922536
1782811639191641600,5.4476416015625,5.506899965202808,-0.7810714667469263,1.5725782566599547
1782811639201713700,5.457713623046875,4.94545616876483,0.3301540376469493,2.574415019443631
1782811639211784700,5.46778466796875,4.36879376040697,1.2265116334795951,2.971782352402806
1782811639221856500,5.4778564453125,4.155831393206119,1.904933749873936,2.993970803335309
1782811639231928600,5.487928466796875,4.2572009328812355,2.3956851767122744,3.0529052228629587
1782811639242000600,5.498000732421875,4.619762325397134,2.4760244955793023,2.9129969859570264
1782811639252072400,5.508072509765625,4.850099021247029,2.3267528025224804,2.5559827061742544
1782811639262144500,5.51814453125,4.848067223158479,2.2285390965297815,2.1316661376215515
1782811639272216600,5.528216552734375,4.821168110316991,2.267088022893667,1.826602994350344
1782811639282288600,5.53828857421875,4.658016360467672,2.683004865761101,1.5945387440554797
1782811639292360400,5.5483603515625,4.444445505979657,3.2316666297763583,1.5537461304180322
1782811639302432500,5.5584326171875,4.2418776915431025,3.571191722358763,1.4593224643580616
1782811639312504600,5.568504638671875,4.266356299239397,3.809896433581412,1.301640670352429
1782811639322575600,5.57857568359375,4.422707721424103,3.848201614317298,1.0785745500274002
1782811639332647700,5.588647705078125,3.9421997484415767,3.6763100931733845,0.7220885319024324
1782811639342719500,5.598719482421875,2.392736848300695,3.9020945325464007,0.18424758323952556
1782811639352791600,5.60879150390625,3.2110435284644363,3.897183964151144,0.201753063987568
1782811639362863600,5.618863525390625,4.367023828124999,3.7400463600248095,0.3601983897116035
1782811639372935400,5.628935302734375,5.1306660211652515,4.204049188408256,-0.016117971912398932
1782811639383007500,5.639007568359375,5.027827577981353,4.7775236143797635,-0.6433472958818077
1782811639393079600,5.64907958984375,4.43367919729352,4.685048159778118,-0.9853495922327041
1782811639403152000,5.65915185546875,3.7322079214841124,4.194686901301146,-0.3368470324795693
1782811639413223000,5.669222900390625,2.9739322239130734,4.079516215288638,0.8859406851060688
1782811639423294700,5.679294677734375,2.6589345466047525,4.122432396951318,2.3948420038864016
1782811639433366800,5.68936669921875,2.415360183519125,3.5875317395240067,3.6264734645977614
