time,seconds_elapsed,z,y,x
1782811316837046000,0.0730458984375,0.15903496218025684,-0.20832002128772437,0.06619535044133663
1782811316847117800,0.083117919921875,0.18810791192948817,-0.14330803541205822,0.15306787046939133
1782811316857188900,0.09318896484375,0.30791794818043705,-0.08648790462464094,0.2177444869108498
1782811316867261000,0.103260986328125,0.32420097446143625,-0.12544321983233092,0.22734803542792795
1782811316877331700,0.113331787109375,0.16583470532298086,-0.1663080949883908,0.20973156858608125
1782811316887403800,0.12340380859375,-0.11738193232119083,-0.1722651036966592,0.13649974363669753
1782811316897474800,0.133474853515625,-0.38707039535045623,-0.17637180836312472,0.0663294982150197
1782811316907547000,0.143546875,-0.5148503875672817,-0.21292123147286474,0.06444251542463898
1782811316917618000,0.153617919921875,-0.532269139879942,-0.22910255094505846,0.08394041209891438
1782811316927689700,0.163689697265625,-0.506054502171278,-0.2705674378208816,0.0757969992622733
1782811316937760800,0.1737607421875,-0.49768122610151766,-0.27349289681352673,0.04231733898669481
1782811316947831800,0.183831787109375,-0.4361573746025562,-0.2869864385064691,0.03671557345688343
1782811316957904000,0.19390380859375,-0.33115503138303753,-0.32460261406488716,0.069964785977453
1782811316967975000,0.203974853515625,-0.23953180969655513,-0.3257238001145422,0.06142857443094253
1782811316978047000,0.214046875,-0.2011696380764246,-0.36175804024375974,0.03158113317787647
1782811316988118000,0.224117919921875,-0.19320611185133457,-0.3836430512502789,-0.024709932234138247
1782811316998189800,0.23418994140625,-0.18270576062500476,-0.37511071216128766,-0.05858604448139667
1782811317008260600,0.244260498046875,-0.10394903477430344,-0.3561053482443094,-0.06340703489705919
1782811317018332700,0.254332763671875,0.009508417579531669,-0.3513639989361167,-0.0785844380237162
1782811317028403700,0.26440380859375,0.05341068767011165,-0.38932738049700855,-0.1427576349876821
1782811317038474800,0.274474853515625,-0.03304886764287948,-0.3946745136786252,-0.24864377530440687
1782811317048546800,0.284546875,-0.08938859450221061,-0.3727581576857716,-0.3029676322966814
1782811317058617900,0.294617919921875,-0.13885785107016563,-0.3654445467367768,-0.32092078374698757
1782811317068690000,0.30468994140625,-0.1544312677770853,-0.32198191017247735,-0.2693484174199402
1782811317078761000,0.314760986328125,-0.10185235475599765,-0.29509529148638247,-0.24582462623044846
1782811317088832800,0.324832763671875,-0.03309972104728222,-0.25533487044088543,-0.2800431221745908
1782811317098903300,0.3349033203125,0.028490765947103498,-0.2303962440174073,-0.3006764526195824
1782811317108975000,0.34497509765625,0.1204115092754364,-0.17959172025769948,-0.2635160580046475
1782811317119046100,0.355046142578125,0.23088614642620087,-0.13652765455693006,-0.19352321497648953
1782811317129117200,0.3651171875,0.29530630388855933,-0.0886784004062414,-0.12614859162271022
1782811317139189200,0.375189208984375,0.2576139943540096,-0.04249028440080583,-0.08721008141934872
1782811317149260300,0.38526025390625,0.19506839859187602,-0.023164967814460397,-0.07262041505277156
1782811317159332400,0.395332275390625,0.1275169573664665,-0.008496025666594504,-0.10464987652003764
1782811317169403400,0.4054033203125,0.08146949194073677,-0.009372808501124381,-0.10790098727047442
1782811317179475200,0.41547509765625,0.11831307569146156,-0.03329736251123249,-0.1206862345635891
1782811317189546000,0.4255458984375,0.188415954965353,-0.07335062902346252,-0.14477058224529027
1782811317199618000,0.4356181640625,0.22100772649049757,-0.07793306144289672,-0.14910568884015082
1782811317209689000,0.445689208984375,0.24415771593153476,-0.0994979736495763,-0.12970190019011496
1782811317219760000,0.455760009765625,0.2622954301685095,-0.08253755956366658,-0.1364165953978896
1782811317229832200,0.465832275390625,0.3165986827641725,-0.1031838956207037,-0.117007692181319
1782811317239903200,0.4759033203125,0.32970132544338704,-0.136035852451995,-0.1174284018114209
1782811317249975300,0.485975341796875,0.32452246150076386,-0.12310140594653785,-0.1085590127877891
1782811317260046300,0.49604638671875,0.2753518956184387,-0.11364859101176261,-0.09084916857406497
1782811317270118100,0.5061181640625,0.14920038138628006,-0.06559212385118007,-0.0825317143447697
1782811317280189200,0.516189208984375,-0.007574234646558761,-0.021457944700866937,-0.07749635052606463
1782811317290261200,0.52626123046875,-0.09015081104636191,-0.039010187200084326,-0.06838657687529921
1782811317300332300,0.536332275390625,-0.1314180564582348,-0.0830345493003726,-0.09442059732005
1782811317310403000,0.546403076171875,-0.152182612067461,-0.10667319904118776,-0.11438275050520896
1782811317320475100,0.55647509765625,-0.18122516667842864,-0.09098974608853459,-0.10176233838498591
1782811317330546200,0.566546142578125,-0.1301315237790346,-0.07113646010532974,-0.038720337408035994
1782811317340618200,0.5766181640625,-0.07193126374483108,-0.08453509005643427,-0.004469254368543624
1782811317350689300,0.586689208984375,0.016212299132347105,-0.054645928553491825,0.01211845394745469
1782811317360761000,0.596760986328125,0.09818331085443496,-0.08508673258982598,0.041785716328024865
1782811317370832100,0.60683203125,0.16701310145258902,-0.12279993878193199,0.05045592951774597
1782811317380904200,0.616904296875,0.24554537089765072,-0.13780673458203674,0.06085311263054609
1782811317390975200,0.626975341796875,0.26261341007649897,-0.12718443747647107,0.03142506583333015
1782811317401046300,0.63704638671875,0.10444470933675766,-0.09015358752533793,-0.013285159639269113
1782811317411118300,0.647118408203125,-0.01313479138314724,-0.08464271514937281,-0.03372048329412937
1782811317421189400,0.657189453125,0.11970248422324657,-0.10179156447947024,-0.03375584686845541
1782811317431261200,0.66726123046875,0.20355740999579428,-0.21343312651775775,-0.057042614431679246
1782811317441332200,0.677332275390625,0.16410685861706734,-0.24325462961196898,-0.1265244391977787
1782811317451404000,0.687404052734375,0.1114139638274908,-0.22319807614162562,-0.18519421643987297
1782811317461475000,0.69747509765625,0.07728840686380863,-0.23070589448846876,-0.17516425920426845
1782811317471547100,0.707547119140625,0.07821195144951343,-0.2417392566129565,-0.1430452197574079
1782811317481618200,0.7176181640625,0.0915285291403532,-0.24151786894723773,-0.13458192731663585
1782811317491689200,0.727689208984375,0.1106119997948408,-0.22850495037809013,-0.1439862999998033
1782811317501761300,0.73776123046875,0.18633914869129656,-0.21516652618162332,-0.11234613011106848
1782811317511832300,0.747832275390625,0.2261217085033655,-0.21202128695845604,-0.07363704474940895
1782811317521904000,0.757904052734375,0.1058890629261732,-0.20734357747100293,-0.07025894661843776
1782811317531975200,0.76797509765625,-0.05280804560184479,-0.1881041856024414,-0.11473843207508325
1782811317542047200,0.778047119140625,-0.21926643578112123,-0.15908150473572313,-0.09589519991725683
1782811317552118300,0.7881181640625,-0.2918441807359457,-0.1468838480722159,-0.06013035131394863
1782811317562190300,0.7981904296875,-0.30583705025315283,-0.13920871033445,-0.03880640825629234
1782811317572261000,0.80826123046875,-0.24420447768270967,-0.13181684651747344,-0.02997267506793141
1782811317582332200,0.818332275390625,-0.10808160453438759,-0.13476502879858016,0.01747077476084232
1782811317592404200,0.828404296875,0.03818447696566581,-0.154670994817093,0.052079292935878034
1782811317602475300,0.838475341796875,0.12599778497517108,-0.17672843978106975,0.06144567169621586
1782811317612547000,0.848547119140625,0.18095920921862124,-0.17146840036101638,0.08156330770403146
1782811317622618000,0.8586181640625,0.15033318480849264,-0.1637224624093622,0.10174421820640564
1782811317632690200,0.868690185546875,0.08580664436221122,-0.18091317811980842,0.1333725515268743
1782811317642761200,0.87876123046875,0.07613982135057448,-0.15180194218680262,0.12633607701882718
1782811317652833300,0.888833251953125,0.08439268591105938,-0.15847425955757496,0.1428831610634923
1782811317662904300,0.898904296875,0.029723522612452504,-0.14928053395040333,0.1949259213812649
1782811317672975400,0.908975341796875,-0.022893968853354454,-0.09871493351310491,0.2537593647524714
1782811317683047200,0.919047119140625,-0.07883271369636058,-0.05343991376459598,0.2665637551374733
1782811317693118200,0.9291181640625,-0.12275661109685897,-0.010710632976144552,0.31264117731004953
1782811317703190300,0.939190185546875,-0.1426665957033634,-0.007848959934711457,0.31686084083169697
1782811317713261000,0.949260986328125,-0.15851064604520798,-0.03778685595020652,0.3133442110128701
1782811317723333000,0.9593330078125,-0.17970950141847133,-0.021584859016165137,0.32254619299173354
1782811317733404200,0.969404052734375,-0.10436053818464279,-0.0230563198082149,0.31715441695079205
1782811317743476200,0.979476318359375,-0.04101531647741794,-0.055743879858031864,0.3096127693995833
1782811317753547300,0.98954736328125,-0.040192309656739235,-0.06059723817333579,0.28700813888162374
1782811317763618300,0.999618408203125,-0.025686229920387268,-0.06405161641091107,0.29783392267003655
1782811317773690000,1.009690185546875,0.03884966287612915,-0.10186930589079857,0.26365809682384134
1782811317783761200,1.01976123046875,0.045375849774479865,-0.13610511829592287,0.1991296566814184
1782811317793833200,1.029833251953125,-0.0050362406015396115,-0.15739545134492217,0.1687700281225145
1782811317803904300,1.039904296875,0.003050619742274284,-0.13543299118801952,0.16786986441239712
1782811317813976300,1.049976318359375,0.020363573592901228,-0.12443849976919591,0.1783537028953433
1782811317824047400,1.06004736328125,0.05213467638492584,-0.09157485250011085,0.2091822641402483
1782811317834119400,1.070119384765625,0.06585165157020091,-0.08230586969964206,0.22213965312987566
1782811317844190200,1.080190185546875,0.060228550991415976,-0.06494966122917831,0.22447554873153566
1782811317854261200,1.09026123046875,0.03672492580711841,-0.10463599412515759,0.1917015525072813
1782811317864333000,1.1003330078125,-0.04880991587638855,-0.12676701578199862,0.13453385039120913
1782811317874404000,1.110404052734375,-0.13390753518640994,-0.13338460729084908,0.10882277829051017
1782811317884476200,1.12047607421875,-0.13311901515722274,-0.15606654082871974,0.12677373778373002
1782811317894547200,1.130547119140625,-0.06393383525013924,-0.19376250362508,0.11615224439576267
1782811317904619300,1.140619384765625,0.0007914426386356353,-0.22638459722325205,0.08256590887531638
1782811317914690300,1.150690185546875,0.05106207871735096,-0.26894970042593774,0.02672974762395024
1782811317924761300,1.16076123046875,0.052692310267686844,-0.30303295261785385,0.03091784696355462
1782811317934833400,1.17083349609375,0.030299861195683477,-0.36550022244676944,0.04187310235053301
1782811317944904400,1.180904541015625,0.038299627777934074,-0.4263893562387675,0.019507541285455225
1782811317954976300,1.190976318359375,-0.0023749124377965927,-0.46676681320406493,0.032682080157101154
1782811317965047000,1.201047119140625,-0.1314081195861101,-0.4448099060051143,0.04145385402515531
1782811317975119000,1.211119140625,-0.13381108907461164,-0.34956403684206305,0.13143544598445295
1782811317985190100,1.221190185546875,0.04026011419594288,-0.2752634866826236,0.2824846701078117
1782811317995262200,1.23126220703125,0.2551917356431484,-0.20552586052455007,0.43071050737351174
1782811318005333200,1.241333251953125,0.4345657214969396,-0.17249145979844033,0.5473737700313329
1782811318015404300,1.251404296875,0.5904992105305195,-0.17426570292934773,0.6356779302977025
1782811318025476000,1.26147607421875,0.639915275606513,-0.22499811130091546,0.6571053337298334
1782811318035547100,1.271547119140625,0.5556757344305515,-0.2911881279800087,0.5442196899145841
1782811318045619200,1.281619140625,0.40680619243383404,-0.4008892965402454,0.45734600084275007
1782811318055690200,1.291690185546875,0.32106384547948835,-0.5401975217264146,0.3610546412147581
1782811318065762300,1.30176220703125,0.25871874072551726,-0.6588944821689278,0.2816705772459507
1782811318075833300,1.311833251953125,0.278510651910305,-0.780208054850623,0.2173623557254672
1782811318085904100,1.321904052734375,0.35276188303530215,-0.8907236815989017,0.21388211239427327
1782811318095976400,1.3319765625,0.4225204789161682,-0.9821401286669075,0.23363924452662466
1782811318106047500,1.342047607421875,0.4073404454410076,-1.0772621522545813,0.2980434737674892
1782811318116119300,1.352119384765625,0.35422903297841546,-1.1015138193272054,0.34799101537168026
1782811318126190300,1.3621904296875,0.15762801799178122,-1.12608112822026,0.35763197328969837
1782811318136262400,1.372262451171875,-0.15390169094502926,-1.1356385725732892,0.3808047590844333
1782811318146333400,1.38233349609375,-0.45929099743068214,-1.113958436489105,0.3719295248419046
1782811318156405500,1.392405517578125,-0.6750590697020292,-1.1472054570525885,0.3433345678679645
1782811318166476500,1.4024765625,-0.7809586540222168,-1.1427199822016059,0.35820641217678784
1782811318176547600,1.412547607421875,-0.8210679615706205,-1.1256349918879567,0.3676568159587681
1782811318186619600,1.42261962890625,-0.8021908271431922,-1.1297608396463095,0.35375542411729693
1782811318196690400,1.4326904296875,-0.7563385920286179,-1.1490221510857344,0.3241467600561678
1782811318206762500,1.442762451171875,-0.6743441994309425,-1.154259467217326,0.3313303879499435
1782811318216833300,1.452833251953125,-0.5205979913085699,-1.1412215603373943,0.3728746967375278
1782811318226905300,1.4629052734375,-0.32935996465981004,-1.124253620532155,0.41661841526553034
1782811318236976400,1.472976318359375,-0.22796178341209888,-1.0954355953920631,0.4513907457001507
1782811318247047400,1.48304736328125,-0.09324176279902457,-1.0438190245971084,0.47367725017964835
1782811318257119500,1.493119384765625,0.0968090998917818,-1.0127953791715205,0.5223343135818839
1782811318267190500,1.5031904296875,0.2887538135051727,-1.0229666445739567,0.5420309476986527
1782811318277262300,1.513262451171875,0.428824547496438,-1.0103967205319553,0.5390655220218002
1782811318287333400,1.52333349609375,0.5059533798843622,-0.9667506171595305,0.5365569002017379
1782811318297405400,1.533405517578125,0.5407675036340952,-0.9885875512406229,0.5822185811802745
1782811318307476500,1.5434765625,0.5065069221138954,-0.9523751050002872,0.5804293596759438
1782811318317548500,1.553548583984375,0.4876894089192152,-0.9267392170276493,0.6158262517496943
1782811318327619600,1.56361962890625,0.4580839597284794,-0.9057955785244702,0.6614741964638233
1782811318337690400,1.5736904296875,0.4217775515943765,-0.8988904753111302,0.6975318905338644
1782811318347762400,1.583762451171875,0.40503859823942184,-0.8936725214671343,0.7240140931375324
1782811318357833500,1.59383349609375,0.3955851257175207,-0.8977516805395483,0.7340833594702184
1782811318367905300,1.6039052734375,0.37888767341673374,-0.8978006342478096,0.7344691439174115
1782811318377976300,1.613976318359375,0.33999124878942966,-0.8930848577722906,0.7481472483970224
1782811318388048400,1.62404833984375,0.28218671007454393,-0.9546260257322341,0.7525923912376165
1782811318398119400,1.634119384765625,0.15321429320275784,-0.9653122549194842,0.7313719085544347
1782811318408190500,1.6441904296875,-0.029639935982227323,-0.9447409568600356,0.675630147588253
1782811318418262500,1.654262451171875,-0.20740297950804232,-0.9266311535432934,0.6445891126364469
1782811318428333600,1.66433349609375,-0.3751338738411665,-0.881491450612247,0.6013090660974383
1782811318438405600,1.674405517578125,-0.55942719591856,-0.8364297082882374,0.5440025400325655
1782811318448476700,1.6844765625,-0.6708546037495136,-0.8589136350359767,0.43071109189540147
1782811318458548500,1.694548583984375,-0.7615268083214759,-0.9014443975776434,0.3711220078513026
1782811318468619300,1.704619384765625,-0.8614765443265437,-0.8954301787894219,0.3181795222148299
1782811318478691600,1.714691650390625,-0.9497662376761435,-0.9122821640647947,0.19546967286914585
1782811318488762400,1.724762451171875,-0.9295324279427528,-0.9633015726841986,0.10254881258755921
1782811318498833400,1.73483349609375,-0.8683516907930373,-1.011757195230201,0.0314098682641983
1782811318508905500,1.744905517578125,-0.7743740149348973,-1.115589398691803,-0.07249532736837863
1782811318518976500,1.7549765625,-0.6386772582441568,-1.2319766208872198,-0.24437457355260847
1782811318529048300,1.76504833984375,-0.4837894788712263,-1.2710821582205594,-0.42977147295773027
1782811318539119400,1.775119384765625,-0.42487259500026703,-1.287527243195474,-0.5407786095499992
1782811318549191400,1.78519140625,-0.5261503647387027,-1.256822308330238,-0.546776680921018
1782811318559262500,1.795262451171875,-0.8557698571175336,-1.1244797574382275,-0.35856618539988994
1782811318569333500,1.80533349609375,-1.4056827902376652,-0.8973697685498744,-0.14810498736500738
1782811318579405600,1.815405517578125,-2.0732821915835142,-0.5237811879219487,-0.05665419963598251
1782811318589476400,1.825476318359375,-2.5306793380916117,-0.14681485622292384,-0.004497311419248581
1782811318599548700,1.835548583984375,-2.6432570850014687,0.13441848038323223,0.055180035430192946
1782811318609619500,1.845619384765625,-2.4437241082161663,0.2614580842952244,0.042704000216722486
1782811318619691300,1.855691162109375,-1.9932968007206915,0.15744177470467985,-0.049453474476933476
1782811318629762300,1.86576220703125,-1.4054320303469896,-0.13430248932074754,-0.18603461278676986
1782811318639834400,1.87583447265625,-0.8098597543358802,-0.4195339008534327,-0.30131606569737196
1782811318649905400,1.885905517578125,-0.3603390402913093,-0.6410208256956189,-0.2920402878299355
1782811318659976400,1.8959765625,-0.2382084521383047,-0.7656249643553048,-0.2534174194470048
1782811318670048500,1.906048583984375,-0.32172669330239295,-0.6983964714739471,-0.2045452519893646
1782811318680119600,1.91611962890625,-0.49743280429840087,-0.5389505904052406,-0.12260258957892656
1782811318690191600,1.926191650390625,-0.7470663212925195,-0.3085322806864977,-0.06529343316555022
1782811318700262700,1.9362626953125,-0.9751432555168866,-0.10100217680060304,-0.12590893764793873
1782811318710334500,1.94633447265625,-1.027737366107106,0.045034105398412794,-0.23693360989689827
1782811318720405500,1.956405517578125,-0.8634802853643894,0.06540609975978731,-0.33974136568158864
1782811318730476300,1.966476318359375,-0.5481430008381605,0.017006609581504017,-0.46338674231171606
1782811318740548400,1.97654833984375,-0.14800620316565036,-0.11004583554575219,-0.5459253247886896
1782811318750619400,1.986619384765625,0.27093992439508435,-0.23257464750241486,-0.580719867055118
1782811318760691500,1.99669140625,0.7741752774924039,-0.3153476963223889,-0.620828590081632
1782811318770762500,2.006762451171875,1.2360603830695152,-0.39047830409780143,-0.6117392746970057
1782811318780834600,2.01683447265625,1.610161991253495,-0.39673575705736874,-0.5346683099761605
1782811318790905600,2.026905517578125,1.94382111441195,-0.28199509649258103,-0.4244876873359084
1782811318800976600,2.0369765625,2.111738471227884,-0.0742618621168658,-0.25185119304358955
1782811318811048400,2.04704833984375,2.07362589045465,0.11001162274889648,-0.12459054852575063
1782811318821119500,2.057119384765625,1.83070852997303,0.3040585328059271,-0.04291209000945091
1782811318831191600,2.067191650390625,1.4974924744069575,0.43922209593541917,0.029651918680965898
1782811318841262600,2.0772626953125,1.076836035797,0.4843785308055579,0.06352671575397252
1782811318851334700,2.087334716796875,0.6892904241502285,0.44504313023909925,0.0467161584675312
1782811318861405400,2.097405517578125,0.3857487913578748,0.29624753026142714,-0.008729249900579453
1782811318871477200,2.107477294921875,0.2368839255362749,0.16573526353649795,-0.044478608673810954
1782811318881548300,2.11754833984375,0.36737142314612864,0.014268909979611635,-0.06624357349723577
1782811318891619300,2.127619384765625,0.7656757446944713,-0.1498764540169388,-0.0758016754373908
1782811318901691400,2.13769140625,1.1781623208522796,-0.2789575188949704,-0.05826806457340717
1782811318911762400,2.147762451171875,1.4720751245558261,-0.352854018298164,0.009386544765532016
1782811318921834500,2.15783447265625,1.7237942156523465,-0.4030138874787837,0.12015782677531242
1782811318931905500,2.167905517578125,1.924676853480935,-0.45933892822563643,0.2134098187074065
1782811318941977600,2.1779775390625,2.008319013285637,-0.5505556880030781,0.28124387626647945
1782811318952048600,2.188048583984375,1.9680501312613485,-0.6678647742837667,0.3044751142501831
1782811318962119700,2.19811962890625,1.7989280748307703,-0.7309517103809863,0.3380499054633081
1782811318972191500,2.20819140625,1.6323422588795422,-0.8055990281514823,0.2896989854007959
1782811318982262300,2.21826220703125,1.5047019673943518,-0.9502882157236338,0.21770985398888587
1782811318992334300,2.228334228515625,1.3313468034386633,-1.0629912695135921,0.21291984323337673
1782811319002405400,2.2384052734375,1.1373586012989283,-1.1369555734559893,0.20263824932426214
1782811319012477400,2.2484775390625,0.8959095598042011,-1.2051483813248574,0.23548545691519973
1782811319022548500,2.258548583984375,0.644905923500657,-1.2461539070606231,0.268174843595922
1782811319032619500,2.26861962890625,0.4041998093277216,-1.3031950601875781,0.241677735684067
1782811319042691600,2.278691650390625,0.12858429433703422,-1.4014783242851494,0.17508666392341254
1782811319052762600,2.2887626953125,-0.2002244661808014,-1.4885703322827815,0.11780848717018962
1782811319062834400,2.29883447265625,-0.45834524101316926,-1.4907308713175356,0.049163990011066194
1782811319072905500,2.308905517578125,-0.6987222693622112,-1.4791598221197724,0.026304215688258407
1782811319082977500,2.3189775390625,-0.8290010926574468,-1.4896044976361096,0.0696387688934803
1782811319093048000,2.329048095703125,-0.9349830945640801,-1.4871857460565865,0.1274465224787593
1782811319103119000,2.339119140625,-0.9852665901243686,-1.4812028722546995,0.07014394193664193
1782811319113191200,2.349191162109375,-0.9222083686649799,-1.4862582559481263,0.08336860356032848
1782811319123262200,2.35926220703125,-0.7718471268057823,-1.5130392953678964,0.16906696524247525
1782811319133334300,2.369334228515625,-0.5966980651706457,-1.5331205448880791,0.2677411283537745
1782811319143405300,2.3794052734375,-0.5232938062638044,-1.5236797857172786,0.30288872184157367
1782811319153477000,2.38947705078125,-0.5710147578597068,-1.4738777900636195,0.28505422833487387
1782811319163548200,2.399548095703125,-0.7797399258822202,-1.4347428805053233,0.28586612923964855
1782811319173619200,2.409619140625,-1.0145902997642755,-1.3772696195714176,0.2411532734185457
1782811319183691300,2.419691162109375,-1.2337789941340684,-1.3555201445780694,0.13090426171720027
1782811319193762300,2.42976220703125,-1.0856810210317374,-1.2861660378448665,-0.021066607295721768
1782811319203834400,2.43983447265625,-0.601001899844408,-1.1993741818375885,0.001305237379670143
1782811319213905200,2.4499052734375,-0.13836919077038765,-1.1641726662054657,0.1098673189073801
1782811319223977200,2.459977294921875,0.17485153999328612,-1.1284972494512795,0.15283844562768936
1782811319234048300,2.47004833984375,0.2741442733943462,-1.1248238216355442,0.12681436205506325
1782811319244119000,2.480119140625,0.2511485977321863,-1.1044167011618613,0.08726619552075862
1782811319254191000,2.490191162109375,0.14547756147086618,-0.9948695541195571,0.0704151600934565
1782811319264262100,2.50026220703125,0.08947393469810486,-0.8257615262143313,0.07069061603397131
1782811319274334200,2.510334228515625,0.03288227890431881,-0.6030021337509155,0.12735650610774754
1782811319284405200,2.5204052734375,-0.10366437261402606,-0.3204667563691735,0.18940189726278184
1782811319294477300,2.530477294921875,-0.2706014862209558,-0.03638648763298988,0.3860362299971282
1782811319304548400,2.54054833984375,-0.4587105671942234,0.27319413306266066,0.6555595655925571
1782811319314620200,2.5506201171875,-0.5832137296974659,0.5318966533057391,0.8429885553471743
1782811319324691200,2.560691162109375,-0.5745838485181332,0.6482319991834461,0.9655196871250867
1782811319334762000,2.570761962890625,-0.5088292275816202,0.6090653793126344,1.0066729507684706
1782811319344834300,2.580834228515625,-0.5215197823286056,0.5138850496664643,0.9747387663692235
1782811319354905000,2.590905029296875,-0.5140127676993608,0.486312421477586,0.8951385754317045
1782811319364977200,2.60097705078125,-0.40861821029186246,0.5978938508264721,0.7803267858594656
1782811319375048200,2.611048095703125,-0.29445640906095505,0.7589854532755911,0.7460641585126518
1782811319385120300,2.621120361328125,-0.24753917506337164,0.927640915107727,0.7700131893768906
1782811319395191300,2.63119140625,-0.13785130437612533,1.047531761509925,0.8521785546272993
1782811319405262300,2.641262451171875,0.05554886874258518,1.1044757378727197,0.8695961378961801
1782811319415334100,2.651334228515625,0.26511048758924005,1.0978326465964316,0.7999453863039613
1782811319425405200,2.6614052734375,0.4498082988142967,1.0749510988332331,0.7246899465724825
1782811319435477200,2.671477294921875,0.5081202025294304,1.0255116528816521,0.6578346709176898
1782811319445548300,2.68154833984375,0.41288989626169204,0.9857575885117054,0.5474325144812464
1782811319455620400,2.691620361328125,0.15151859520077704,0.9193002261333167,0.38210868128985165
1782811319465691400,2.70169140625,-0.20921090571284293,0.8098094854533672,0.18009177873432636
1782811319475762200,2.71176220703125,-0.518369209343195,0.6732983436398208,0.01336567752957344
1782811319485834200,2.721834228515625,-0.6408797367244958,0.5544355251111089,-0.05048486335128546
1782811319495905300,2.7319052734375,-0.6055892276346683,0.43615693621113893,-0.023849077621102333
1782811319505977000,2.74197705078125,-0.47724224918484687,0.29925314181819557,0.07462795548290013
1782811319516048100,2.752048095703125,-0.2576706929773092,0.20439181499332187,0.20860914042741058
1782811319526120200,2.7621201171875,-0.032271453529596324,0.12781973970532418,0.32364947805851696
1782811319536191200,2.772191162109375,0.23409692516624925,0.08339943709000945,0.4205915566802025
1782811319546262300,2.78226220703125,0.5150397726595402,0.07757818359062076,0.45748950096666813
1782811319556334300,2.792334228515625,0.7951824096858501,-0.023608692993968724,0.4779866378113627
1782811319566405400,2.8024052734375,0.9893062209039926,-0.17529738406464457,0.4849035775929689
1782811319576477200,2.812477294921875,1.2123498371362686,-0.2671659588143229,0.47407677089124917
1782811319586548200,2.82254833984375,1.5034101740181445,-0.3191800775595009,0.5166515917703509
1782811319596620300,2.832620361328125,1.661281937637925,-0.3992179292619228,0.5765618705928325
1782811319606691000,2.842691162109375,1.695751193472743,-0.3812827518597245,0.6140969437390565
1782811319616762000,2.85276220703125,1.6653911265224217,-0.3307107216816395,0.6619944209456443
1782811319626834200,2.862834228515625,1.6067518905490636,-0.273469077546522,0.741263480232656
1782811319636905200,2.8729052734375,1.4553244807630776,-0.24521204729005694,0.8107260157763958
1782811319646977300,2.882977294921875,1.234423137256503,-0.20263503445386885,0.7916001672849059
1782811319657048300,2.89304833984375,0.9403402376830577,-0.12037051967792212,0.7502621947243809
1782811319667120000,2.9031201171875,0.585125116276741,-0.042048166656494135,0.7094777643933892
1782811319677191200,2.913191162109375,0.2721568989694118,0.03028678251840174,0.7073956974223256
1782811319687262200,2.92326220703125,0.053178047958016395,0.07633665909692644,0.6551929242372513
1782811319697334300,2.933334228515625,-0.07784779431223869,0.12420564086139202,0.5991159399673343
1782811319707405300,2.9434052734375,-0.2220686337202787,0.14273366959020495,0.5433522594302892
1782811319717477400,2.953477294921875,-0.3195142779499292,0.1310962040927261,0.446335069745779
1782811319727548200,2.963548095703125,-0.34700668050944805,0.1011626919914037,0.3162193280577659
1782811319737620200,2.9736201171875,-0.25349837572872636,0.10894633160494267,0.2322439907759428
1782811319747691300,2.983691162109375,-0.19107552956342697,0.12403379142582416,0.14628361715674398
1782811319757762300,2.99376220703125,-0.20947920126020908,0.1323970575582236,0.05153349562138319
1782811319767834000,3.003834228515625,-0.29831600709855555,0.13851291009001432,-0.09620265843123196
1782811319777905200,3.0139052734375,-0.41285307138264177,0.1479273657757789,-0.1859735302492976
1782811319787977200,3.023977294921875,-0.6395382589876651,0.22086093843095003,-0.27116788793206215
1782811319798048300,3.03404833984375,-1.0852256784796714,0.24402466413639484,-0.3079284695744514
1782811319808120300,3.044120361328125,-1.7201164039224386,0.23946444354876875,-0.3953723597496748
1782811319818191400,3.05419140625,-2.3024288008660077,0.21905023574717342,-0.6019406419992447
1782811319828262400,3.064262451171875,-2.5505326240748167,0.18341807361282408,-1.0490756299510597
1782811319838334200,3.074334228515625,-2.3691905530184507,0.154022906171903,-1.4826502945840359
1782811319848405200,3.0844052734375,-1.9722744709581135,-0.18198869839683174,-1.5919026964634655
1782811319858477000,3.09447705078125,-1.7026187411546707,-0.5496294400036335,-1.4115774012342095
1782811319868548000,3.104548095703125,-1.654872070595622,-0.7588182069499045,-1.154192539460957
1782811319878620200,3.1146201171875,-1.700048013883829,-0.7128355503886937,-0.8681544146552681
1782811319888691200,3.124691162109375,-1.9271651631653308,-0.45249220413602886,-0.6209285433247685
1782811319898762200,3.13476220703125,-2.2309955497711895,-0.17411869567409158,-0.4065034100949764
1782811319908834300,3.144834228515625,-2.5328333012551068,-0.004625029452145099,-0.2795855876654386
1782811319918905300,3.1549052734375,-2.6842665562599897,0.10023753997050225,-0.24852555575221774
1782811319928977200,3.16497705078125,-2.6132939084142444,0.10690255081765353,-0.2823509607255459
1782811319939048200,3.175048095703125,-2.461912091335654,0.06494681168496608,-0.3429717259049415
1782811319949120300,3.185120361328125,-2.1936358331918715,-0.014085077845305204,-0.4300868225172162
1782811319959191300,3.19519140625,-1.7475117758482694,-0.09679514443166554,-0.5941287992045283
1782811319969263400,3.205263427734375,-1.164634730759263,-0.21241547390781343,-0.7387123344451189
1782811319979334100,3.215334228515625,-0.4791875380337238,-0.19123693067021666,-0.7943921360909938
1782811319989405200,3.2254052734375,0.2540396429985762,-0.08690174612253904,-0.8449582479849457
1782811319999477200,3.235477294921875,0.8167080127954482,0.09530220246016978,-0.8588032334640622
1782811320009548300,3.24554833984375,1.1490443629175424,0.30534780543148515,-0.8401064240396022
1782811320019620000,3.2556201171875,1.3916659553229809,0.5098389891460537,-0.8048334506064653
1782811320029691100,3.265691162109375,1.5133751031935214,0.7012886127188801,-0.7669266215384006
1782811320039762200,3.27576220703125,1.4716653747111559,0.8078893310457468,-0.7272220953986048
1782811320049834200,3.285834228515625,1.299773269045353,0.8709430224604904,-0.7541682622522116
1782811320059905300,3.2959052734375,1.1507020669966936,0.8257673714332282,-0.7373211723476648
1782811320069977300,3.305977294921875,1.0497048677653074,0.7145847321435809,-0.7138277762964368
1782811320080048400,3.31604833984375,1.010824225229025,0.6081183077208697,-0.7484832023531198
1782811320090120200,3.3261201171875,1.142114855915308,0.5512886053875088,-0.8262839426532387
1782811320100191200,3.336191162109375,1.3343489078640938,0.5341154983989894,-0.810451290488243
1782811320110263000,3.346262939453125,1.4505787475407124,0.5190596758253873,-0.7366793673127889
1782811320120334000,3.356333984375,1.439825882858038,0.4744552488148212,-0.6340238794803619
1782811320130405000,3.366405029296875,1.3987877700269222,0.5023810743555426,-0.5587357065230608
1782811320140477200,3.376477294921875,1.4266291321545839,0.5551309600293636,-0.4480468420997262
1782811320150548200,3.38654833984375,1.4977853198736906,0.6001427987970411,-0.30115415313392874
1782811320160620300,3.396620361328125,1.5190595785707235,0.5606714968912303,-0.13172434592843055
1782811320170691000,3.406691162109375,1.5510568913340568,0.4269473554477095,-0.04764861701205372
1782811320180762000,3.41676220703125,1.5368068321853876,0.297368643245846,-0.028951223065704107
1782811320190834000,3.426833984375,1.6310703392475843,0.1425078980103135,-0.09991408016979694
1782811320200905000,3.436905029296875,1.8753776927828787,0.004515431597828865,-0.09300722339078783
1782811320210977000,3.44697705078125,2.1587714405596254,-0.13402692378237843,0.004613631275296211
1782811320221048000,3.457048095703125,2.316415825164318,-0.2562240013003349,0.10511354850903153
1782811320231120100,3.4671201171875,2.400307575815916,-0.36196284210085866,0.2047502730421722
1782811320241191200,3.477191162109375,2.342066983771324,-0.4191938187114894,0.2837814319200814
1782811320251262200,3.48726220703125,2.113240107962489,-0.48386137506365773,0.28405396525114773
1782811320261334300,3.497334228515625,1.7082845118314027,-0.5291952853925526,0.21472250874117016
1782811320271405300,3.5074052734375,1.3139350653886794,-0.5574393831022083,0.14738091087415814
1782811320281477000,3.51747705078125,0.8921844018012285,-0.6470397206589579,0.03981836177781224
1782811320291548000,3.5275478515625,0.4079021709769964,-0.757308021582663,-0.11317600506395101
1782811320301620200,3.5376201171875,0.020028642550110817,-0.8648856221176683,-0.24899726491719482
1782811320311691000,3.54769091796875,-0.2291062772721052,-0.9642880995035171,-0.4223310938239097
1782811320321762000,3.557761962890625,-0.3929454248636961,-1.049530095720291,-0.5047010417357087
1782811320331834000,3.567834228515625,-0.6134627374887466,-1.126131397102773,-0.594645078163594
1782811320341905200,3.5779052734375,-0.8357412145674228,-1.188126373244822,-0.6826002788618206
1782811320351977200,3.587977294921875,-1.089411439731717,-1.2636230743862689,-0.7884368809483945
1782811320362048300,3.59804833984375,-1.304139063039422,-1.2813972160078584,-0.8224263904422521
1782811320372120000,3.6081201171875,-1.3656962322860955,-1.1844095446787775,-0.7767911590792238
1782811320382191000,3.618191162109375,-1.284903032171726,-1.0980044960319995,-0.6823480576664209
1782811320392262100,3.62826220703125,-1.1545680947750807,-1.0526245546042918,-0.5953096795521676
1782811320402334200,3.638334228515625,-1.0863742639929055,-1.012262879730016,-0.5813179790787398
1782811320412405000,3.648405029296875,-1.2390958052426575,-1.0103123301841317,-0.6101686643794179
1782811320422477300,3.658477294921875,-1.15156657487154,-0.9783011350259184,-0.6605673107519745
1782811320432548000,3.668548095703125,-0.5462514880031347,-0.8684728329546749,-0.5704040786154568
1782811320442620200,3.6786201171875,0.10831892042160034,-0.84180314495489,-0.36202684724777934
1782811320452691200,3.688691162109375,0.398587230142951,-0.7508699513591826,-0.1750106760777533
1782811320462762200,3.69876220703125,0.3289771028220653,-0.6729017455376685,-0.09220920488089322
1782811320472834000,3.708833984375,-0.011218144106864928,-0.5547814159393311,-0.11095058409944177
1782811320482905000,3.718905029296875,-0.39171266819834705,-0.34887276664227246,-0.1115861055240035
1782811320492977200,3.72897705078125,-0.7280921562314033,-0.16774916064217685,-0.11706000689044595
1782811320503048200,3.739048095703125,-1.0368260969698428,-0.04470540316700935,-0.11810425524637103
1782811320513120300,3.749120361328125,-1.2803688958734274,0.111617815836519,-0.10102350271642208
1782811320523191300,3.75919140625,-1.4694599736213683,0.2422482290484011,-0.08658566591069101
1782811320533262000,3.769261962890625,-1.5807950269937514,0.34819442898929115,-0.04035670643821358
1782811320543334100,3.779334228515625,-1.5922756214290856,0.44987478817924853,0.05613017576187849
1782811320553405000,3.789405029296875,-1.5278431890070439,0.5403896102324128,0.17285408256575463
1782811320563477000,3.79947705078125,-1.3600561805725098,0.6360699983552098,0.28160145753249527
1782811320573548000,3.809548095703125,-0.9987801516920327,0.7147811314985155,0.25788696607649325
1782811320583620000,3.8196201171875,-0.4573731811106205,0.7939189656212925,0.3368970821663737
1782811320593691100,3.829691162109375,0.18393150302767752,0.8026775877468287,0.48093452783152457
1782811320603762200,3.83976220703125,0.8244768932312726,0.7216777591444552,0.6301077289499342
1782811320613834200,3.849834228515625,1.2666086660683153,0.6417318235091864,0.7018861402206122
1782811320623905300,3.8599052734375,1.479468157416582,0.5955833819270133,0.7130303423084319
1782811320633977000,3.86997705078125,1.5368237833201885,0.6015139410197734,0.7063754144638776
1782811320644048100,3.880048095703125,1.45653210298717,0.6921586730629206,0.7178475333318114
1782811320654120200,3.8901201171875,1.2230781518995761,0.7285927992299198,0.6548544860631227
1782811320664191200,3.900191162109375,0.8350485561281442,0.7008711179591715,0.5101226283930241
1782811320674262000,3.910261962890625,0.368183908572793,0.665370619380474,0.3746323540598154
1782811320684334000,3.920333984375,-0.0695429073035717,0.6382621015720069,0.25150530221536754
1782811320694405000,3.930405029296875,-0.3970668887078762,0.6116780460290611,0.20866920005157588
1782811320704477200,3.940477294921875,-0.5581190359294415,0.55723129330948,0.21514833293780683
1782811320714548200,3.95054833984375,-0.6446937420547008,0.5133208399124444,0.2286518115028739
1782811320724620000,3.9606201171875,-0.5373369446635246,0.42767099354714155,0.21847733123004434
1782811320734691000,3.970691162109375,-0.2649444833725691,0.3649216919064522,0.20424451547712086
1782811320744762000,3.98076220703125,0.07591419590115547,0.3526430789612233,0.2787809932842851
1782811320754834200,3.990834228515625,0.42432314442396163,0.37961174990758295,0.3909256094738841
1782811320764905200,4.0009052734375,0.7808294746845961,0.38634763403385874,0.5123854587584734
1782811320774977300,4.010977294921875,1.1763397816002368,0.35154753880947825,0.5793116076923907
1782811320785048300,4.02104833984375,1.5797487328112125,0.314943609033525,0.6396402580574154
1782811320795120000,4.0311201171875,1.8865005598217248,0.3202946146726608,0.7531115928061306
1782811320805191200,4.041191162109375,1.9699989272415637,0.3457878062389791,0.8458153032056986
1782811320815262000,4.051261962890625,1.9302707279652356,0.34588264491558074,0.8942673455551267
1782811320825334000,4.061333984375,1.8362872068881988,0.3410070017032325,0.9366713399119675
1782811320835405000,4.071405029296875,1.736102493083477,0.366555722849071,0.9502698032841086
1782811320845477000,4.08147705078125,1.5467150627374648,0.3274681595638394,0.938565190834552
1782811320855548200,4.091548095703125,1.387465581023693,0.28544235086962577,0.9113727941349148
1782811320865619200,4.101619140625,1.2126876907885074,0.2416568390265107,0.8431985448360443
1782811320875691300,4.111691162109375,1.0322814392775297,0.13405629600733518,0.7556991250813007
1782811320885762300,4.12176220703125,0.9039449822217226,0.0195903972633183,0.6918450770691037
1782811320895834000,4.131834228515625,0.8949000905007124,-0.08573197169080377,0.6181421274766326
1782811320905905200,4.1419052734375,0.9831664029747247,-0.184620654335618,0.5638645938441157
1782811320915977200,4.151977294921875,1.0399509509921074,-0.21622370708435773,0.5231295556128025
1782811320926048000,4.162048095703125,0.9391606725096702,-0.22276669898703694,0.5178896091327071
1782811320936119000,4.172119140625,0.6971580887854099,-0.2913094893373549,0.5160749609261751
1782811320946191000,4.182191162109375,0.35232466066181656,-0.3977921342425048,0.46299745073318477
1782811320956262100,4.19226220703125,-0.1355003573358059,-0.5106098273880779,0.3209904879823327
1782811320966334200,4.202334228515625,-0.6920259865939616,-0.5382715951651335,0.21659750883281229
1782811320976405200,4.2124052734375,-1.221927812820673,-0.5494054219894111,0.11768968309611082
1782811320986477000,4.22247705078125,-1.7453630733817815,-0.5185626860886812,0.027117139506340024
1782811320996548000,4.232548095703125,-2.2226292879641054,-0.46333267403692,-0.07156096912771463
1782811321006619100,4.242619140625,-2.5852982325077054,-0.41796252335086465,-0.18140490715950727
1782811321016691200,4.252691162109375,-2.8567168803304432,-0.49007761923000215,-0.3164271255895495
1782811321026762200,4.26276220703125,-2.80258138551712,-0.5983380874626338,-0.6445052337452769
1782811321036834300,4.272834228515625,-2.4161200619757173,-0.6936528571434318,-1.0013175612151621
1782811321046905000,4.282905029296875,-2.0462240887880325,-0.8798539125382899,-1.1704933936595916
1782811321056977200,4.29297705078125,-1.7897370526373386,-1.0222907911390064,-1.1040855695113538
1782811321067048200,4.303048095703125,-1.7436241207599639,-0.8943710981905459,-0.7987272426858544
1782811321077119200,4.313119140625,-1.9311375739276408,-0.5564524178914726,-0.3602382102653384
1782811321087191000,4.32319091796875,-2.3037363763332364,-0.027104572285711764,0.06985854912400245
1782811321097263600,4.333263671875,-2.5593489677369594,0.5985230886407196,0.45602235102355476
1782811321107335700,4.343335693359375,-2.6014234378784895,1.1282594951726495,0.6769368462726474
1782811321117406700,4.35340673828125,-2.4146172561973334,1.4152122506052254,0.6956827555358409
1782811321127477800,4.363477783203125,-2.0503268479317427,1.405469293617457,0.5145844301074743
1782811321137549600,4.373549560546875,-1.5330074399024247,1.0661268641255794,0.16044804384857414
1782811321147620600,4.38362060546875,-1.0351315680116415,0.6195815126299857,-0.2526514035105705
1782811321157692700,4.393692626953125,-0.6368336762040853,0.21029519381821155,-0.5763160791382194
1782811321167763700,4.403763671875,-0.367939578422904,-0.1095851409651339,-0.8096861513346433
1782811321177835800,4.413835693359375,-0.16268647042512893,-0.26041677681505676,-1.0071429063677788
1782811321187906800,4.42390673828125,0.12176584649384022,-0.3045809127122164,-1.068055347970128
1782811321197977600,4.4339775390625,0.4044809643566608,-0.2538372522942722,-1.068048041446507
1782811321208049400,4.44404931640625,0.5246282697379588,-0.11035831729471683,-1.0550500281855464
1782811321218120400,4.454120361328125,0.4817191023379564,0.07394333421960472,-1.0731310437992214
1782811321228192500,4.464192626953125,0.3598258300721645,0.252240192361176,-1.0464520034492015
1782811321238263600,4.474263671875,0.1732762535005808,0.4042525624282658,-1.0875605511680244
1782811321248335600,4.484335693359375,-0.049662733313441274,0.5241958696700633,-1.0747229891657828
1782811321258406700,4.49440673828125,-0.2600853529036045,0.5427393882289528,-1.0261755236178636
1782811321268477700,4.504477783203125,-0.32746845182478423,0.542891948442161,-0.993783366318047
1782811321278549800,4.5145498046875,-0.2087590702921152,0.5426346126802265,-0.8978770604848861
1782811321288620800,4.524620849609375,-0.05686345847249031,0.47880365328267216,-0.7358812026724219
1782811321298692600,4.534692626953125,0.03733808926939964,0.4792058043427765,-0.6247992472782731
1782811321308763600,4.544763671875,0.15147358701527117,0.5316482315026223,-0.49466830802112816
1782811321318835700,4.554835693359375,0.44260874269902706,0.5872038222469389,-0.3385650153785944
1782811321328906500,4.564906494140625,0.7615928592950105,0.7082451538585126,-0.19509382529407737
1782811321338977500,4.5749775390625,1.064312069788575,0.8878814439103007,0.007033259637653827
1782811321349049600,4.585049560546875,1.2985825979560612,1.0260168259248137,0.24399258849769828
1782811321359120600,4.59512060546875,1.4921721561670303,1.019215767607838,0.45197979763448237
1782811321369192700,4.605192626953125,1.6625404132664203,0.9391798156015574,0.48783261678218837
1782811321379263700,4.615263671875,1.8100977036207913,0.8246120639182627,0.3902329510346055
1782811321389334800,4.625334716796875,1.94540633777678,0.6081089553706348,0.288397985804826
1782811321399406600,4.635406494140625,2.1503250992536542,0.3775497028112411,0.21487901447713373
1782811321409477600,4.6454775390625,2.351373156777024,0.16733926466703414,0.14208748064115642
1782811321419549700,4.6555498046875,2.414600305062532,-0.007282265962660312,0.08989829759001731
1782811321429620700,4.665620849609375,2.439868017309904,-0.1784380201779306,0.03559562951624393
1782811321439692800,4.67569287109375,2.419631284967065,-0.33906521998569367,-0.021614304306358096
1782811321449763600,4.685763671875,2.332612926727533,-0.47698228307440876,-0.03223126764968037
1782811321459834600,4.695834716796875,2.107241159808636,-0.5709470994509757,-0.0342681803047657
1782811321469906700,4.70590673828125,1.823757395660877,-0.6251162042729557,-0.05438698535636067
1782811321479977700,4.715977783203125,1.4967594839572906,-0.6545102026700973,-0.05889978660568595
1782811321490049500,4.726049560546875,1.2098825702399014,-0.7314467273563147,-0.0684128803603351
1782811321500120600,4.73612060546875,1.0010118562668562,-0.8121222924403846,-0.09702230425104498
1782811321510192600,4.746192626953125,0.8513093705773354,-0.8516308576166629,-0.13663155332282184
1782811321520263700,4.756263671875,0.7734791119217872,-0.8945712969377636,-0.1630110262043774
1782811321530334700,4.766334716796875,0.7099842526108026,-0.9871955123603343,-0.21184344617351888
1782811321540406800,4.77640673828125,0.5961275718063116,-1.0791723697900772,-0.24485636572018266
1782811321550477800,4.786477783203125,0.4210615122795105,-1.1507432757899165,-0.27584157883152366
1782811321560549600,4.796549560546875,0.15877777254879474,-1.1934205341301858,-0.3115963444322348
1782811321570620400,4.806620361328125,-0.07707330280840397,-1.2167124162599443,-0.34023251019939776
1782811321580691500,4.81669140625,-0.29072949749231336,-1.1705500922828913,-0.3034384646788239
1782811321590763500,4.826763427734375,-0.4985428113669157,-1.116123067177087,-0.29023718393072484
1782811321600834600,4.83683447265625,-0.7338619718044996,-1.0993166015438736,-0.31053193007111546
1782811321610906600,4.84690673828125,-1.0138590628802775,-1.1258546259880065,-0.3676423490419984
1782811321620977700,4.856977783203125,-1.2252987505584954,-1.195773526997119,-0.46240912945121526
1782811321631049700,4.8670498046875,-1.053366312882304,-1.1685441592879593,-0.5505164519712329
1782811321641120800,4.877120849609375,-0.6280962429970502,-1.1024486159592866,-0.5496905225411057
1782811321651191800,4.88719189453125,-0.23675883785188195,-1.116006601190567,-0.4303020727030933
1782811321661263600,4.897263671875,-0.1155178920149803,-1.122115585590154,-0.2518313192993402
1782811321671334700,4.907334716796875,-0.33959435842633245,-1.0739780160173773,-0.15446604682952164
1782811321681406700,4.91740673828125,-0.717165688547492,-0.9760426885746419,-0.17483371207565068
1782811321691477500,4.9274775390625,-1.1397960575789212,-0.8732232423521578,-0.27126462630480525
1782811321701548500,4.937548583984375,-1.4672253464370966,-0.7211705402746796,-0.3546817451819777
1782811321711620600,4.94762060546875,-1.7065274390310048,-0.4934925422400236,-0.3321890506058931
1782811321721691600,4.957691650390625,-1.9684516977995632,-0.2794375574968755,-0.2308668572038412
1782811321731763700,4.967763671875,-2.095384717798233,-0.05531359868198633,-0.12968407227247952
1782811321741834800,4.977834716796875,-2.099869754257798,0.17087211496829985,-0.011320727698504925
1782811321751906600,4.987906494140625,-2.0473241589844227,0.3957183967083692,0.10815759238004684
1782811321761977600,4.9979775390625,-1.9126006312400101,0.6111658587232232,0.26948358810693024
1782811321772048600,5.008048583984375,-1.639330802592635,0.7723582911983132,0.3798541803613305
1782811321782120700,5.01812060546875,-1.23120242164433,0.8431934302695095,0.4530567792162299
1782811321792191700,5.028191650390625,-0.6082131463974714,0.9357016180969774,0.5161676076456904
1782811321802263800,5.038263916015625,0.0572907439738512,0.9702679045654833,0.6091320148080587
1782811321812334600,5.04833447265625,0.592911532369256,0.9941058762706816,0.8348337443336844
1782811321822406700,5.05840673828125,0.8807090680629014,1.0096190872229636,1.0142197128862143
1782811321832477700,5.068477783203125,1.0321955145597457,1.0208819472543895,1.064456154434383
1782811321842548700,5.078548828125,1.022077440649271,1.0538282313056289,0.9567758241772651
1782811321852620500,5.08862060546875,0.8261842816710472,1.110919945576042,0.8256164186552166
1782811321862691600,5.098691650390625,0.43752690939009187,1.1180093193151057,0.6922723625704645
1782811321872763600,5.108763671875,-0.010984335350990295,1.0846776892080903,0.5221428826630116
1782811321882834700,5.118834716796875,-0.2987146510273218,1.027211588667333,0.3251882319331169
1782811321892905700,5.12890576171875,-0.37946985721886156,0.9153427206791936,0.186459560200572
1782811321902977800,5.138977783203125,-0.3058464026033878,0.8122830359600484,0.16103987226188182
1782811321913048800,5.149048828125,-0.13655249673724174,0.7465539878562092,0.18785013777613638
1782811321923120600,5.15912060546875,0.06596095716357231,0.6956571827031671,0.1928688427209854
1782811321933191400,5.16919140625,0.2673129660695791,0.652227936951816,0.19141221417188642
1782811321943263500,5.179263427734375,0.3886602948904037,0.5727056335560977,0.19264029466211793
1782811321953334500,5.18933447265625,0.4730611641079187,0.5005122117437422,0.19657471150159836
1782811321963405600,5.199405517578125,0.5258610264033079,0.46955286372601984,0.17039193023592233
1782811321973477600,5.2094775390625,0.6537672753483057,0.43418388257250184,0.17570377290844916
1782811321983548700,5.219548583984375,0.732143477448821,0.29919366671591996,0.21642186000496147
1782811321993620700,5.229620849609375,0.8259411205649375,0.24175781518295406,0.2503682610094547
1782811322003691800,5.23969189453125,0.9901794966071844,0.2800708869643509,0.38647242945730687
1782811322013762800,5.2497626953125,1.1424912880122662,0.2937481146611273,0.5283192332103848
1782811322023834600,5.259834716796875,1.2617495355993509,0.29937735271975396,0.6383294677197933
1782811322033905700,5.26990576171875,1.3924024529039858,0.24541955256089568,0.7016761507317424
1782811322043977700,5.279977783203125,1.4233505488753317,0.15100757693871855,0.7151610707268119
1782811322054048500,5.290048583984375,1.358580262801051,0.059497021846473215,0.7282257194831967
1782811322064120600,5.30012060546875,1.2596218759208917,-0.04168839343339205,0.7124152791500091
1782811322074191600,5.310191650390625,1.1491174281537533,-0.18146365160942077,0.7105176288351416
1782811322084260600,5.320260498046875,1.041057450929284,-0.24172946587130426,0.7641840448319912
1782811322094331600,5.33033154296875,0.950474093684554,-0.2682221898689866,0.7954211868777871
1782811322104401200,5.340401123046875,0.8163385949611663,-0.31070801729038355,0.8728393576011061
1782811322114473200,5.35047314453125,0.5871925702005625,-0.33121523713767526,0.8711325536832213
1782811322124544300,5.360544189453125,0.34273616358339787,-0.33373248065561056,0.8225789506554603
1782811322134616000,5.370615966796875,-0.015175941821932791,-0.36036475925445555,0.7277054950013756
1782811322144687000,5.38068701171875,-0.4546925637245178,-0.4175985123440623,0.5478942867740988
1782811322154759200,5.39075927734375,-0.7175789455235004,-0.4000239849478006,0.4586301954343915
1782811322164830000,5.400829833984375,-0.7972562933504581,-0.35874548748955126,0.44278614509254693
1782811322174901000,5.41090087890625,-0.8215303183853626,-0.35270986058712006,0.4401256937116384
1782811322184973000,5.42097314453125,-0.8312690375894307,-0.30728856423571704,0.4425575970336795
1782811322195044000,5.431044189453125,-0.9105448188781737,-0.2499995738275349,0.4414467131823301
1782811322205116200,5.4411162109375,-1.0942980427294968,-0.1860863429740071,0.42628509214669463
1782811322215187200,5.451187255859375,-1.4111720353037118,-0.2371897766150534,0.33472412204146385
1782811322225258000,5.461258056640625,-1.5583260055541992,-0.27681714586541056,0.03887801218777895
1782811322235330000,5.471330078125,-1.5428805991411207,-0.2675876913577318,-0.3315349706113338
1782811322245401000,5.481401123046875,-1.5144915400028227,-0.41344767627492546,-0.6610635698363184
1782811322255473200,5.49147314453125,-1.5866741481602191,-0.5592208596915006,-0.8157534885495901
1782811322265544200,5.501544189453125,-1.7369254999041557,-0.5144850613862276,-0.7649550292044878
1782811322275616300,5.5116162109375,-1.7727192823410034,-0.2026994779922068,-0.4779135725751519
1782811322285687000,5.52168701171875,-1.7506658559650181,0.22411431420370936,-0.052263855722546576
1782811322295758000,5.531758056640625,-1.725315141609311,0.672053165884316,0.3026668957844376
1782811322305830000,5.541829833984375,-1.6276982324659823,1.0202455490469933,0.4787652209684252
1782811322315901000,5.55190087890625,-1.4717928004831076,1.1924506661847234,0.5191852019011974
1782811322325973000,5.561972900390625,-1.383466866776347,1.089423860821873,0.3183367586031556
1782811322336044000,5.5720439453125,-1.4588123228788374,0.6085698508806526,-0.1884855130702257
1782811322346115000,5.582114990234375,-1.4124094681441783,0.0634698710002005,-0.7537339624881744
1782811322356187100,5.592187255859375,-1.3325474114000797,-0.310875921203196,-1.2165963886648417
1782811322366258200,5.602258056640625,-1.2974895420223473,-0.4899931558169424,-1.4668649886921048
1782811322376330200,5.612330322265625,-1.186723812970519,-0.4242804743260145,-1.4681895152941344
1782811322386401300,5.6224013671875,-1.0078963550835847,-0.21221929374858736,-1.39404525167495
1782811322396472000,5.63247216796875,-0.6371849738597869,0.049476563091576095,-1.2830445448234677
1782811322406544000,5.6425439453125,-0.18035013740956782,0.33888401819989084,-1.1857102520138025
1782811322416615000,5.652614990234375,0.06818038677871227,0.6390934378296137,-1.0455249517321585
1782811322426687000,5.66268701171875,0.01931084966957569,0.7627680405542254,-0.9710846277758478
1782811322436758000,5.672758056640625,-0.25267244629859925,0.6723018799483775,-1.1159364585638045
1782811322446830000,5.682830078125,-0.5578916569143534,0.6596079642005265,-1.3106979831635952
1782811322456901000,5.692901123046875,-0.9069961864858865,0.6901118235357105,-1.141762096954882
1782811322466972200,5.70297216796875,-1.0038777670919894,0.6261711201533675,-0.9846049113452434
1782811322477046000,5.7130458984375,-0.8887216941267252,0.6814284586034715,-0.8648506969347596
1782811322487117000,5.723116943359375,-0.763043058103323,0.6787031252928077,-0.8753297131121158
1782811322497188000,5.73318798828125,0.2124105785369873,0.552757070504874,-0.4915019529446959
1782811322507260200,5.74326025390625,0.9481196395128965,0.5240136449709535,-0.046049218991398806
1782811322517331200,5.753331298828125,1.7429799776375292,0.6008244974508882,0.20508973412960765
1782811322527403000,5.763403076171875,2.256165062341094,0.6885641557022929,0.27459055585712194
1782811322537474000,5.77347412109375,2.231287810716033,0.6853874253623187,0.29768749993667004
1782811322547546000,5.783546142578125,2.2668460308313367,0.8566255971640347,0.4629641329854727
1782811322557617200,5.7936171875,2.007003839033842,0.9116109868049621,0.6735922120198607
1782811322567688000,5.80368798828125,1.6229992609947919,0.8960479453615844,0.7740364535436034
1782811322577760000,5.813760009765625,1.3014485087811947,0.7750650659389794,0.6678606826305389
