time,seconds_elapsed,z,y,x
1782811316837046000,0.0730458984375,0.011296645738184452,-0.019602052867412567,-0.12388292700052261
1782811316847117800,0.083117919921875,0.03181838244199753,-0.01958938129246235,-0.12583477795124054
1782811316857188900,0.09318896484375,0.048048220574855804,-0.0486452691257,-0.1427634358406067
1782811316867261000,0.103260986328125,0.062165092676877975,-0.07422038167715073,-0.16384842991828918
1782811316877331700,0.113331787109375,0.06564024835824966,-0.07690298557281494,-0.17315910756587982
1782811316887403800,0.12340380859375,0.06893415004014969,-0.050360098481178284,-0.16905942559242249
1782811316897474800,0.133474853515625,0.07382344454526901,0.0013481010682880878,-0.15575933456420898
1782811316907547000,0.143546875,0.08845333009958267,0.04841848462820053,-0.13793592154979706
1782811316917618000,0.153617919921875,0.0979408398270607,0.07403144240379333,-0.11629586666822433
1782811316927689700,0.163689697265625,0.09923913329839706,0.09432525932788849,-0.08849326521158218
1782811316937760800,0.1737607421875,0.10476945340633392,0.11586517095565796,-0.05408895015716553
1782811316947831800,0.183831787109375,0.10906677693128586,0.12660661339759827,-0.024353139102458954
1782811316957904000,0.19390380859375,0.11136268824338913,0.1248214915394783,-0.00023102511477191
1782811316967975000,0.203974853515625,0.11598081886768341,0.11519113183021545,0.020592238754034042
1782811316978047000,0.214046875,0.11509611457586288,0.09826008975505829,0.0403347872197628
1782811316988118000,0.224117919921875,0.11692464351654053,0.09009456634521484,0.05459175258874893
1782811316998189800,0.23418994140625,0.11722850799560547,0.09565578401088715,0.0647282749414444
1782811317008260600,0.244260498046875,0.1230376735329628,0.09310711920261383,0.06002082675695419
1782811317018332700,0.254332763671875,0.11940459161996841,0.0748591423034668,0.05308089405298233
1782811317028403700,0.26440380859375,0.10644187033176422,0.06519815325737,0.04530845209956169
1782811317038474800,0.274474853515625,0.08943279087543488,0.0683761015534401,0.043406952172517776
1782811317048546800,0.284546875,0.06497238576412201,0.08014451712369919,0.043022170662879944
1782811317058617900,0.294617919921875,0.0467960499227047,0.0975261703133583,0.04728962108492851
1782811317068690000,0.30468994140625,0.03193721920251846,0.12063121795654297,0.04662191495299339
1782811317078761000,0.314760986328125,0.021527722477912903,0.13754627108573914,0.034357257187366486
1782811317088832800,0.324832763671875,0.011455683968961239,0.1518896520137787,0.01795998029410839
1782811317098903300,0.3349033203125,-0.001916581066325307,0.16459053754806519,0.004278522450476885
1782811317108975000,0.34497509765625,-0.0076218582689762115,0.16349568963050842,-0.007143287919461727
1782811317119046100,0.355046142578125,-0.009623223915696144,0.14269080758094788,-0.01779087260365486
1782811317129117200,0.3651171875,-0.004999077878892422,0.10939699411392212,-0.01987503282725811
1782811317139189200,0.375189208984375,-0.0026762690395116806,0.09163796901702881,-0.011183008551597595
1782811317149260300,0.38526025390625,0.00048639794113114476,0.080084428191185,-0.002460103016346693
1782811317159332400,0.395332275390625,0.009047661907970905,0.08183758705854416,0.009653816930949688
1782811317169403400,0.4054033203125,0.01293268147855997,0.08736445009708405,0.022711828351020813
1782811317179475200,0.41547509765625,0.0169356781989336,0.08817698061466217,0.02648313157260418
1782811317189546000,0.4255458984375,0.010281925089657307,0.08504436910152435,0.03037136420607567
1782811317199618000,0.4356181640625,0.0053537460044026375,0.07950659096240997,0.02720033936202526
1782811317209689000,0.445689208984375,0.004812709987163544,0.07856642454862595,0.01852424070239067
1782811317219760000,0.455760009765625,0.005387419834733009,0.0749778151512146,0.008312082849442959
1782811317229832200,0.465832275390625,0.007496632635593414,0.061314214020967484,-0.008067639544606209
1782811317239903200,0.4759033203125,0.004306165501475334,0.05033772811293602,-0.026780076324939728
1782811317249975300,0.485975341796875,0.0017238616710528731,0.03570849820971489,-0.04512926563620567
1782811317260046300,0.49604638671875,0.0015305161941796541,0.019806765019893646,-0.06339136511087418
1782811317270118100,0.5061181640625,0.00811847671866417,0.02852325141429901,-0.07336780428886414
1782811317280189200,0.516189208984375,0.012368881143629551,0.048337168991565704,-0.07013605535030365
1782811317290261200,0.52626123046875,0.018785510212183,0.058470748364925385,-0.06656239181756973
1782811317300332300,0.536332275390625,0.013665849342942238,0.06067131832242012,-0.056582193821668625
1782811317310403000,0.546403076171875,0.007972749881446362,0.0733095183968544,-0.04198884963989258
1782811317320475100,0.55647509765625,0.007667818106710911,0.07686004787683487,-0.019216155633330345
1782811317330546200,0.566546142578125,0.007193779572844505,0.07698840647935867,-0.0021178775932639837
1782811317340618200,0.5766181640625,0.011938467621803284,0.0799730122089386,0.006913700606673956
1782811317350689300,0.586689208984375,0.021634824573993683,0.08458863198757172,0.0064180768094956875
1782811317360761000,0.596760986328125,0.029004057869315147,0.07248377054929733,-0.002936010016128421
1782811317370832100,0.60683203125,0.029021747410297394,0.05715189129114151,-0.013164965435862541
1782811317380904200,0.616904296875,0.03187745437026024,0.027117295190691948,-0.02651485800743103
1782811317390975200,0.626975341796875,0.037696029990911484,0.004287834744900465,-0.0385453924536705
1782811317401046300,0.63704638671875,0.05060357227921486,0.018038799986243248,-0.033805496990680695
1782811317411118300,0.647118408203125,0.06283115595579147,0.024890471249818802,-0.031055524945259094
1782811317421189400,0.657189453125,0.06701018661260605,0.00278996373526752,-0.025299634784460068
1782811317431261200,0.66726123046875,0.06270471960306168,-0.022123806178569794,-0.023650137707591057
1782811317441332200,0.677332275390625,0.05649822577834129,-0.02998438850045204,-0.02239205874502659
1782811317451404000,0.687404052734375,0.04771175608038902,-0.02861478179693222,-0.025685807690024376
1782811317461475000,0.69747509765625,0.044655248522758484,-0.01772857829928398,-0.030155124142766
1782811317471547100,0.707547119140625,0.04717038944363594,-0.01566372439265251,-0.03591768071055412
1782811317481618200,0.7176181640625,0.04637224227190018,-0.013014676980674267,-0.04508854076266289
1782811317491689200,0.727689208984375,0.04531736299395561,-0.016269858926534653,-0.051091838628053665
1782811317501761300,0.73776123046875,0.048575740307569504,-0.04315527155995369,-0.05839023366570473
1782811317511832300,0.747832275390625,0.046298425644636154,-0.06844208389520645,-0.0657946839928627
1782811317521904000,0.757904052734375,0.04320117086172104,-0.08358748257160187,-0.06312539428472519
1782811317531975200,0.76797509765625,0.03397219255566597,-0.07715393602848053,-0.05815642327070236
1782811317542047200,0.778047119140625,0.036467574536800385,-0.056521087884902954,-0.043742597103118896
1782811317552118300,0.7881181640625,0.03385297954082489,-0.03036516159772873,-0.03635947033762932
1782811317562190300,0.7981904296875,0.03838701173663139,-0.004604139365255833,-0.021230582147836685
1782811317572261000,0.80826123046875,0.03787974268198013,0.016334794461727142,-0.01086693350225687
1782811317582332200,0.818332275390625,0.04194585606455803,0.01697768270969391,-0.008386998437345028
1782811317592404200,0.828404296875,0.03810643032193184,0.013237645849585533,-0.012465355917811394
1782811317602475300,0.838475341796875,0.03876529633998871,-0.0012347707524895668,-0.020059626549482346
1782811317612547000,0.848547119140625,0.035551611334085464,-0.01906127855181694,-0.032219912856817245
1782811317622618000,0.8586181640625,0.031082293018698692,-0.023967087268829346,-0.0354125089943409
1782811317632690200,0.868690185546875,0.029976272955536842,-0.018573381006717682,-0.04235132411122322
1782811317642761200,0.87876123046875,0.025097627192735672,-0.02140165865421295,-0.05403754115104675
1782811317652833300,0.888833251953125,0.02390054240822792,-0.02200327254831791,-0.07296785712242126
1782811317662904300,0.898904296875,0.02612321823835373,-0.014233766123652458,-0.08670230954885483
1782811317672975400,0.908975341796875,0.030818108469247818,-0.006281564012169838,-0.0917210727930069
1782811317683047200,0.919047119140625,0.04159938544034958,0.000850914278998971,-0.0876469686627388
1782811317693118200,0.9291181640625,0.05200604721903801,0.0033076279796659946,-0.07616521418094635
1782811317703190300,0.939190185546875,0.05975637957453728,-0.007437427528202534,-0.05963284522294998
1782811317713261000,0.949260986328125,0.06739427149295807,-0.004435887560248375,-0.0417712964117527
1782811317723333000,0.9593330078125,0.07705142349004745,0.007076691836118698,-0.03419806808233261
1782811317733404200,0.969404052734375,0.08800117671489716,0.0027645519003272057,-0.03258127346634865
1782811317743476200,0.979476318359375,0.09272349625825882,0.002970946952700615,-0.04195719584822655
1782811317753547300,0.98954736328125,0.10420854389667511,0.013789030723273754,-0.04473599046468735
1782811317763618300,0.999618408203125,0.11102623492479324,0.01675179786980152,-0.04842899739742279
1782811317773690000,1.009690185546875,0.11094468086957932,0.007076422218233347,-0.05177948996424675
1782811317783761200,1.01976123046875,0.10640665888786316,0.004149874206632376,-0.04894748330116272
1782811317793833200,1.029833251953125,0.09951914101839066,0.0021942094899713993,-0.040400877594947815
1782811317803904300,1.039904296875,0.09726051241159439,0.007641439326107502,-0.042811837047338486
1782811317813976300,1.049976318359375,0.10456732660531998,0.0093576330691576,-0.050863102078437805
1782811317824047400,1.06004736328125,0.11068221181631088,0.006842809729278088,-0.06889589875936508
1782811317834119400,1.070119384765625,0.11999554932117462,0.0013135550543665886,-0.07846729457378387
1782811317844190200,1.080190185546875,0.13159947097301483,-0.013246744871139526,-0.07497403025627136
1782811317854261200,1.09026123046875,0.13186365365982056,-0.0290981438010931,-0.06722372025251389
1782811317864333000,1.1003330078125,0.12957307696342468,-0.037840768694877625,-0.04125230386853218
1782811317874404000,1.110404052734375,0.12863612174987793,-0.043841779232025146,-0.017832152545452118
1782811317884476200,1.12047607421875,0.1299743503332138,-0.049847207963466644,-0.0016193593619391322
1782811317894547200,1.130547119140625,0.13169485330581665,-0.04985097795724869,0.001940516522154212
1782811317904619300,1.140619384765625,0.12874700129032135,-0.05077962204813957,-0.01709575764834881
1782811317914690300,1.150690185546875,0.11937454342842102,-0.04646984115242958,-0.039055418223142624
1782811317924761300,1.16076123046875,0.10904334485530853,-0.03507737070322037,-0.058009665459394455
1782811317934833400,1.17083349609375,0.09797759354114532,-0.024126023054122925,-0.06962189823389053
1782811317944904400,1.180904541015625,0.0787021666765213,-0.02185807377099991,-0.07230156660079956
1782811317954976300,1.190976318359375,0.055463746190071106,-0.009449504315853119,-0.07197690010070801
1782811317965047000,1.201047119140625,0.04176897183060646,0.021024249494075775,-0.05605199560523033
1782811317975119000,1.211119140625,0.039377667009830475,0.042844485491514206,-0.04711443558335304
1782811317985190100,1.221190185546875,0.059173207730054855,0.03349039703607559,-0.040269311517477036
1782811317995262200,1.23126220703125,0.08819527179002762,0.01083382312208414,-0.04607526957988739
1782811318005333200,1.241333251953125,0.12397804111242294,-0.037006404250860214,-0.053199756890535355
1782811318015404300,1.251404296875,0.16745324432849884,-0.09580414742231369,-0.06264467537403107
1782811318025476000,1.26147607421875,0.19898906350135803,-0.13952872157096863,-0.07861378788948059
1782811318035547100,1.271547119140625,0.22233299911022186,-0.16955800354480743,-0.07436122745275497
1782811318045619200,1.281619140625,0.22017715871334076,-0.18371829390525818,-0.06883303821086884
1782811318055690200,1.291690185546875,0.21355314552783966,-0.18541622161865234,-0.05685706436634064
1782811318065762300,1.30176220703125,0.1990562230348587,-0.17366847395896912,-0.05454437807202339
1782811318075833300,1.311833251953125,0.1764456182718277,-0.16193720698356628,-0.061426229774951935
1782811318085904100,1.321904052734375,0.14973890781402588,-0.16318808495998383,-0.08703944832086563
1782811318095976400,1.3319765625,0.12611745297908783,-0.17353206872940063,-0.12259157001972198
1782811318106047500,1.342047607421875,0.10349655896425247,-0.18978480994701385,-0.16084735095500946
1782811318116119300,1.352119384765625,0.08724777400493622,-0.2103482484817505,-0.19714149832725525
1782811318126190300,1.3621904296875,0.06654542684555054,-0.23136058449745178,-0.2085624635219574
1782811318136262400,1.372262451171875,0.045450471341609955,-0.23055963218212128,-0.19940142333507538
1782811318146333400,1.38233349609375,0.03242361545562744,-0.21475961804389954,-0.17437410354614258
1782811318156405500,1.392405517578125,0.015474891290068626,-0.19045795500278473,-0.14794333279132843
1782811318166476500,1.4024765625,0.001713806064799428,-0.1650434136390686,-0.1199183464050293
1782811318176547600,1.412547607421875,-0.007506749592721462,-0.14136157929897308,-0.09567533433437347
1782811318186619600,1.42261962890625,-0.014116449281573296,-0.11202072352170944,-0.08190732449293137
1782811318196690400,1.4326904296875,-0.026896534487605095,-0.08220046013593674,-0.07220329344272614
1782811318206762500,1.442762451171875,-0.0370333231985569,-0.049191638827323914,-0.06818138808012009
1782811318216833300,1.452833251953125,-0.04458509385585785,-0.034691743552684784,-0.06643511354923248
1782811318226905300,1.4629052734375,-0.05234608054161072,-0.028869275003671646,-0.05762004852294922
1782811318236976400,1.472976318359375,-0.054007891565561295,-0.02312483638525009,-0.045321837067604065
1782811318247047400,1.48304736328125,-0.04970768466591835,-0.016459742560982704,-0.03432617709040642
1782811318257119500,1.493119384765625,-0.04372568801045418,-0.03471997380256653,-0.026751898229122162
1782811318267190500,1.5031904296875,-0.04711829125881195,-0.05423641577363014,-0.032542940229177475
1782811318277262300,1.513262451171875,-0.04312083497643471,-0.07198601216077805,-0.04018380865454674
1782811318287333400,1.52333349609375,-0.047135818749666214,-0.09128274023532867,-0.056471969932317734
1782811318297405400,1.533405517578125,-0.0490783229470253,-0.09601011872291565,-0.07574048638343811
1782811318307476500,1.5434765625,-0.049894314259290695,-0.09539226442575455,-0.0874224454164505
1782811318317548500,1.553548583984375,-0.05023456737399101,-0.09819342941045761,-0.10524188727140427
1782811318327619600,1.56361962890625,-0.040083661675453186,-0.09787864238023758,-0.1171446219086647
1782811318337690400,1.5736904296875,-0.0321475975215435,-0.10131151974201202,-0.12534770369529724
1782811318347762400,1.583762451171875,-0.025124307721853256,-0.11177907139062881,-0.12414555996656418
1782811318357833500,1.59383349609375,-0.01624506339430809,-0.12812022864818573,-0.12053404748439789
1782811318367905300,1.6039052734375,-0.006986051797866821,-0.16101905703544617,-0.11580187827348709
1782811318377976300,1.613976318359375,0.002021876396611333,-0.20021934807300568,-0.11378399282693863
1782811318388048400,1.62404833984375,0.0054259286262094975,-0.23315413296222687,-0.1141030415892601
1782811318398119400,1.634119384765625,0.006862017326056957,-0.26311978697776794,-0.12372242659330368
1782811318408190500,1.6441904296875,0.009808005765080452,-0.2666378319263458,-0.13043518364429474
1782811318418262500,1.654262451171875,0.01628103107213974,-0.27048593759536743,-0.13855941593647003
1782811318428333600,1.66433349609375,0.025754161179065704,-0.2831897437572479,-0.1341255158185959
1782811318438405600,1.674405517578125,0.022680332884192467,-0.28365233540534973,-0.1251056045293808
1782811318448476700,1.6844765625,0.020940490067005157,-0.286994606256485,-0.11657469719648361
1782811318458548500,1.694548583984375,0.022284431383013725,-0.28465536236763,-0.11070778965950012
1782811318468619300,1.704619384765625,0.020301176235079765,-0.26702362298965454,-0.09497064352035522
1782811318478691600,1.714691650390625,0.009493004530668259,-0.24559396505355835,-0.07805903255939484
1782811318488762400,1.724762451171875,-0.010047141462564468,-0.22622984647750854,-0.06237008795142174
1782811318498833400,1.73483349609375,-0.03517545014619827,-0.2103860080242157,-0.053738806396722794
1782811318508905500,1.744905517578125,-0.07945742458105087,-0.20290519297122955,-0.06927835941314697
1782811318518976500,1.7549765625,-0.14662230014801025,-0.20257271826267242,-0.11371183395385742
1782811318529048300,1.76504833984375,-0.23381605744361877,-0.22448813915252686,-0.1910950392484665
1782811318539119400,1.775119384765625,-0.3309488892555237,-0.2653043568134308,-0.29001739621162415
1782811318549191400,1.78519140625,-0.4148062467575073,-0.30215635895729065,-0.4004102051258087
1782811318559262500,1.795262451171875,-0.4717028737068176,-0.32356590032577515,-0.48249226808547974
1782811318569333500,1.80533349609375,-0.4970684349536896,-0.296533465385437,-0.5077110528945923
1782811318579405600,1.815405517578125,-0.4935281574726105,-0.20417483150959015,-0.462083101272583
1782811318589476400,1.825476318359375,-0.46020936965942383,-0.0941535234451294,-0.3648228645324707
1782811318599548700,1.835548583984375,-0.41305288672447205,-0.00045787286944687366,-0.2359655499458313
1782811318609619500,1.845619384765625,-0.3674188256263733,0.068836510181427,-0.10579636693000793
1782811318619691300,1.855691162109375,-0.3488873541355133,0.09793682396411896,-0.0008207411738112569
1782811318629762300,1.86576220703125,-0.36256054043769836,0.09552320837974548,0.053874995559453964
1782811318639834400,1.87583447265625,-0.39620476961135864,0.05639774352312088,0.054311834275722504
1782811318649905400,1.885905517578125,-0.44017326831817627,0.008026217110455036,0.01885290816426277
1782811318659976400,1.8959765625,-0.4791381061077118,-0.012120814062654972,-0.026133788749575615
1782811318670048500,1.906048583984375,-0.5051172375679016,-0.013197796419262886,-0.06062864884734154
1782811318680119600,1.91611962890625,-0.5155467391014099,0.006674610078334808,-0.07112765312194824
1782811318690191600,1.926191650390625,-0.5020450353622437,0.048351746052503586,-0.03386950120329857
1782811318700262700,1.9362626953125,-0.4809618890285492,0.10450663417577744,0.047576889395713806
1782811318710334500,1.94633447265625,-0.46549105644226074,0.1470724642276764,0.1575971394777298
1782811318720405500,1.956405517578125,-0.46491894125938416,0.18170540034770966,0.26395443081855774
1782811318730476300,1.966476318359375,-0.4767811894416809,0.2108936458826065,0.34970903396606445
1782811318740548400,1.97654833984375,-0.5002368688583374,0.2509596049785614,0.40775614976882935
1782811318750619400,1.986619384765625,-0.5373229384422302,0.2928796112537384,0.42786434292793274
1782811318760691500,1.99669140625,-0.5811900496482849,0.314829021692276,0.4078504145145416
1782811318770762500,2.006762451171875,-0.632434070110321,0.3249186873435974,0.3546404540538788
1782811318780834600,2.01683447265625,-0.682270884513855,0.31556087732315063,0.27409741282463074
1782811318790905600,2.026905517578125,-0.706272304058075,0.26432695984840393,0.1826535314321518
1782811318800976600,2.0369765625,-0.7073458433151245,0.19399671256542206,0.08857226371765137
1782811318811048400,2.04704833984375,-0.6827121376991272,0.12281735241413116,0.006243043579161167
1782811318821119500,2.057119384765625,-0.6401647925376892,0.05418071150779724,-0.049930181354284286
1782811318831191600,2.067191650390625,-0.5834517478942871,-0.0009840079583227634,-0.06683885306119919
1782811318841262600,2.0772626953125,-0.5203312039375305,-0.027092356234788895,-0.04470962658524513
1782811318851334700,2.087334716796875,-0.47186195850372314,-0.02140410989522934,0.012181085534393787
1782811318861405400,2.097405517578125,-0.43997693061828613,0.02121376246213913,0.08548326790332794
1782811318871477200,2.107477294921875,-0.4154161810874939,0.0899459570646286,0.16648465394973755
1782811318881548300,2.11754833984375,-0.40104037523269653,0.13881704211235046,0.23248392343521118
1782811318891619300,2.127619384765625,-0.39992210268974304,0.15677154064178467,0.2643907070159912
1782811318901691400,2.13769140625,-0.3974543511867523,0.16886399686336517,0.25421056151390076
1782811318911762400,2.147762451171875,-0.39115890860557556,0.1795901358127594,0.2211841493844986
1782811318921834500,2.15783447265625,-0.36964547634124756,0.18624649941921234,0.17165277898311615
1782811318931905500,2.167905517578125,-0.3451918065547943,0.17208461463451385,0.11129410564899445
1782811318941977600,2.1779775390625,-0.32386675477027893,0.13901971280574799,0.06294171512126923
1782811318952048600,2.188048583984375,-0.2970274090766907,0.1099206805229187,0.027738990262150764
1782811318962119700,2.19811962890625,-0.2695443332195282,0.09721830487251282,0.009993843734264374
1782811318972191500,2.20819140625,-0.2523251175880432,0.07670716941356659,0.004861399531364441
1782811318982262300,2.21826220703125,-0.23653364181518555,0.04744382202625275,0.002171074040234089
1782811318992334300,2.228334228515625,-0.22412624955177307,0.009844514541327953,0.00825320091098547
1782811319002405400,2.2384052734375,-0.20895123481750488,-0.02732139080762863,0.019345274195075035
1782811319012477400,2.2484775390625,-0.18557560443878174,-0.05368402227759361,0.03116358444094658
1782811319022548500,2.258548583984375,-0.16095323860645294,-0.07596512883901596,0.05063604190945625
1782811319032619500,2.26861962890625,-0.13596080243587494,-0.0819559097290039,0.06333053112030029
1782811319042691600,2.278691650390625,-0.1234624907374382,-0.06677090376615524,0.07309424877166748
1782811319052762600,2.2887626953125,-0.11778542399406433,-0.019851062446832657,0.08125364035367966
1782811319062834400,2.29883447265625,-0.10940311849117279,0.05431345850229263,0.09787571430206299
1782811319072905500,2.308905517578125,-0.0931762158870697,0.1214301809668541,0.134001225233078
1782811319082977500,2.3189775390625,-0.06951131671667099,0.17515182495117188,0.18951858580112457
1782811319093048000,2.329048095703125,-0.048478737473487854,0.2221723347902298,0.25677403807640076
1782811319103119000,2.339119140625,-0.029831653460860252,0.25545257329940796,0.3239445686340332
1782811319113191200,2.349191162109375,-0.01633208990097046,0.26521944999694824,0.3648049235343933
1782811319123262200,2.35926220703125,0.0008356570033356547,0.2425643652677536,0.3837495744228363
1782811319133334300,2.369334228515625,0.013172218576073647,0.2110045701265335,0.37645092606544495
1782811319143405300,2.3794052734375,0.033789291977882385,0.17819592356681824,0.3562188744544983
1782811319153477000,2.38947705078125,0.05722644180059433,0.15901583433151245,0.33467337489128113
1782811319163548200,2.399548095703125,0.08943460136651993,0.1711532473564148,0.3280322849750519
1782811319173619200,2.409619140625,0.11165868490934372,0.23262938857078552,0.35189634561538696
1782811319183691300,2.419691162109375,0.12392179667949677,0.3103368282318115,0.3980313241481781
1782811319193762300,2.42976220703125,0.12834638357162476,0.338735431432724,0.43100178241729736
1782811319203834400,2.43983447265625,0.13094177842140198,0.28015339374542236,0.4401949942111969
1782811319213905200,2.4499052734375,0.14741502702236176,0.1542641818523407,0.425016313791275
1782811319223977200,2.459977294921875,0.16144350171089172,0.017664797604084015,0.3987031877040863
1782811319234048300,2.47004833984375,0.16215908527374268,-0.11141489446163177,0.35877281427383423
1782811319244119000,2.480119140625,0.16087086498737335,-0.20824994146823883,0.30036836862564087
1782811319254191000,2.490191162109375,0.15935607254505157,-0.28011080622673035,0.2341688573360443
1782811319264262100,2.50026220703125,0.15358462929725647,-0.3461771011352539,0.15495093166828156
1782811319274334200,2.510334228515625,0.15041279792785645,-0.4080279469490051,0.09759655594825745
1782811319284405200,2.5204052734375,0.14117556810379028,-0.4501691460609436,0.06342160701751709
1782811319294477300,2.530477294921875,0.1577444225549698,-0.48019760847091675,0.07719840109348297
1782811319304548400,2.54054833984375,0.2058650106191635,-0.46557459235191345,0.11289811134338379
1782811319314620200,2.5506201171875,0.2924651503562927,-0.4417558014392853,0.14902494847774506
1782811319324691200,2.560691162109375,0.38651353120803833,-0.40930354595184326,0.17627546191215515
1782811319334762000,2.570761962890625,0.47386789321899414,-0.37173032760620117,0.1958635449409485
1782811319344834300,2.580834228515625,0.5354700684547424,-0.31639307737350464,0.21730811893939972
1782811319354905000,2.590905029296875,0.5751935243606567,-0.2564120590686798,0.23428630828857422
1782811319364977200,2.60097705078125,0.6063959002494812,-0.2031571865081787,0.23673270642757416
1782811319375048200,2.611048095703125,0.6546227931976318,-0.14098568260669708,0.23150226473808289
1782811319385120300,2.621120361328125,0.7277776002883911,-0.07187793403863907,0.2163376808166504
1782811319395191300,2.63119140625,0.8094402551651001,-0.02111062966287136,0.18744903802871704
1782811319405262300,2.641262451171875,0.8886796832084656,-0.01197438221424818,0.15102790296077728
1782811319415334100,2.651334228515625,0.9515196084976196,-0.04256504774093628,0.10579783469438553
1782811319425405200,2.6614052734375,0.9954481720924377,-0.11433655768632889,0.06561849266290665
1782811319435477200,2.671477294921875,1.0359809398651123,-0.19466015696525574,0.033112477511167526
1782811319445548300,2.68154833984375,1.063467264175415,-0.2699139416217804,0.010382353328168392
1782811319455620400,2.691620361328125,1.0714905261993408,-0.3095417618751526,0.002810719655826688
1782811319465691400,2.70169140625,1.0552536249160767,-0.2911612391471863,0.009666224010288715
1782811319475762200,2.71176220703125,1.0213524103164673,-0.2345208376646042,0.026537615805864334
1782811319485834200,2.721834228515625,0.9747767448425293,-0.15894241631031036,0.04132937267422676
1782811319495905300,2.7319052734375,0.9267892837524414,-0.0743204802274704,0.05342544987797737
1782811319505977000,2.74197705078125,0.8800093531608582,0.00850528385490179,0.06169426068663597
1782811319516048100,2.752048095703125,0.8365755677223206,0.08144740015268326,0.06435742229223251
1782811319526120200,2.7621201171875,0.8019188046455383,0.15260252356529236,0.06819692254066467
1782811319536191200,2.772191162109375,0.7747971415519714,0.21386028826236725,0.07183080911636353
1782811319546262300,2.78226220703125,0.7470073699951172,0.2567427456378937,0.06945499777793884
1782811319556334300,2.792334228515625,0.7113096117973328,0.28210562467575073,0.06648823618888855
1782811319566405400,2.8024052734375,0.6629100441932678,0.3126860558986664,0.059583187103271484
1782811319576477200,2.812477294921875,0.6159569621086121,0.3143417239189148,0.03893516585230827
1782811319586548200,2.82254833984375,0.5624775886535645,0.2801968455314636,0.0054483357816934586
1782811319596620300,2.832620361328125,0.5172949433326721,0.2383519411087036,-0.031233245506882668
1782811319606691000,2.842691162109375,0.47850608825683594,0.20171307027339935,-0.07735920697450638
1782811319616762000,2.85276220703125,0.4544995427131653,0.16515479981899261,-0.12136581540107727
1782811319626834200,2.862834228515625,0.4361686110496521,0.115948885679245,-0.16758263111114502
1782811319636905200,2.8729052734375,0.4238831698894501,0.07435643672943115,-0.2040967047214508
1782811319646977300,2.882977294921875,0.41217899322509766,0.028488846495747566,-0.22800172865390778
1782811319657048300,2.89304833984375,0.3998136818408966,0.0006244577234610915,-0.23355229198932648
1782811319667120000,2.9031201171875,0.39178600907325745,0.0008607431082054973,-0.21644923090934753
1782811319677191200,2.913191162109375,0.39022567868232727,0.011591417714953423,-0.1891651451587677
1782811319687262200,2.92326220703125,0.38352009654045105,0.026474732905626297,-0.16230817139148712
1782811319697334300,2.933334228515625,0.3757822811603546,0.029424449428915977,-0.1316930055618286
1782811319707405300,2.9434052734375,0.35714900493621826,0.042073510587215424,-0.09888152778148651
1782811319717477400,2.953477294921875,0.33610814809799194,0.04576411843299866,-0.06753745675086975
1782811319727548200,2.963548095703125,0.3027626574039459,0.03817054629325867,-0.05253161862492561
1782811319737620200,2.9736201171875,0.27238771319389343,-0.005504765082150698,-0.05281045287847519
1782811319747691300,2.983691162109375,0.23718704283237457,-0.05994202196598053,-0.07121951878070831
1782811319757762300,2.99376220703125,0.195649191737175,-0.12406322360038757,-0.09459035843610764
1782811319767834000,3.003834228515625,0.1452103555202484,-0.19748236238956451,-0.1353151798248291
1782811319777905200,3.0139052734375,0.09641432017087936,-0.2782813310623169,-0.18434317409992218
1782811319787977200,3.023977294921875,0.053915657103061676,-0.3584948182106018,-0.23225773870944977
1782811319798048300,3.03404833984375,0.022263718768954277,-0.40650734305381775,-0.2560243010520935
1782811319808120300,3.044120361328125,-0.013891302049160004,-0.3799656629562378,-0.2434437870979309
1782811319818191400,3.05419140625,-0.05713384971022606,-0.2956140339374542,-0.20264177024364471
1782811319828262400,3.064262451171875,-0.13082462549209595,-0.1785130798816681,-0.16373589634895325
1782811319838334200,3.074334228515625,-0.24721035361289978,-0.08993660658597946,-0.17477230727672577
1782811319848405200,3.0844052734375,-0.3813287615776062,-0.07014186680316925,-0.22762194275856018
1782811319858477000,3.09447705078125,-0.5113333463668823,-0.06523578613996506,-0.30161601305007935
1782811319868548000,3.104548095703125,-0.6225144267082214,-0.06939245015382767,-0.3616412878036499
1782811319878620200,3.1146201171875,-0.6926773190498352,-0.07450997829437256,-0.4013788402080536
1782811319888691200,3.124691162109375,-0.7034022212028503,-0.06226898729801178,-0.40311625599861145
1782811319898762200,3.13476220703125,-0.6719921231269836,-0.02976590394973755,-0.36131155490875244
1782811319908834300,3.144834228515625,-0.6249930262565613,0.01984335668385029,-0.2754669487476349
1782811319918905300,3.1549052734375,-0.5825738906860352,0.05903443694114685,-0.1445384919643402
1782811319928977200,3.16497705078125,-0.5544834136962891,0.09491254389286041,0.015843989327549934
1782811319939048200,3.175048095703125,-0.5400519967079163,0.13492333889007568,0.1906924992799759
1782811319949120300,3.185120361328125,-0.5353715419769287,0.19502119719982147,0.35398900508880615
1782811319959191300,3.19519140625,-0.5529990196228027,0.2730283737182617,0.4772113561630249
1782811319969263400,3.205263427734375,-0.5802943110466003,0.3509446680545807,0.5447847247123718
1782811319979334100,3.215334228515625,-0.6145750284194946,0.38913625478744507,0.5594848394393921
1782811319989405200,3.2254052734375,-0.6478695869445801,0.3847748935222626,0.5281610488891602
1782811319999477200,3.235477294921875,-0.6724497675895691,0.3619436025619507,0.4751284718513489
1782811320009548300,3.24554833984375,-0.6768887639045715,0.3288215100765228,0.41814374923706055
1782811320019620000,3.2556201171875,-0.6721783876419067,0.2721981704235077,0.35254156589508057
1782811320029691100,3.265691162109375,-0.6561959981918335,0.207898810505867,0.30295270681381226
1782811320039762200,3.27576220703125,-0.6341303586959839,0.1528930813074112,0.27259504795074463
1782811320049834200,3.285834228515625,-0.6128141283988953,0.12119907885789871,0.2588757872581482
1782811320059905300,3.2959052734375,-0.6023106575012207,0.11193446815013885,0.2611282765865326
1782811320069977300,3.305977294921875,-0.6010835766792297,0.11774563044309616,0.2701044976711273
1782811320080048400,3.31604833984375,-0.6087568998336792,0.1347121000289917,0.28126341104507446
1782811320090120200,3.3261201171875,-0.6223020553588867,0.13217347860336304,0.273385226726532
1782811320100191200,3.336191162109375,-0.6343552470207214,0.11074461787939072,0.23924320936203003
1782811320110263000,3.346262939453125,-0.6384808421134949,0.10678119957447052,0.18836674094200134
1782811320120334000,3.356333984375,-0.6334400177001953,0.12128610163927078,0.1414535492658615
1782811320130405000,3.366405029296875,-0.6250006556510925,0.16107650101184845,0.09492412954568863
1782811320140477200,3.376477294921875,-0.6025297045707703,0.19844144582748413,0.06154033541679382
1782811320150548200,3.38654833984375,-0.5638680458068848,0.23601119220256805,0.049991805106401443
1782811320160620300,3.396620361328125,-0.5241725444793701,0.2714373767375946,0.05291861668229103
1782811320170691000,3.406691162109375,-0.48808881640434265,0.30330193042755127,0.07977070659399033
1782811320180762000,3.41676220703125,-0.47265979647636414,0.34119898080825806,0.12064756453037262
1782811320190834000,3.426833984375,-0.46934276819229126,0.3675934374332428,0.1520824432373047
1782811320200905000,3.436905029296875,-0.46424466371536255,0.3482098877429962,0.16311697661876678
1782811320210977000,3.44697705078125,-0.4520391821861267,0.2943970859050751,0.1511317640542984
1782811320221048000,3.457048095703125,-0.43198639154434204,0.22094152867794037,0.12420587986707687
1782811320231120100,3.4671201171875,-0.4045492708683014,0.12773922085762024,0.08434627950191498
1782811320241191200,3.477191162109375,-0.3707955777645111,0.02191612496972084,0.045899294316768646
1782811320251262200,3.48726220703125,-0.3354441523551941,-0.06932409852743149,0.011745336465537548
1782811320261334300,3.497334228515625,-0.2930184006690979,-0.1368677318096161,-0.015102789737284184
1782811320271405300,3.5074052734375,-0.24571461975574493,-0.18912342190742493,-0.02960236556828022
1782811320281477000,3.51747705078125,-0.20714299380779266,-0.21486793458461761,-0.033536918461322784
1782811320291548000,3.5275478515625,-0.17963430285453796,-0.21202346682548523,-0.01751721277832985
1782811320301620200,3.5376201171875,-0.1620398610830307,-0.19214163720607758,0.007545797619968653
1782811320311691000,3.54769091796875,-0.15406784415245056,-0.1804453432559967,0.03206072002649307
1782811320321762000,3.557761962890625,-0.1524323970079422,-0.17853772640228271,0.0521492101252079
1782811320331834000,3.567834228515625,-0.1522192358970642,-0.1704561561346054,0.07647772133350372
1782811320341905200,3.5779052734375,-0.17114660143852234,-0.1477777361869812,0.09909967333078384
1782811320351977200,3.587977294921875,-0.2042800486087799,-0.10507477074861526,0.12085270136594772
1782811320362048300,3.59804833984375,-0.23320703208446503,-0.0353231206536293,0.13388913869857788
1782811320372120000,3.6081201171875,-0.24262195825576782,0.03286478668451309,0.13853445649147034
1782811320382191000,3.618191162109375,-0.2341480404138565,0.08218200504779816,0.13407473266124725
1782811320392262100,3.62826220703125,-0.22402669489383698,0.10435549914836884,0.12252244353294373
1782811320402334200,3.638334228515625,-0.22385863959789276,0.16324704885482788,0.11472577601671219
1782811320412405000,3.648405029296875,-0.2240627408027649,0.2954258918762207,0.11872902512550354
1782811320422477300,3.658477294921875,-0.22701245546340942,0.3899146020412445,0.11527889966964722
1782811320432548000,3.668548095703125,-0.22721976041793823,0.3559047281742096,0.08074916899204254
1782811320442620200,3.6786201171875,-0.21678976714611053,0.21988032758235931,0.027891820296645164
1782811320452691200,3.688691162109375,-0.1985715627670288,0.060325682163238525,-0.03216436505317688
1782811320462762200,3.69876220703125,-0.17652404308319092,-0.07926363497972488,-0.08454634994268417
1782811320472834000,3.708833984375,-0.15182547271251678,-0.16634897887706757,-0.1321129947900772
1782811320482905000,3.718905029296875,-0.11655190587043762,-0.2276320457458496,-0.1631001979112625
1782811320492977200,3.72897705078125,-0.08019725233316422,-0.24681803584098816,-0.1889512687921524
1782811320503048200,3.739048095703125,-0.0455750897526741,-0.23520825803279877,-0.20289398729801178
1782811320513120300,3.749120361328125,-0.011261750012636185,-0.20167113840579987,-0.19923770427703857
1782811320523191300,3.75919140625,0.020564889535307884,-0.14205974340438843,-0.17587964236736298
1782811320533262000,3.769261962890625,0.054576121270656586,-0.069881372153759,-0.13421855866909027
1782811320543334100,3.779334228515625,0.0949520394206047,-0.0033894311636686325,-0.056820448487997055
1782811320553405000,3.789405029296875,0.13026103377342224,0.07702312618494034,0.04265261068940163
1782811320563477000,3.79947705078125,0.16094037890434265,0.17014853656291962,0.14190490543842316
1782811320573548000,3.809548095703125,0.19090338051319122,0.25647202134132385,0.21039003133773804
1782811320583620000,3.8196201171875,0.23001030087471008,0.3070920705795288,0.24598051607608795
1782811320593691100,3.829691162109375,0.2722361981868744,0.2951928675174713,0.23926983773708344
1782811320603762200,3.83976220703125,0.30958810448646545,0.2315712869167328,0.1959170252084732
1782811320613834200,3.849834228515625,0.33725595474243164,0.14184780418872833,0.12739254534244537
1782811320623905300,3.8599052734375,0.3635126054286957,0.03670860454440117,0.05101894587278366
1782811320633977000,3.86997705078125,0.40398430824279785,-0.07908239215612411,-0.024282725527882576
1782811320644048100,3.880048095703125,0.44866469502449036,-0.19992679357528687,-0.08735676854848862
1782811320654120200,3.8901201171875,0.48291006684303284,-0.31137916445732117,-0.13242754340171814
1782811320664191200,3.900191162109375,0.501614511013031,-0.3918937146663666,-0.15621623396873474
1782811320674262000,3.910261962890625,0.5060782432556152,-0.4192633032798767,-0.15941868722438812
1782811320684334000,3.920333984375,0.5037945508956909,-0.3926628530025482,-0.14402428269386292
1782811320694405000,3.930405029296875,0.4979884922504425,-0.32691890001296997,-0.11321768909692764
1782811320704477200,3.940477294921875,0.48562344908714294,-0.23569925129413605,-0.06965290009975433
1782811320714548200,3.95054833984375,0.4695226550102234,-0.12597377598285675,-0.030740629881620407
1782811320724620000,3.9606201171875,0.44379305839538574,-0.02430947683751583,-0.0016325447941198945
1782811320734691000,3.970691162109375,0.41241729259490967,0.06423424184322357,0.022221390157938004
1782811320744762000,3.98076220703125,0.3959328532218933,0.13886506855487823,0.04095859080553055
1782811320754834200,3.990834228515625,0.38843685388565063,0.19710707664489746,0.06351739913225174
1782811320764905200,4.0009052734375,0.38346046209335327,0.2317819744348526,0.08066416531801224
1782811320774977300,4.010977294921875,0.3680472671985626,0.2312103658914566,0.08111963421106339
1782811320785048300,4.02104833984375,0.35752272605895996,0.19109651446342468,0.05907106027007103
1782811320795120000,4.0311201171875,0.3621702194213867,0.1329631805419922,0.0316295325756073
1782811320805191200,4.041191162109375,0.3711434602737427,0.07676196843385696,-0.0012352061457931995
1782811320815262000,4.051261962890625,0.3816750943660736,0.03583773970603943,-0.023019835352897644
1782811320825334000,4.061333984375,0.3899135887622833,-0.001256368588656187,-0.04869643598794937
1782811320835405000,4.071405029296875,0.4016154706478119,-0.03651539236307144,-0.062097206711769104
1782811320845477000,4.08147705078125,0.40837350487709045,-0.055852338671684265,-0.0690523162484169
1782811320855548200,4.091548095703125,0.4086191952228546,-0.07868491113185883,-0.0673217698931694
1782811320865619200,4.101619140625,0.4044888913631439,-0.0986223965883255,-0.04779573529958725
1782811320875691300,4.111691162109375,0.3844335973262787,-0.09976401925086975,-0.020977482199668884
1782811320885762300,4.12176220703125,0.35482004284858704,-0.08899179846048355,-0.0018554513808339834
1782811320895834000,4.131834228515625,0.3147273361682892,-0.0942356288433075,-0.01082282792776823
1782811320905905200,4.1419052734375,0.2712368369102478,-0.13877886533737183,-0.047586169093847275
1782811320915977200,4.151977294921875,0.23032258450984955,-0.19957266747951508,-0.09868551790714264
1782811320926048000,4.162048095703125,0.19843202829360962,-0.26386645436286926,-0.1562391072511673
1782811320936119000,4.172119140625,0.16166545450687408,-0.3490831255912781,-0.20566505193710327
1782811320946191000,4.182191162109375,0.1171797439455986,-0.43462467193603516,-0.2478625774383545
1782811320956262100,4.19226220703125,0.05524936690926552,-0.49914729595184326,-0.2700980305671692
1782811320966334200,4.202334228515625,-0.007649970706552267,-0.5424215197563171,-0.28429722785949707
1782811320976405200,4.2124052734375,-0.07202070951461792,-0.5609283447265625,-0.28513407707214355
1782811320986477000,4.22247705078125,-0.13296954333782196,-0.5287235379219055,-0.28030362725257874
1782811320996548000,4.232548095703125,-0.17996235191822052,-0.45247215032577515,-0.26651668548583984
1782811321006619100,4.242619140625,-0.23009103536605835,-0.33793121576309204,-0.24141505360603333
1782811321016691200,4.252691162109375,-0.2954017221927643,-0.187977597117424,-0.21208512783050537
1782811321026762200,4.26276220703125,-0.3928835391998291,-0.0591631643474102,-0.2176540642976761
1782811321036834300,4.272834228515625,-0.5304093360900879,0.034209076315164566,-0.2755381464958191
1782811321046905000,4.282905029296875,-0.6834127306938171,0.08124423027038574,-0.37745437026023865
1782811321056977200,4.29297705078125,-0.8318650722503662,0.1022961363196373,-0.4947647750377655
1782811321067048200,4.303048095703125,-0.937309205532074,0.10992023348808289,-0.577552318572998
1782811321077119200,4.313119140625,-0.9702951312065125,0.1329485923051834,-0.6017943024635315
1782811321087191000,4.32319091796875,-0.9121221303939819,0.17266911268234253,-0.55713951587677
1782811321097263600,4.333263671875,-0.7743993997573853,0.20508228242397308,-0.4424610733985901
1782811321107335700,4.343335693359375,-0.5877853035926819,0.2083720862865448,-0.26887890696525574
1782811321117406700,4.35340673828125,-0.38125044107437134,0.1805787980556488,-0.069447822868824
1782811321127477800,4.363477783203125,-0.2088853418827057,0.11986646056175232,0.12708280980587006
1782811321137549600,4.373549560546875,-0.0977325588464737,0.04134133830666542,0.2948529124259949
1782811321147620600,4.38362060546875,-0.052383460104465485,-0.03293262794613838,0.42168596386909485
1782811321157692700,4.393692626953125,-0.05503346398472786,-0.08389998227357864,0.49678441882133484
1782811321167763700,4.403763671875,-0.08714612573385239,-0.07469529658555984,0.5131503343582153
1782811321177835800,4.413835693359375,-0.13097015023231506,-0.02271781861782074,0.4702923893928528
1782811321187906800,4.42390673828125,-0.16544076800346375,0.013859632425010204,0.3759158253669739
1782811321197977600,4.4339775390625,-0.1955556869506836,0.021193142980337143,0.27663367986679077
1782811321208049400,4.44404931640625,-0.21821120381355286,0.0029885731637477875,0.20108060538768768
1782811321218120400,4.454120361328125,-0.24137654900550842,-0.03744424879550934,0.16186417639255524
1782811321228192500,4.464192626953125,-0.25761011242866516,-0.09486227482557297,0.15728327631950378
1782811321238263600,4.474263671875,-0.2733962833881378,-0.12959471344947815,0.16422508656978607
1782811321248335600,4.484335693359375,-0.28494879603385925,-0.12725086510181427,0.1827194094657898
1782811321258406700,4.49440673828125,-0.302613765001297,-0.08064863085746765,0.19418646395206451
1782811321268477700,4.504477783203125,-0.3248745799064636,-0.020063847303390503,0.19476570188999176
1782811321278549800,4.5145498046875,-0.3494039475917816,0.03266024962067604,0.18515513837337494
1782811321288620800,4.524620849609375,-0.3746890723705292,0.09635454416275024,0.17091389000415802
1782811321298692600,4.534692626953125,-0.3965917229652405,0.17669756710529327,0.1584617793560028
1782811321308763600,4.544763671875,-0.40149885416030884,0.26263272762298584,0.15211492776870728
1782811321318835700,4.554835693359375,-0.399202823638916,0.32597434520721436,0.14391905069351196
1782811321328906500,4.564906494140625,-0.38415250182151794,0.3474130630493164,0.1389557123184204
1782811321338977500,4.5749775390625,-0.3472532331943512,0.3398347496986389,0.13410684466362
1782811321349049600,4.585049560546875,-0.2804928421974182,0.32358574867248535,0.14798350632190704
1782811321359120600,4.59512060546875,-0.20575480163097382,0.29472213983535767,0.1650320589542389
1782811321369192700,4.605192626953125,-0.13964742422103882,0.250195175409317,0.18789449334144592
1782811321379263700,4.615263671875,-0.0846296027302742,0.2199784219264984,0.2179255485534668
1782811321389334800,4.625334716796875,-0.0419045127928257,0.19170363247394562,0.24071501195430756
1782811321399406600,4.635406494140625,-0.023052841424942017,0.14791949093341827,0.25034433603286743
1782811321409477600,4.6454775390625,-0.01263135951012373,0.10370488464832306,0.23913614451885223
1782811321419549700,4.6555498046875,-0.005659150425344706,0.0737292617559433,0.2166217565536499
1782811321429620700,4.665620849609375,-0.01042327843606472,0.05463439226150513,0.1768820732831955
1782811321439692800,4.67569287109375,-0.01483006589114666,0.0276535265147686,0.1274314522743225
1782811321449763600,4.685763671875,-0.02451438456773758,-0.007501531857997179,0.08417878299951553
1782811321459834600,4.695834716796875,-0.037748537957668304,-0.034473683685064316,0.05108710378408432
1782811321469906700,4.70590673828125,-0.038718193769454956,-0.050893135368824005,0.03734412416815758
1782811321479977700,4.715977783203125,-0.0371832549571991,-0.05106221139431,0.043553583323955536
1782811321490049500,4.726049560546875,-0.037952642887830734,-0.03676396608352661,0.05856076255440712
1782811321500120600,4.73612060546875,-0.03824303299188614,-0.015085783787071705,0.06216615438461304
1782811321510192600,4.746192626953125,-0.032803524285554886,0.0007059630006551743,0.06075654178857803
1782811321520263700,4.756263671875,-0.023569228127598763,0.00008877401705831289,0.05034487321972847
1782811321530334700,4.766334716796875,-0.019432807341217995,-0.02841051109135151,0.0340748205780983
1782811321540406800,4.77640673828125,-0.024402957409620285,-0.06968475133180618,0.017812196165323257
1782811321550477800,4.786477783203125,-0.03393068164587021,-0.10682971775531769,0.00430784048512578
1782811321560549600,4.796549560546875,-0.04817188158631325,-0.14064353704452515,-0.008506962098181248
1782811321570620400,4.806620361328125,-0.05752543732523918,-0.1653400957584381,-0.01626315340399742
1782811321580691500,4.81669140625,-0.0555758960545063,-0.18333779275417328,-0.020328473299741745
1782811321590763500,4.826763427734375,-0.05503340810537338,-0.19054856896400452,-0.02030743472278118
1782811321600834600,4.83683447265625,-0.05725688114762306,-0.1613890826702118,-0.02227923832833767
1782811321610906600,4.84690673828125,-0.06776470690965652,-0.06922084838151932,-0.0195623729377985
1782811321620977700,4.856977783203125,-0.08023996651172638,0.05290915071964264,-0.02710842899978161
1782811321631049700,4.8670498046875,-0.09396856278181076,0.11981388181447983,-0.07180160284042358
1782811321641120800,4.877120849609375,-0.11168172210454941,0.10569334775209427,-0.1418786495923996
1782811321651191800,4.88719189453125,-0.12021315842866898,0.013807899318635464,-0.22297190129756927
1782811321661263600,4.897263671875,-0.12037119269371033,-0.10440901666879654,-0.29128003120422363
1782811321671334700,4.907334716796875,-0.11666060984134674,-0.21566177904605865,-0.3325233459472656
1782811321681406700,4.91740673828125,-0.11668548732995987,-0.2875438630580902,-0.35450276732444763
1782811321691477500,4.9274775390625,-0.12064719945192337,-0.31442874670028687,-0.36729979515075684
1782811321701548500,4.937548583984375,-0.11434536427259445,-0.3163682520389557,-0.37449440360069275
1782811321711620600,4.94762060546875,-0.09592534601688385,-0.28078627586364746,-0.36019963026046753
1782811321721691600,4.957691650390625,-0.07289688289165497,-0.2203134447336197,-0.32462078332901
1782811321731763700,4.967763671875,-0.04513582959771156,-0.15879122912883759,-0.2622077465057373
1782811321741834800,4.977834716796875,-0.013323835097253323,-0.1018557995557785,-0.18166254460811615
1782811321751906600,4.987906494140625,0.030559733510017395,-0.03238191455602646,-0.08291998505592346
1782811321761977600,4.9979775390625,0.08564881980419159,0.05288103222846985,0.026536758989095688
1782811321772048600,5.008048583984375,0.14519549906253815,0.14301837980747223,0.12719252705574036
1782811321782120700,5.01812060546875,0.1980317085981369,0.22047008574008942,0.20042893290519714
1782811321792191700,5.028191650390625,0.24148064851760864,0.247736856341362,0.22281812131404877
1782811321802263800,5.038263916015625,0.29197630286216736,0.20380593836307526,0.1973118931055069
1782811321812334600,5.04833447265625,0.35798996686935425,0.12812583148479462,0.14867378771305084
1782811321822406700,5.05840673828125,0.4355064928531647,0.03183259069919586,0.0876656174659729
1782811321832477700,5.068477783203125,0.5102225542068481,-0.09602896869182587,0.035629842430353165
1782811321842548700,5.078548828125,0.5779367089271545,-0.23186062276363373,0.0031951982527971268
1782811321852620500,5.08862060546875,0.6323578953742981,-0.3639446198940277,-0.0028464491479098797
1782811321862691600,5.098691650390625,0.6683187484741211,-0.4524052143096924,0.018919244408607483
1782811321872763600,5.108763671875,0.6864767074584961,-0.4883280396461487,0.05586554482579231
1782811321882834700,5.118834716796875,0.6819925308227539,-0.4765308201313019,0.0911191925406456
1782811321892905700,5.12890576171875,0.6719021201133728,-0.43583106994628906,0.10846010595560074
1782811321902977800,5.138977783203125,0.666236937046051,-0.3874340057373047,0.10476090759038925
1782811321913048800,5.149048828125,0.6529808044433594,-0.34597793221473694,0.09138358384370804
1782811321923120600,5.15912060546875,0.6286103129386902,-0.3180166482925415,0.07875300198793411
1782811321933191400,5.16919140625,0.6008130311965942,-0.30082061886787415,0.06435888260602951
1782811321943263500,5.179263427734375,0.5660931468009949,-0.27996137738227844,0.051013581454753876
1782811321953334500,5.18933447265625,0.5317929983139038,-0.24051594734191895,0.04163951799273491
1782811321963405600,5.199405517578125,0.4907338321208954,-0.18794943392276764,0.02785256877541542
1782811321973477600,5.2094775390625,0.4532322585582733,-0.12415554374456406,0.0043451134115457535
1782811321983548700,5.219548583984375,0.41547757387161255,-0.05676228925585747,-0.026875706389546394
1782811321993620700,5.229620849609375,0.37846362590789795,-0.008200878277420998,-0.047408945858478546
1782811322003691800,5.23969189453125,0.35747241973876953,0.004037994891405106,-0.05061399191617966
1782811322013762800,5.2497626953125,0.3439837694168091,0.001509323250502348,-0.04775349050760269
1782811322023834600,5.259834716796875,0.33846524357795715,-0.025637924671173096,-0.045681290328502655
1782811322033905700,5.26990576171875,0.33005258440971375,-0.07493410259485245,-0.04107029363512993
1782811322043977700,5.279977783203125,0.32134830951690674,-0.10847155749797821,-0.04305700957775116
1782811322054048500,5.290048583984375,0.3087497055530548,-0.12506704032421112,-0.056514229625463486
1782811322064120600,5.30012060546875,0.2816334664821625,-0.13642077147960663,-0.0796230286359787
1782811322074191600,5.310191650390625,0.24349220097064972,-0.14617140591144562,-0.10663813352584839
1782811322084260600,5.320260498046875,0.21082931756973267,-0.15080824494361877,-0.14068584144115448
1782811322094331600,5.33033154296875,0.18745644390583038,-0.1615264117717743,-0.1779344528913498
1782811322104401200,5.340401123046875,0.16695618629455566,-0.16548699140548706,-0.21033596992492676
1782811322114473200,5.35047314453125,0.146977961063385,-0.18252137303352356,-0.22661800682544708
1782811322124544300,5.360544189453125,0.11602302640676498,-0.22385351359844208,-0.21539545059204102
1782811322134616000,5.370615966796875,0.06781741231679916,-0.2475641667842865,-0.17918658256530762
1782811322144687000,5.38068701171875,0.01444169133901596,-0.23059330880641937,-0.13538753986358643
1782811322154759200,5.39075927734375,-0.041309989988803864,-0.20974315702915192,-0.09527581930160522
1782811322164830000,5.400829833984375,-0.09851175546646118,-0.2056884914636612,-0.07048604637384415
1782811322174901000,5.41090087890625,-0.15476037561893463,-0.20882196724414825,-0.06927910447120667
1782811322184973000,5.42097314453125,-0.20463240146636963,-0.2289486527442932,-0.09256336838006973
1782811322195044000,5.431044189453125,-0.23981435596942902,-0.25616374611854553,-0.11872918903827667
1782811322205116200,5.4411162109375,-0.26814040541648865,-0.252549409866333,-0.1389971375465393
1782811322215187200,5.451187255859375,-0.30762654542922974,-0.22171133756637573,-0.14167973399162292
1782811322225258000,5.461258056640625,-0.3714400827884674,-0.20617559552192688,-0.1590203493833542
1782811322235330000,5.471330078125,-0.4742642045021057,-0.1987544298171997,-0.20587334036827087
1782811322245401000,5.481401123046875,-0.6131675839424133,-0.17208468914031982,-0.29400959610939026
1782811322255473200,5.49147314453125,-0.7606185674667358,-0.11075448244810104,-0.38582178950309753
1782811322265544200,5.501544189453125,-0.8769788146018982,-0.03706423565745354,-0.45392414927482605
1782811322275616300,5.5116162109375,-0.9255202412605286,-0.007070918567478657,-0.4617117643356323
1782811322285687000,5.52168701171875,-0.8943274021148682,-0.023997563868761063,-0.4066312313079834
1782811322295758000,5.531758056640625,-0.806547999382019,-0.08924607187509537,-0.29836148023605347
1782811322305830000,5.541829833984375,-0.6845999956130981,-0.17507758736610413,-0.16155469417572021
1782811322315901000,5.55190087890625,-0.5470035076141357,-0.26559174060821533,-0.013179881498217583
1782811322325973000,5.561972900390625,-0.4491525888442993,-0.3055610656738281,0.11782985925674438
1782811322336044000,5.5720439453125,-0.4414246380329132,-0.2530251741409302,0.20144912600517273
1782811322346115000,5.582114990234375,-0.513630211353302,-0.14366985857486725,0.22871483862400055
1782811322356187100,5.592187255859375,-0.6223452687263489,0.00836388673633337,0.21553298830986023
1782811322366258200,5.602258056640625,-0.73725426197052,0.18734854459762573,0.17888548970222473
1782811322376330200,5.612330322265625,-0.8308630585670471,0.3706970512866974,0.14064836502075195
1782811322386401300,5.6224013671875,-0.8893307447433472,0.5173208117485046,0.09605824947357178
1782811322396472000,5.63247216796875,-0.9269612431526184,0.5813586711883545,0.03774700686335564
1782811322406544000,5.6425439453125,-0.9306142926216125,0.557628333568573,-0.013768943026661873
1782811322416615000,5.652614990234375,-0.9136531352996826,0.5077465176582336,-0.03765936195850372
1782811322426687000,5.66268701171875,-0.9014779925346375,0.473306804895401,-0.05184737965464592
1782811322436758000,5.672758056640625,-0.9163655638694763,0.4572167992591858,-0.08180661499500275
1782811322446830000,5.682830078125,-0.9330863356590271,0.5155887603759766,-0.10420429706573486
1782811322456901000,5.692901123046875,-0.9384286403656006,0.6414526700973511,-0.1126965805888176
1782811322466972200,5.70297216796875,-0.909275233745575,0.7935461401939392,-0.13199138641357422
1782811322477046000,5.7130458984375,-0.872820258140564,1.0309123992919922,-0.02891186997294426
1782811322487117000,5.723116943359375,-0.8688642382621765,1.017305850982666,0.07016991823911667
1782811322497188000,5.73318798828125,-0.8300268650054932,0.8772072792053223,0.21752528846263885
1782811322507260200,5.74326025390625,-0.7477829456329346,0.638222336769104,0.34402167797088623
1782811322517331200,5.753331298828125,-0.6631132960319519,0.3006514608860016,0.4034818112850189
1782811322527403000,5.763403076171875,-0.5977782607078552,0.0595889650285244,0.38641202449798584
1782811322537474000,5.77347412109375,-0.4942774474620819,-0.09128496795892715,0.29135528206825256
1782811322547546000,5.783546142578125,-0.3786478340625763,-0.17432497441768646,0.17591680586338043
1782811322557617200,5.7936171875,-0.24116158485412598,-0.16685667634010315,0.09926729649305344
1782811322567688000,5.80368798828125,-0.08693046867847443,-0.06974771618843079,0.10218136012554169
1782811322577760000,5.813760009765625,0.02021303027868271,-0.0870169848203659,0.15717005729675293
