time,seconds_elapsed,z,y,x
1782661170137573600,0.06957373046875,0.06927519627809524,-0.44405287709273394,-0.3207318370461464
1782661170147644700,0.079644775390625,0.44159225913286204,-0.4266138857096433,-0.17185148139446974
1782661170157715700,0.0897158203125,0.6791285110980272,-0.4704232898849994,-0.045995808303728694
1782661170167786800,0.099786865234375,0.7054524544000625,-0.5270547662325203,0.005955035946890712
1782661170177857500,0.109857421875,0.5008002349048852,-0.5318933653701097,-0.061083341189846395
1782661170187928600,0.119928466796875,0.28755320554375646,-0.5072414469335228,-0.10596614675037562
1782661170197999600,0.12999951171875,0.18171558054387568,-0.4710098576012999,-0.09199015530273318
1782661170208070700,0.140070556640625,0.13176117080748082,-0.38920324266068634,-0.03690868487618863
1782661170218141700,0.1501416015625,0.07124678861200809,-0.33302783951759335,-0.006474091384932398
1782661170228212700,0.160212646484375,-0.08907879790067673,-0.3107788905695081,-0.022103329932317138
1782661170238283500,0.170283447265625,-0.22609540501832961,-0.36336335654854773,-0.09301452991440892
1782661170248354600,0.1803544921875,-0.17011457459926604,-0.49129832013137636,-0.17493023125268517
1782661170258424800,0.1904248046875,0.0030921207964420315,-0.606542875097692,-0.25624891654588283
1782661170268496000,0.200495849609375,0.14193652786314487,-0.5582754686001687,-0.2387484772991389
1782661170278567000,0.21056689453125,0.2556318806260824,-0.4005976201172918,-0.09071925858408213
1782661170288637700,0.2206376953125,0.38938334846794603,-0.20713724124394356,0.1438121855419129
1782661170298708700,0.230708740234375,0.3873421980291605,-0.016269655342772603,0.35879663315489885
1782661170308779800,0.24077978515625,0.29288755230903624,0.08104732100591062,0.4734401534881443
1782661170318850800,0.250850830078125,0.2765279536604881,0.17386457478255032,0.5084154591489582
1782661170328921900,0.260921875,0.199460496070981,0.30828495486192403,0.6456809264611453
1782661170338993000,0.270992919921875,-0.03357318377792835,0.45580271692350505,0.7875006960768253
1782661170349063700,0.281063720703125,-0.14623860897123814,0.6163084823086857,0.8895345448795705
1782661170359134700,0.291134765625,-0.15571487784683705,0.7484723156329244,0.9653373162955046
1782661170369205800,0.301205810546875,-0.1495516790419817,0.810653315866366,0.9357089246205985
1782661170379276800,0.31127685546875,-0.21211714854836464,0.8014582020197063,0.8035047592859714
1782661170389347800,0.321347900390625,-0.3179851686865091,0.7038320135913789,0.5351541207317263
1782661170399417600,0.33141748046875,-0.37908115016222,0.5475002459552138,0.2298669594462961
1782661170409488600,0.341488525390625,-0.2818395040720701,0.34301308082863685,-0.06481712089069187
1782661170419559700,0.3515595703125,-0.1159890166580677,0.16513232920728624,-0.2977230827067047
1782661170429630700,0.361630615234375,0.03874503345787525,0.0024715777453035116,-0.45901824490390714
1782661170439701800,0.37170166015625,0.18167700209915638,-0.14778138143382966,-0.6264502293556928
1782661170449772800,0.381772705078125,0.2990793926864862,-0.26402020813450217,-0.6412118912883102
1782661170459843600,0.391843505859375,0.20114567267894742,-0.25770254942029713,-0.5921082531623542
1782661170469914600,0.40191455078125,0.08302665825486183,-0.17866050382219253,-0.4297413700804114
1782661170479985700,0.411985595703125,0.025723639321327207,-0.10349741854928433,-0.20691651116535068
1782661170490056700,0.422056640625,0.07521335415542126,-0.007949789960682392,-0.018338351375609636
1782661170500127700,0.432127685546875,0.20147534302473066,0.032703049879893656,0.1417267575699836
1782661170510198800,0.44219873046875,0.3158411423951387,0.03547843287736177,0.22488054933585225
1782661170520269600,0.45226953125,0.3922989436537027,-0.04967325470745563,0.25533771998509763
1782661170530340600,0.462340576171875,0.35039515390396114,-0.16741196457706392,0.24690058489888905
1782661170540410600,0.47241064453125,0.2699070742160082,-0.32265703295506537,0.11581044522076844
1782661170550481400,0.4824814453125,0.19642624294161795,-0.4728319584619254,-0.05848455686829984
1782661170560552400,0.492552490234375,0.1688099217414856,-0.5262654424857348,-0.11726911959648131
1782661170570623500,0.50262353515625,0.2048544640690088,-0.5067825972501189,-0.0958005073711276
1782661170580694500,0.512694580078125,0.18612988985478876,-0.5072004573360085,-0.05779562475606799
1782661170590765600,0.522765625,-0.052980479559302324,-0.5430951428640634,-0.022567513377964494
1782661170600836600,0.532836669921875,-0.4179197071224451,-0.501595842261985,-0.001400222186744213
1782661170610907400,0.542907470703125,-0.6731956139177083,-0.3931359059344977,0.031943098358064886
1782661170620978400,0.552978515625,-0.7758528553158044,-0.3555725565418601,0.02372998128607869
1782661170631049500,0.563049560546875,-0.7030179207295179,-0.31583734300285576,-0.01824219752475619
1782661170641120500,0.57312060546875,-0.4657382738739252,-0.25941052238196133,-0.022649200312048194
1782661170651191600,0.583191650390625,-0.15236732098460196,-0.2502440501078963,-0.059563218950480216
1782661170661262600,0.5932626953125,0.15272504838109016,-0.23977701662927864,-0.0256641642190516
1782661170671333400,0.60333349609375,0.46422494670152664,-0.25157091479748483,-0.061253802385926245
1782661170681403400,0.6134033203125,0.7341665077090263,-0.2825293860323727,-0.15107596599981188
1782661170691474400,0.623474365234375,0.8072282367885112,-0.2693371653735637,-0.24389585012495515
1782661170701545500,0.63354541015625,0.7445704128235578,-0.18027488021627067,-0.28000556664317844
1782661170711616500,0.643616455078125,0.5242442388564348,-0.08972060293555259,-0.2701454130165279
1782661170721687300,0.653687255859375,0.24502456189393995,0.0845785638719797,-0.23958076340481638
1782661170731758300,0.66375830078125,-0.004851531684398651,0.2420652736969292,-0.2077902252599597
1782661170741829400,0.673829345703125,-0.13163666764497756,0.3777284203790128,-0.14687150004729627
1782661170751900400,0.683900390625,-0.11385726532638073,0.4843322074458003,-0.08519874159693717
1782661170761971500,0.693971435546875,-0.011067921981215477,0.505250492312014,-0.013019202179461717
1782661170772042500,0.70404248046875,0.06342705477178097,0.48756315219104285,0.04654007124826312
1782661170782113300,0.71411328125,0.11983750877976417,0.4551724561959505,0.10165230213925242
1782661170792184300,0.724184326171875,0.14194938734471796,0.40732729369848963,0.15322043068259952
1782661170802255400,0.73425537109375,0.09171440710127353,0.37117490708231926,0.19201091071739793
1782661170812326400,0.744326416015625,-0.0015928221493959427,0.32548078513890505,0.18406448175758122
1782661170822396400,0.754396484375,-0.0067465516507625575,0.257339999718219,0.18899550841897725
1782661170832467200,0.76446728515625,0.022151041531562804,0.16867343588024378,0.20492986739277838
1782661170842538200,0.774538330078125,0.05564356128871441,0.0881483851827681,0.19892609693333504
1782661170852609300,0.784609375,0.16558336091041564,0.08897446074336766,0.22471651788055896
1782661170862680300,0.794680419921875,0.26197686573863027,0.12196984463334083,0.31255422967895863
1782661170872751400,0.80475146484375,0.19089140516817568,0.16497911140695212,0.4007582905717194
1782661170882822400,0.814822509765625,0.017006079858541488,0.21885741658881305,0.3338265886798501
1782661170892893400,0.8248935546875,0.043544542694091797,0.16568828258961438,0.20185542838349937
1782661170902964500,0.834964599609375,0.17422317896187303,0.023759791902452705,0.10966945824772119
1782661170913035500,0.845035400390625,0.21432897937893866,-0.1279252459064126,0.03494651795774698
1782661170923106300,0.855106201171875,0.14831190811395645,-0.1841318479053676,-0.029508126296103
1782661170933177300,0.86517724609375,0.10022212320566176,-0.14639277661964298,-0.019140023147314784
1782661170943248400,0.875248291015625,0.19537234997451305,-0.05057911750599742,0.1553494055353105
1782661170953319400,0.8853193359375,0.30462182924449444,0.035262013647705315,0.33623248077780005
1782661170963390500,0.895390380859375,0.37031682894825935,0.06615823330134153,0.4571517934449017
1782661170973460500,0.90546044921875,0.3872638720959425,0.009706716630607843,0.4830816228628158
1782661170983531500,0.915531494140625,0.37052141160964963,-0.10714096268340945,0.4209475305110216
1782661170993602600,0.9256025390625,0.28533202236294747,-0.28713987550251185,0.2809842024169862
1782661171003673300,0.93567333984375,0.004372223734855652,-0.4188683861494064,0.13710706188008187
1782661171013744400,0.945744384765625,-0.43734570760428904,-0.39859862831979986,0.028520284302532672
1782661171023815400,0.9558154296875,-0.7546230202823877,-0.2879718693472445,-0.012202186708152294
1782661171033886500,0.965886474609375,-0.9210866711586714,-0.16961166657842694,-0.06520034805461764
1782661171043957500,0.97595751953125,-0.8666191679120063,-0.07227006724514067,-0.08508461369797587
1782661171054028500,0.986028564453125,-0.6125999831795692,0.013293635206669568,-0.05209858215823769
1782661171064099300,0.996099365234375,-0.2651186708956957,0.16256591278538107,0.0202472537368536
1782661171074170400,1.00617041015625,0.02675181332528591,0.2972909018345177,0.06398834191635251
1782661171084241400,1.016241455078125,0.31021511920690537,0.3215364314273,0.03442264021411538
1782661171094312400,1.0263125,0.45947979800105093,0.25195370356999336,-0.07710077533721924
1782661171104383500,1.036383544921875,0.5042980138927697,0.19397307763583957,-0.3081668083749711
1782661171114454500,1.04645458984375,0.40725452072322366,0.15909429115206003,-0.4566673709288239
1782661171124525300,1.056525390625,0.33870179350078106,0.0845643892161548,-0.5577573630101978
1782661171134595300,1.06659521484375,0.23909575636684893,-0.04202113251909614,-0.5450644701756536
1782661171144666400,1.076666259765625,0.1983586723089218,-0.12174041979163884,-0.5224819053590297
1782661171154737400,1.0867373046875,0.23512626821398733,-0.16703202534876763,-0.4991790634438395
1782661171164808400,1.096808349609375,0.417906847640872,-0.15230930718705057,-0.3842440858833492
1782661171174879200,1.106879150390625,0.5587251851290465,-0.06282455883398652,-0.22428762494400142
1782661171184950300,1.1169501953125,0.5667150148391723,-0.05184431513622403,-0.07835267509445548
1782661171195021300,1.127021240234375,0.45527825465798377,-0.09607581718116998,-0.05885463228970766
1782661171205092400,1.13709228515625,0.26910978635847566,-0.10723470538146793,-0.1161361700437963
1782661171215163400,1.147163330078125,0.12024199792742729,-0.15336984909065066,-0.2187178619876504
1782661171225234400,1.157234375,0.06689677670896053,-0.1545286637369543,-0.2737393458552658
1782661171235305200,1.16730517578125,0.11733458604812622,-0.12592523119561375,-0.24956848893389105
1782661171245376300,1.177376220703125,0.20973697541356084,-0.14818791640810666,-0.18494199524447322
1782661171255447300,1.187447265625,0.31834523417055605,-0.20032675751149653,-0.11784253557026386
1782661171265518300,1.197518310546875,0.3649894964456558,-0.2918059676174074,-0.0946143663264811
1782661171275589400,1.20758935546875,0.26744740610420703,-0.40708004093915223,-0.09591332009583711
1782661171285659400,1.217659423828125,0.024974866780638694,-0.4594297483142465,-0.13301511639133096
1782661171295730400,1.22773046875,-0.28318448894023895,-0.4355612353403121,-0.09839768425747751
1782661171305801500,1.237801513671875,-0.5712018048644065,-0.4205309125341475,0.024346505749225616
1782661171315872500,1.24787255859375,-0.6402320864707232,-0.44337724285349245,0.22001783867031335
1782661171325943600,1.257943603515625,-0.5014993230849504,-0.40694947336204346,0.48796004255414005
1782661171336014600,1.2680146484375,-0.26577333541214465,-0.337659298710525,0.72430299308151
1782661171346085400,1.27808544921875,0.0254974293500185,-0.32580914031043645,0.8340801494874059
1782661171356156400,1.288156494140625,0.30869945394694803,-0.3624067864760756,0.862577345175296
1782661171366227500,1.2982275390625,0.5104974530547857,-0.4202896511241793,0.8807353715479374
1782661171376298500,1.308298583984375,0.5159691624641418,-0.5261367746047675,0.9321567850969731
1782661171386369500,1.31836962890625,0.41710955978333947,-0.6615321371961385,0.8501616618469356
1782661171396440600,1.328440673828125,0.6315946065068244,-0.8072925341963767,0.7393691909186542
1782661171406511400,1.338511474609375,0.9413754259496927,-0.878756326559931,0.707475923051685
1782661171416582400,1.34858251953125,1.0757973403990269,-0.9129094291176646,0.7986053698718547
1782661171426652400,1.35865234375,1.0404670838207006,-0.9068965985689311,0.9417292078234255
1782661171436723500,1.368723388671875,0.9615881928950547,-0.8372383943226188,1.0525278162315488
1782661171446794500,1.37879443359375,0.8025643366307019,-0.8437007952697575,1.042932012629509
1782661171456865300,1.388865234375,0.5520253952294588,-0.9272204246733337,1.0213429888948797
1782661171466936300,1.398936279296875,0.21570611295104025,-1.0367013015463948,0.958954337260127
1782661171477007400,1.40900732421875,-0.08903905041217804,-1.1297837821304797,0.9096962392248212
1782661171487078400,1.419078369140625,-0.3449503325015306,-1.2440626338697969,0.906347221057862
1782661171497149400,1.4291494140625,-0.6933177799701691,-1.3101533548928797,0.8892845887064933
1782661171507220500,1.439220458984375,-1.0107844777405262,-1.349789491971582,0.8416530689597129
1782661171517291300,1.449291259765625,-1.1907178510427474,-1.3642122773386538,0.8131061889111996
1782661171527362300,1.4593623046875,-1.1883867777466772,-1.3109011045202612,0.8357726326189935
1782661171537433300,1.469433349609375,-1.053446976903081,-1.2497650832951068,0.9522845041073859
1782661171547505000,1.4795048828125,-0.8873357927262783,-1.2108418437261135,1.1092436829268932
1782661171557576000,1.489575927734375,-0.715365945649147,-1.205334332351014,1.1961254091747104
1782661171567646000,1.49964599609375,-0.6655605889946222,-1.2501403463482856,1.1662588248297572
1782661171577717000,1.509717041015625,-0.7321838094592094,-1.2494313212960957,1.1092597572788596
1782661171587788000,1.5197880859375,-0.783781894749403,-1.340016870497912,1.004525709606707
1782661171597858800,1.52985888671875,-0.7796955022186041,-1.3908276048026977,0.9525824641406535
1782661171607929900,1.539929931640625,-0.7560439929962158,-1.436971954731643,0.8971838175237178
1782661171618001000,1.5500009765625,-0.7709861260622739,-1.4773279305174947,0.8290782495468855
1782661171628072000,1.560072021484375,-0.7267997783333062,-1.4813950338259338,0.7910264590501784
1782661171638143000,1.57014306640625,-0.7095867777258157,-1.5017022010564802,0.7511756563074886
1782661171648214000,1.580214111328125,-0.8253174357086419,-1.5190841284900902,0.6457770072467625
1782661171658284800,1.590284912109375,-0.9637105918765068,-1.489128112296015,0.5488632779367267
1782661171668355800,1.60035595703125,-1.0645113917529583,-1.397885560490191,0.4728624266654253
1782661171678427000,1.610427001953125,-1.0668757827967406,-1.298966190446168,0.4116680993817746
1782661171688498000,1.620497802734375,-0.9384510629355907,-1.2380576943665742,0.3783826465040445
1782661171698569000,1.63056884765625,-0.8380781330823898,-1.216126579196006,0.30942469948157664
1782661171708639000,1.640638916015625,-0.900678673902154,-1.2472529543437063,0.20162571128085255
1782661171718710000,1.6507099609375,-1.0300620096623896,-1.2014041532952338,0.16034794447496534
1782661171728781000,1.660781005859375,-0.9861796133160591,-1.1517341865234076,0.10178323504254222
1782661171738852000,1.67085205078125,-0.7174164484381675,-1.1487753367178142,0.01812996932193637
1782661171748923100,1.680923095703125,-0.36951837204694743,-1.1828900800265372,-0.06838526170104742
1782661171758994200,1.690994140625,-0.13123042493164538,-1.113664495043829,-0.14548559864684937
1782661171769065000,1.70106494140625,-0.027005495825409887,-0.9983499435812234,-0.20270386190637946
1782661171779136000,1.711135986328125,-0.02731996860206127,-0.9758359870214015,-0.23216610323414205
1782661171789207000,1.72120703125,-0.07225391982793808,-0.9943053443655371,-0.1796836363248527
1782661171799278000,1.731278076171875,-0.14350187748372553,-0.9700190443709492,-0.035948096215724944
1782661171809349000,1.74134912109375,-0.3465893318802118,-0.8914967117980122,0.13759703735411166
1782661171819420200,1.751420166015625,-0.6802350110352039,-0.7727751283708959,0.20807956359535454
1782661171829491000,1.761490966796875,-0.9938035323232411,-0.6809807879012078,0.20513225809708235
1782661171839561000,1.77156103515625,-1.1392004297733307,-0.6870786663848907,0.09172551301717757
1782661171849632000,1.781632080078125,-0.9895213249593973,-0.8414970016151666,-0.09597878654748201
1782661171859703000,1.791703125,-0.8868617454737424,-1.0877042704876512,-0.32177754670679565
1782661171869774000,1.801774169921875,-0.8678495864897966,-1.16640743952021,-0.45128319367244835
1782661171879844900,1.811844970703125,-0.7752426144629716,-1.075529483243078,-0.41833121053278444
1782661171889916000,1.821916015625,-0.6679898619681597,-0.8656002001278101,-0.22735154255926607
1782661171899987000,1.831987060546875,-0.5762164181560278,-0.527436239830777,0.11610986655876039
1782661171910058000,1.84205810546875,-0.5257178185403347,-0.15711524616405367,0.47230873830541964
1782661171920129000,1.85212890625,-0.45638533911705015,0.2121614991467446,0.805497029081732
1782661171930200000,1.862199951171875,-0.388933851134777,0.49097851359248157,1.0749484684847295
1782661171940270800,1.872270751953125,-0.2792477340131998,0.6778848677124828,1.2582378742165863
1782661171950342000,1.882341796875,-0.05437865591943264,0.7489373758614063,1.2829209184437989
1782661171960413000,1.892412841796875,0.11447978113889694,0.8364533814247697,1.2726070297002792
1782661171970483000,1.90248291015625,0.08777882121801375,0.9194978675972669,1.1959379237785934
1782661171980554000,1.912553955078125,-0.051152679610252376,0.926922464640066,1.0167186900950969
1782661171990625000,1.922625,0.011196516796946525,0.8951993657082319,0.7622862483866513
1782661172000696000,1.932696044921875,0.2183925755560398,0.767790764087066,0.46585620116516946
1782661172010767000,1.94276708984375,0.2492980014294386,0.5733639513343572,0.14358224924355745
1782661172020838100,1.952838134765625,0.06419862366616726,0.29906127250790593,-0.35356925389543176
1782661172030909200,1.9629091796875,-0.12984043187797067,-0.1748795970439911,-0.9954378555268049
1782661172040980200,1.972980224609375,-0.18684943630099296,-0.8500199152886867,-1.794113368025422
1782661172051051000,1.983051025390625,-0.3220943575710058,-1.392304399356991,-2.4352983713068066
1782661172061122000,1.9931220703125,-0.5845663133502006,-1.5699331489786506,-2.7551819209605455
1782661172071193000,2.003193115234375,-0.841556038326025,-1.3755464490406215,-2.729488092255592
1782661172081264000,2.01326416015625,-1.2062719785273075,-0.9278919672593474,-2.3753331474266943
1782661172091334100,2.023334228515625,-1.5409206972450018,-0.38611791693121195,-1.797564531392604
1782661172101405000,2.033405029296875,-1.6993553554445504,0.2031329009734094,-1.118077416115254
1782661172111476000,2.04347607421875,-1.6226608228206634,0.6639580491688102,-0.43883521550968285
1782661172121547000,2.053547119140625,-1.2383172220855951,0.898841521602869,-0.018022928750887512
1782661172131618000,2.0636181640625,-0.7387555890649556,1.028884124989435,0.1997830060236156
1782661172141689000,2.073689208984375,-0.10254793580472468,1.076075645883754,0.2405368950858712
1782661172151760100,2.083760009765625,0.662364423301816,0.9883890329938382,0.1952768537107855
1782661172161831000,2.093830810546875,1.4676204832345245,0.8911865498702972,0.08237396649979055
1782661172171902000,2.10390185546875,2.192297278064489,0.7943728468686342,0.043692061406001445
1782661172181973000,2.113972900390625,2.61822551959753,0.7001453609678894,0.03819024911932647
1782661172192044000,2.1240439453125,2.734874461469054,0.5748585738062858,0.007795476181805133
1782661172202115000,2.134114990234375,2.682260477134585,0.5279385633297264,-0.04443754601106047
1782661172212184800,2.144184814453125,2.4884984849661587,0.46351972104161976,-0.1166763413351029
1782661172222255900,2.154255859375,2.2625404425919053,0.35870150221735236,-0.13303009476475416
1782661172232327000,2.164326904296875,1.9504121832400558,0.30782398628666996,-0.05314801814593374
1782661172242398000,2.17439794921875,1.702963024547696,0.2625840378515422,0.05885127128884196
1782661172252469000,2.184468994140625,1.5595973406642674,0.2380206744812429,0.1933975427702069
1782661172262540000,2.1945400390625,1.5119289960384368,0.1979569596402347,0.2895537317112088
1782661172272610800,2.20461083984375,1.4604220961630343,0.15744067872613668,0.36168818987794216
1782661172282681900,2.214681884765625,1.3182874153792858,0.1085705570951104,0.4303780605487525
1782661172292753000,2.2247529296875,1.2238766088008879,0.07740487285032868,0.43797143828719853
1782661172302824000,2.234823974609375,1.2302210093915462,0.054746612448990345,0.36505050591789184
1782661172312895000,2.24489501953125,1.266300038510561,0.0036368951976299283,0.305702975544706
1782661172322966000,2.254966064453125,1.1570698484629391,-0.15146277336031197,0.2538861329372972
1782661172333036000,2.2650361328125,0.8982949936360121,-0.28335955324620005,0.1719512885071337
1782661172343107000,2.275107177734375,0.6255448049485683,-0.3720576812662184,0.05085267375037074
1782661172353178000,2.28517822265625,0.38167058213353156,-0.4348461458735168,-0.07243044543862343
1782661172363249200,2.295249267578125,0.2710819632142782,-0.529816486030817,-0.15364333226978777
1782661172373320200,2.3053203125,0.29551906985640525,-0.6069580317698419,-0.22361206376999615
1782661172383391000,2.315390869140625,0.344306189379096,-0.6462574842400849,-0.3214230341807008
1782661172393462000,2.3254619140625,0.46895957400798793,-0.6801799198471009,-0.4387887460194528
1782661172403533000,2.335532958984375,0.6364414620161056,-0.8159883202187717,-0.6219308522351086
1782661172413604000,2.34560400390625,0.7397767488062381,-0.9950153923310339,-0.8429340486809611
1782661172423675100,2.355675048828125,0.8390051847994328,-1.2148083362042903,-1.1130752239137887
1782661172433746200,2.36574609375,0.9257599236667156,-1.5152248227134346,-1.4547766376219688
1782661172443817000,2.37581689453125,1.000745314285159,-2.1126688839457928,-1.9259791682511567
1782661172453887000,2.385886962890625,1.0711825400799513,-2.797126627242565,-2.382898614244908
1782661172463958000,2.3959580078125,0.9791600899428129,-3.3889719916850325,-2.7704391113251448
1782661172474029000,2.406029052734375,0.7297463531792163,-3.801307468934357,-3.1377769244626164
1782661172484100000,2.41610009765625,0.3492132506430149,-3.7290620246738193,-3.344051484462619
1782661172494171000,2.4261708984375,-0.08333996198773383,-3.1224928460910912,-3.2072757003635166
1782661172504242000,2.436241943359375,-0.41611294996142384,-2.0212652963593603,-2.4649153648048636
1782661172514313000,2.44631298828125,-0.4554974503666162,-0.686909666493535,-1.0346397659067064
1782661172524384000,2.456384033203125,-0.44690965476334094,0.5087161225959659,0.7656032639801502
1782661172534455000,2.466455078125,-1.05522041631639,1.5717781923234462,2.196730876597762
1782661172544525800,2.47652587890625,-2.2824065880566833,2.1915414912611246,2.794952205812931
1782661172554596600,2.4865966796875,-3.3985599042415617,2.4345596817687154,2.60265385645628
1782661172564666600,2.49666650390625,-3.739633103048801,2.6345661212846636,2.067450416690111
1782661172574737700,2.506737548828125,-3.461575455603003,2.665164380905032,1.565123556739837
1782661172584808700,2.51680859375,-2.863276384976506,2.2670073588728905,1.1390728578709066
1782661172594879700,2.526879638671875,-2.0740344712555405,1.3414642928272484,0.43659098024684934
1782661172604950800,2.53695068359375,-1.2126906133979558,0.35604894188195463,-0.49633642389643934
1782661172615021800,2.547021728515625,-0.5084890358418226,-0.1519429580926895,-1.3243380937203764
1782661172625092900,2.5570927734375,0.07656710685193538,-0.20195508936569093,-1.792271685681492
1782661172635164000,2.567163818359375,0.599907090345025,0.0077437459945678706,-1.7642542363345621
1782661172645235000,2.57723486328125,1.0135212092280388,0.27461159864515067,-1.372884974746406
1782661172655305700,2.5873056640625,1.2881897987574338,0.4931348148435354,-0.9605781390696764
1782661172665376800,2.597376708984375,1.3966361449509859,0.5930877657189965,-0.6099837362665683
1782661172675447800,2.60744775390625,1.4402625207096338,0.6339459919385612,-0.34054829815030097
1782661172685517800,2.617517822265625,1.4726491250514984,0.6587080927513539,-0.057535640379320824
1782661172695588900,2.6275888671875,1.6426409500539303,0.6278704714171588,0.19799047831734642
1782661172705659600,2.63765966796875,1.7634119402915238,0.7125853750199079,0.44795836009867485
1782661172715730700,2.647730712890625,1.794294569811225,0.7750161122307181,0.6323757469471544
1782661172725801700,2.6578017578125,1.7290268556088209,0.7754315611638128,0.701119466697052
1782661172735872800,2.667872802734375,1.530580505016446,0.8025596604555845,0.6782830001845955
1782661172745943800,2.67794384765625,1.2462737340480088,0.8242572591312229,0.6407154130082577
1782661172756014800,2.688014892578125,0.9147878632754087,0.8248509872406721,0.6404577119201421
1782661172766085600,2.698085693359375,0.5581967773407698,0.789664961438626,0.7345579912446439
1782661172776156700,2.70815673828125,0.08487140933871269,0.7206504619233309,0.8300101966347545
1782661172786227700,2.718227783203125,-0.4867904142528772,0.644048137627542,0.8771494758851826
1782661172796297700,2.728297607421875,-0.9603928456306456,0.6211810567811131,0.907072612722963
1782661172806368800,2.73836865234375,-1.2844716550171376,0.5819123647753149,0.8701833631996065
1782661172816439600,2.748439453125,-1.5700380706578492,0.547163415216282,0.7958188809584825
1782661172826510600,2.758510498046875,-1.677692389690876,0.6016047611083835,0.7526038624797016
1782661172836581600,2.76858154296875,-1.565071972683072,0.726956357134506,0.7708185144104063
1782661172846652700,2.778652587890625,-1.0746616143673657,0.7992205791607498,0.8589953950352966
1782661172856723700,2.7887236328125,-0.44799861904382704,0.7334606975272298,0.9815083335693925
1782661172866794800,2.798794677734375,0.16007482662200928,0.5967994797185063,1.0302167618326843
1782661172876865500,2.808865478515625,0.6882014598697423,0.4098207179494202,0.9529190756838768
1782661172886936600,2.8189365234375,1.1718757879287003,0.23334939473457633,0.8161959716200828
1782661172897006800,2.8290068359375,1.5661726274013519,0.10495032077133655,0.6786622087605297
1782661172907078000,2.839077880859375,1.7565654353976248,-0.003995280181244016,0.5887322739232331
1782661172917149000,2.84914892578125,1.802871259498596,-0.0857302181251347,0.5180706282554194
1782661172927219700,2.8592197265625,1.8725187962204217,-0.20861827358193694,0.44953481563515957
1782661172937290800,2.869290771484375,1.9182804304420946,-0.30770934693105517,0.4083044316349551
1782661172947361800,2.87936181640625,1.912241150277853,-0.3405298126455396,0.45364122804068024
1782661172957432800,2.889432861328125,1.95581316550076,-0.3326949543014169,0.5555597068354488
1782661172967504000,2.89950390625,1.8728057964682578,-0.35641266062781213,0.708991149920225
1782661172977575000,2.909574951171875,1.5253314984470605,-0.38936128276661036,0.7740693328998982
1782661172987645700,2.919645751953125,1.0739479131400584,-0.3487373036943376,0.7618700688011943
1782661172997716700,2.929716796875,0.623480858156085,-0.32240159688927233,0.7173837882775813
1782661173007786800,2.939786865234375,0.1868734016984701,-0.3717451812509447,0.6874944075789302
1782661173017857800,2.94985791015625,-0.31178748309016224,-0.34593729771226644,0.6241949977748096
1782661173027928800,2.9599287109375,-0.6267196939468384,-0.3589764467012137,0.5477986443798989
1782661173037999600,2.96999951171875,-0.6730044752597808,-0.48816053356230255,0.46232897688709196
1782661173048070700,2.980070556640625,-0.6565881779879331,-0.6293539879731833,0.42057329037114977
1782661173058141700,2.9901416015625,-0.5955950723648071,-0.7494796660445631,0.42931759171038864
1782661173068212700,3.000212646484375,-0.5445031830310821,-0.849147370237857,0.43477782987765967
1782661173078283800,3.01028369140625,-0.7590870139539241,-0.9402646882288157,0.40718890814110636
1782661173088354800,3.020354736328125,-1.128591357475519,-1.0102585541702807,0.2876756628796458
1782661173098425600,3.030425537109375,-1.4887456888496875,-1.1055636792398988,0.10230484776385128
1782661173108496600,3.04049658203125,-1.721369034332037,-1.1995053339365869,-0.058366921838000414
1782661173118566700,3.050566650390625,-1.8419722667872904,-1.2729508747018874,-0.1868450523868203
1782661173128637700,3.0606376953125,-1.9072768058687448,-1.3218152972444892,-0.23733576095700262
1782661173138708700,3.070708740234375,-1.920258452516794,-1.3052499468907712,-0.16221534578204155
1782661173148779500,3.080779541015625,-1.8845406579256057,-1.1977961188659072,-0.015170827255398034
1782661173158850600,3.0908505859375,-1.6984452548623084,-1.0277973526660353,0.16691943181976676
1782661173168921600,3.100921630859375,-1.3551876977533102,-0.865309692748636,0.380241133852303
1782661173178992600,3.11099267578125,-0.9420113857656717,-0.7672885136533528,0.5040928467094898
1782661173189063700,3.121063720703125,-0.5699667101114988,-0.7517256914056837,0.5799513669006526
1782661173199134700,3.131134765625,-0.29601591346263884,-0.7971518831279129,0.6249867326743901
1782661173209205500,3.14120556640625,-0.08066109816730022,-0.8851273228965699,0.5435257163010537
1782661173219275800,3.15127587890625,-0.08364274432659148,-0.9668843996070324,0.5518998691536486
1782661173229346800,3.161346923828125,-0.23470248984396455,-1.0679467730291188,0.6536851500228047
1782661173239417900,3.17141796875,-0.3233306213676929,-1.1269698937535286,0.8201758350364864
1782661173249489000,3.181489013671875,-0.5702221461772918,-0.9691944301150739,1.0138307135686278
1782661173259559700,3.1915595703125,-1.1054665024757384,-0.6224063607923687,1.1113228272885083
1782661173269630700,3.201630615234375,-1.666996223631501,-0.18799520880263298,1.1179629959553479
1782661173279701800,3.21170166015625,-2.1445137826263903,0.2862032157069072,1.1969412556022405
1782661173289772800,3.221772705078125,-2.711796952742338,0.7879380645807832,1.272284373617172
1782661173299843800,3.23184375,-2.8186083912104367,1.4589840261839329,1.4115955214127898
1782661173309915000,3.241914794921875,-2.4571628509819505,1.9976254775747655,1.4513042853362856
1782661173319985700,3.251985595703125,-1.9343331550985574,2.2156927666991946,1.271890259733051
1782661173330055700,3.2620556640625,-1.2483482022345065,2.1337050961032507,0.8340899402290582
1782661173340126700,3.272126708984375,-0.465967990976572,1.924185416702181,0.3059197601005435
1782661173350197800,3.28219775390625,0.3699871586024761,1.7060697583913802,-0.13561565427854658
1782661173360268800,3.292268798828125,0.9247487007975578,1.3971153067700564,-0.5287849510259927
1782661173370339600,3.302339599609375,1.2596370734900235,0.9383529363233596,-1.115857548108697
1782661173380410600,3.31241064453125,1.3334423144131897,0.337198695461452,-1.965190357916057
1782661173390481700,3.322481689453125,1.297052319648862,-0.32790786615535616,-2.9953298167288303
1782661173400552700,3.332552734375,1.2301070276230572,-1.186627805250138,-4.019913102719188
1782661173410623700,3.342623779296875,1.2120306881844998,-2.094446998556703,-4.854372168521583
1782661173420693800,3.35269384765625,1.1970026304006576,-2.737310164183378,-5.306293221706151
1782661173430764800,3.362764892578125,0.9796844060778618,-2.9682553473204374,-5.235590622973442
1782661173440835800,3.3728359375,0.5079723184913396,-2.5459318522810936,-4.616033952523767
1782661173450907000,3.382906982421875,-0.11256079577505587,-1.8432853952124715,-3.7036528581291437
1782661173460978000,3.39297802734375,-0.6378425609856844,-1.1730622212342918,-2.8413644128978253
1782661173471048700,3.403048583984375,-0.8488993868261575,-0.5913393146164715,-2.0480843297019597
1782661173481119700,3.41311962890625,-0.8125193289339542,-0.05867796054854989,-1.3143332709260285
1782661173491190800,3.423190673828125,-0.7858236297100782,0.3830723386902362,-0.6337902168549597
1782661173501261800,3.43326171875,-0.9277823694050311,0.7313334762401879,-0.12825900790542363
1782661173511332900,3.443332763671875,-1.0332061529070138,0.9557678892437368,0.14410729603096842
1782661173521404000,3.45340380859375,-0.9072989688247441,1.1723624754671007,0.332128698720783
1782661173531473700,3.4634736328125,-0.6092775607585906,1.355537387973815,0.5643237357884645
1782661173541544700,3.473544677734375,-0.19871873779296872,1.5555945347636937,0.8604441325388849
1782661173551616000,3.483615966796875,0.33257132792174815,1.806275222723186,1.1654057151317596
1782661173561687000,3.49368701171875,0.8594716342449188,2.036897311385721,1.425262958367914
1782661173571758000,3.503758056640625,1.3292647364675998,2.0919410070851443,1.620652697868645
1782661173581829000,3.5138291015625,1.9122481645405291,1.986025202282518,1.6730710135005413
1782661173591900200,3.523900146484375,2.425207623794675,1.8342494174502788,1.6553116310566662
1782661173601971200,3.53397119140625,2.8056507099598647,1.5543972878031431,1.5574445465445517
1782661173612042000,3.5440419921875,3.023057197088003,1.3135133328452706,1.396427178375423
1782661173622113000,3.554113037109375,3.176321174651384,1.0819333589360118,1.237316666740924
1782661173632183000,3.56418310546875,3.248199246904254,0.7058800321623683,1.0133180878713726
1782661173642254000,3.574254150390625,2.950899723371863,0.23577494138106703,0.7152803131923079
1782661173652325000,3.5843251953125,2.3611007700651885,0.012145634215325116,0.44371816524565216
1782661173662396000,3.59439599609375,1.9500550403654575,-0.032084114263951774,0.21872999081686137
1782661173672467000,3.604467041015625,1.767329990518093,-0.03655190732777119,0.19671163575425743
1782661173682538000,3.6145380859375,1.646009549704194,0.02336874675825238,0.37374987213686106
1782661173692609000,3.624609130859375,1.4981009616941212,0.01726648436039686,0.537418193206191
1782661173702680000,3.63468017578125,1.364818864929676,-0.1859511722870171,0.5595825326107442
1782661173712751000,3.644751220703125,1.1607529208898544,-0.5850583346508443,0.4431437263585627
1782661173722822000,3.65482177734375,0.8586299227237701,-1.0400503197133542,0.28827611299082634
1782661173732893000,3.664892822265625,0.5092635273456573,-1.3298255852207541,0.20111250106170772
1782661173742963200,3.674963134765625,0.10487082579433918,-1.4338905014596879,0.17006649767383933
1782661173753034200,3.6850341796875,-0.3591653203368187,-1.3799584202639759,0.25470059112533927
1782661173763105000,3.69510498046875,-0.6352636504083872,-1.3026977781899272,0.3501911557644605
1782661173773176000,3.705176025390625,-0.9354314228534698,-1.3171939210541546,0.41601942645907397
1782661173783247000,3.7152470703125,-1.1366922463446856,-1.4280729012221096,0.33948695252910255
1782661173793318100,3.725318115234375,-1.2581874592036009,-1.5551085048124194,0.09869199102893471
1782661173803389200,3.73538916015625,-1.364656367844343,-1.6186567017458378,-0.10063596470355987
1782661173813460200,3.745460205078125,-1.4709610258340835,-1.6427042245484889,-0.2424048809148371
1782661173823531300,3.75553125,-1.5971178007632494,-1.6631581067733465,-0.3776967100664973
1782661173833602000,3.76560205078125,-1.5792764391243457,-1.6891235920265315,-0.5731606838472187
1782661173843672000,3.775672119140625,-1.488597220289707,-1.8307498848967254,-0.851043413117528
1782661173853743000,3.7857431640625,-1.2942770097166298,-2.2157886282891033,-1.2963259050704539
1782661173863814100,3.795814208984375,-0.9412398168712853,-2.572936471323669,-1.8769360281407832
1782661173873885000,3.805885009765625,-0.3418839306682348,-2.579484285531938,-2.4438052106283603
1782661173883956000,3.8159560546875,0.1026958198428154,-1.9789310062378644,-2.665859961953759
1782661173894027000,3.826027099609375,0.10230126756727695,-0.8449293141514063,-2.2192039896905422
1782661173904098000,3.83609814453125,-0.03048223202526569,0.23146073144376278,-1.2082555535599588
1782661173914169000,3.846169189453125,-0.11790858654379845,0.7397209269657731,-0.2958909719087183
1782661173924240100,3.856240234375,-0.6432751074284315,1.0739444060087204,0.19189166825190185
1782661173934311200,3.866311279296875,-1.4439736501872538,1.2281490254230796,0.1376215872734785
1782661173944381000,3.876380859375,-2.285968079930544,1.3459832315564155,-0.18182897779047488
1782661173954452000,3.886451904296875,-2.801476054623723,1.6260785223096608,-0.45295229592844843
1782661173964523000,3.89652294921875,-2.705623817065358,2.003494807999581,-0.5015533913597464
1782661173974594000,3.906593994140625,-2.136566038492322,2.1798748727343975,-0.3785277540631592
1782661173984664800,3.916664794921875,-1.44705817219913,2.0903299186266957,-0.26608503170982
1782661173994735900,3.92673583984375,-0.6654355013102292,1.938752140584588,-0.2423797464735806
1782661174004807000,3.936806884765625,0.22750936346948145,1.8247363236956298,-0.20954788258224724
1782661174014878000,3.9468779296875,0.958915174293518,1.828386224505305,-0.05890373212844133
1782661174024949000,3.956948974609375,1.56505735963583,1.907392248941958,0.27502339431643485
1782661174035020000,3.96702001953125,2.1524767243295906,2.001592919901013,0.6594239859357476
1782661174045090000,3.977090087890625,2.5514380484819412,2.0014637405633926,0.979803356282413
1782661174055161000,3.9871611328125,2.660669407573342,1.9029044360034166,1.0763384615384042
1782661174065232100,3.997232177734375,2.455446110191941,1.767467207031697,1.036265394347161
1782661174075303200,4.00730322265625,2.0859616404145953,1.6900325235649942,0.9393697852157056
1782661174085374200,4.017374267578125,1.662249905887246,1.574116426012665,0.8165136592671275
1782661174095445000,4.027445068359375,1.3678238919645547,1.4035044232852756,0.6964027403734624
1782661174105516000,4.03751611328125,1.1232429821848868,1.2249009834125637,0.5866780448071658
1782661174115587000,4.047587158203125,0.6812135006785393,1.012503410487622,0.5455374945148825
1782661174125658000,4.057658203125,0.06547288138568401,0.7891983668401837,0.43658816723525523
1782661174135729200,4.067729248046875,-0.4283230277150869,0.5539081402361392,0.33206790844425554
1782661174145799000,4.077798828125,-0.7853618574172258,0.38921792877316475,0.2575726394303143
1782661174155870000,4.087869873046875,-1.0421329712063074,0.26692235931679603,0.15335150971636174
1782661174165941000,4.09794091796875,-1.2374924616992473,0.1800105301916599,0.08778671226352452
1782661174176012000,4.108011962890625,-1.4052362155139446,0.14744067823737858,0.036153701790422196
1782661174186083000,4.1180830078125,-1.4676672449856996,0.1387038295522332,0.034959523569792504
1782661174196154000,4.128154052734375,-1.1739268752396106,0.07053257592804729,0.006120820967853069
1782661174206225000,4.138224853515625,-0.5942454113215208,-0.07456943022869526,0.011640168911218643
1782661174216296000,4.1482958984375,0.04411445153653622,-0.16433321471884846,0.07457213364243508
1782661174226367000,4.158366943359375,0.5745616366863251,-0.17564334795810282,0.2213791901513934
1782661174236438000,4.16843798828125,0.9124901077270507,-0.1369990714609623,0.2933889259599149
1782661174246508000,4.178508056640625,1.0752426291257142,-0.11967252747640013,0.33316344859600067
1782661174256578800,4.188578857421875,1.1957055763274431,-0.09557875437922775,0.38308234862759705
1782661174266649900,4.19864990234375,1.255982642635703,-0.09594992577917873,0.4326074270360172
1782661174276721000,4.208720947265625,1.1630150206029415,-0.09010105362050234,0.43852936443090434
1782661174286792000,4.2187919921875,1.0370330177187919,-0.11300568999834358,0.3833418763466179
1782661174296863000,4.228863037109375,0.9428069200575351,-0.20536986624523995,0.2947885636247694
1782661174306934000,4.23893408203125,0.8052320945352316,-0.3239519681364298,0.22042978047206996
1782661174317004800,4.2490048828125,0.7056471001893282,-0.4071365934319794,0.2154587140612304
1782661174327075800,4.259075927734375,0.7287205172628164,-0.45287681953944264,0.2632661748968065
1782661174337147000,4.26914697265625,0.8780237745016812,-0.4529624519962817,0.37650019375830884
1782661174347217200,4.279217041015625,1.1025362942427397,-0.4241667117532342,0.6276927767626941
1782661174357288200,4.2892880859375,1.1794237190902233,-0.43402080096527934,0.8791055783890187
1782661174367359000,4.29935888671875,1.0662246254116297,-0.4611065954852849,1.0294769032508133
1782661174377430000,4.309429931640625,0.6419634403079748,-0.4495024477355182,1.1127690805740653
1782661174387501000,4.3195009765625,0.02669160757064819,-0.43782603846713897,1.111246108790487
1782661174397572000,4.329572021484375,-0.40948154912292956,-0.5352870263963937,1.0142090453617274
1782661174407643100,4.33964306640625,-0.6834224088996649,-0.6599390227857976,0.8947713495545089
1782661174417714200,4.349714111328125,-0.8119745545327663,-0.7759560234293341,0.8265328028477728
1782661174427785000,4.359784912109375,-0.9074012601554393,-0.8890835131764412,0.7330195296309888
1782661174437855000,4.36985498046875,-0.9625222588747739,-1.0494416137192397,0.5558351627759636
1782661174447926000,4.379926025390625,-0.9895283392220735,-1.1999482553984968,0.272881998373568
1782661174457997000,4.3899970703125,-0.9629986442148685,-1.3497006446443498,0.03440218194797635
1782661174468068000,4.400068115234375,-0.8118126419693231,-1.4789802277691662,-0.14688757439926267
1782661174478139000,4.410138916015625,-0.6984118882387876,-1.4880262885339557,-0.239794113894552
1782661174488210000,4.4202099609375,-0.6603191812098026,-1.3649407377436755,-0.2791699926018715
1782661174498281000,4.430281005859375,-0.7926298025935887,-1.2392892819881438,-0.2833070924066007
1782661174508352000,4.44035205078125,-1.1013894622951745,-1.071608729602769,-0.2820926020503044
1782661174518423000,4.450423095703125,-1.462338158917427,-0.9503294975820928,-0.26879443679898973
1782661174528492800,4.460492919921875,-1.7507523652046917,-0.83278119571805,-0.3327053295649588
1782661174538563800,4.470563720703125,-1.7406301996409892,-0.7690993624676018,-0.45937867571413515
1782661174548634400,4.48063427734375,-1.3982155230969189,-0.7488914908930658,-0.6810624017700553
1782661174558705400,4.490705322265625,-1.0258984602421521,-0.7449327433299273,-0.8005084270142019
1782661174568776400,4.5007763671875,-0.8027046218842268,-0.8780664445996283,-0.7608492013208568
1782661174578847500,4.510847412109375,-0.8157154946267604,-1.0028229242768139,-0.652852790851891
1782661174588918500,4.52091845703125,-1.1501841806024313,-0.8230779862187803,-0.5082908829212188
1782661174598989600,4.530989501953125,-1.5173323163866996,-0.42971535885632034,-0.39853769191280003
1782661174609060600,4.541060546875,-1.8961638757020234,0.046429815806820984,-0.19123671147450805
1782661174619130400,4.55113037109375,-2.3088392524302006,0.5376715834453701,0.1405067873209715
1782661174629201400,4.561201416015625,-2.6628596110939977,0.9722452690530567,0.4136046204023063
1782661174639272400,4.5712724609375,-2.9153409187346697,1.401269211579114,0.45857729620337484
1782661174649343500,4.581343505859375,-2.9589918444126844,1.6442743964746593,0.24896643138751387
1782661174659414300,4.591414306640625,-2.586791101413965,1.6915537417829036,-0.0880579304203391
1782661174669485300,4.6014853515625,-1.8603081339448688,1.5650651045508681,-0.37238179865404963
1782661174679556400,4.611556396484375,-0.8268284247934817,1.3302711370311677,-0.5038999544858932
1782661174689627400,4.62162744140625,0.2066682354927063,1.278416592761874,-0.4471748815707862
1782661174699698400,4.631698486328125,1.0240957947343587,1.3638795382529496,-0.29100188469290733
1782661174709768200,4.641768310546875,1.507376155039668,1.4613313199624418,-0.13370295252501962
1782661174719839200,4.651839111328125,1.831374300405383,1.5548127367362379,-0.04854015902429819
1782661174729910300,4.66191015625,1.9713386514127254,1.6098180001214146,0.004060235176235437
1782661174739981300,4.671981201171875,1.9048299972385168,1.6541905180722474,0.023874212062358856
1782661174750052400,4.68205224609375,1.6032254699885844,1.6724696866065263,-0.017114216408133504
1782661174760123400,4.692123291015625,1.358160576084256,1.6315344496279953,-0.08433964054957031
1782661174770194200,4.702194091796875,1.1042238089382648,1.5843679170444607,-0.1342123633518815
1782661174780265200,4.71226513671875,0.8115788332134485,1.4945507218666374,-0.1733776680484414
1782661174790336300,4.722336181640625,0.4324783938288688,1.3244969375438986,-0.24532354484051463
1782661174800406500,4.732406494140625,0.02364040330648422,1.1771259635418654,-0.3790712132900953
1782661174810477600,4.7424775390625,-0.15568448270857332,1.165865441597998,-0.4113458816900849
1782661174820548400,4.75254833984375,-0.21301906582415103,1.2839265883550046,-0.26393282211199404
1782661174830619400,4.762619384765625,-0.25346388893723487,1.4564208976976574,0.0014309095859527587
1782661174840690400,4.7726904296875,-0.24627953039109707,1.5809136849373577,0.25004779688343404
1782661174850761500,4.782761474609375,-0.03171908034384251,1.6687890983976423,0.3693554365701973
1782661174860832500,4.79283251953125,0.12918985901474953,1.731627978017926,0.4184663812197745
1782661174870903600,4.802903564453125,0.27530571838915346,1.5059854313336312,0.43670594839602705
1782661174880974300,4.812974365234375,0.4438438374519348,1.1682289558589458,0.33453035303503276
1782661174891044400,4.82304443359375,0.6704694038242102,0.7680578175254166,0.15082622902244328
1782661174901115400,4.833115478515625,0.948124315688014,0.4026702616728842,-0.028149551293998955
1782661174911186400,4.8431865234375,1.277232351413369,0.17182839277982712,0.013760083674639463
1782661174921257500,4.853257568359375,1.584029771131277,0.09824176304340362,0.1705781004577875
1782661174931328300,4.863328369140625,1.6926964820772408,0.038259149637073275,0.29427228466570376
1782661174941399300,4.8733994140625,1.6558236722320316,-0.00846007757037878,0.35351810823008417
1782661174951470300,4.88347021484375,1.8268121070563792,0.06326645738258957,0.4777161503069102
1782661174961541400,4.893541259765625,1.9506717109590768,0.16171499504446982,0.6619611031979322
1782661174971612400,4.9036123046875,1.7079700390547512,0.2116341873370111,0.8294348078995942
1782661174981682200,4.91368212890625,1.2369751598268746,0.22929040166735648,0.9188590582370757
1782661174991753200,4.923753173828125,0.6584224076777696,0.2530332424350083,0.9095682289309799
1782661175001824300,4.93382421875,0.15244564691781998,0.24824790785461662,0.8414753743052482
1782661175011895300,4.943895263671875,-0.06150163966715336,0.022038374937325713,0.6792942230537533
1782661175021966300,4.95396630859375,-0.1270961016058922,-0.2909383179374039,0.35180735878944397
1782661175032037400,4.964037353515625,-0.17723872739076613,-0.6561760900557041,-0.08011135533004998
1782661175042108400,4.9741083984375,-0.07836217357516288,-1.0872975163176655,-0.5621224263519048
1782661175052179500,4.984179443359375,0.23417934275269506,-1.5128794286310672,-0.8633844237744808
1782661175062249500,4.99424951171875,0.4584428561687469,-1.792919482065737,-0.9039932052776217
1782661175072320500,5.004320556640625,0.5616928027629852,-1.8374331620529294,-0.774755123206973
1782661175082391600,5.0143916015625,0.5019342073708772,-1.6539372739635407,-0.5502949181750416
1782661175092462300,5.02446240234375,0.2648725871801376,-1.4520947050616144,-0.42654374308288096
1782661175102533400,5.034533447265625,0.11807225267291069,-1.261749243338406,-0.4382292124405503
1782661175112604400,5.0446044921875,0.05121230084300041,-1.0916237089537084,-0.49605479394346474
1782661175122675500,5.054675537109375,0.013323591953516005,-0.9342800608612597,-0.4688786177262664
1782661175132746500,5.06474658203125,0.014816460859775542,-0.8379187047369777,-0.36013387310802936
1782661175142816300,5.074816162109375,0.06267126796841621,-0.7818401130318641,-0.27946692972183224
1782661175152887300,5.08488720703125,0.1594885511666536,-0.7173381225049495,-0.30556144818216563
1782661175162958300,5.094958251953125,0.22436405118107794,-0.7594063090361655,-0.45137131034731864
1782661175173029400,5.105029296875,0.19305004450678825,-0.9141204854078591,-0.668841510361433
1782661175183100400,5.115100341796875,0.2035387052953243,-1.0357432701691984,-0.8419540977329015
1782661175193171500,5.12517138671875,0.13383213186264037,-1.079051373758912,-0.9197969236090778
1782661175203242200,5.1352421875,-0.016826631638407707,-1.1054678176499904,-1.0049509492814541
1782661175213313300,5.145313232421875,-0.2378951484054327,-1.1748219243831932,-1.1641904941231012
1782661175223384300,5.15538427734375,-0.5174386504948139,-1.2165415897376834,-1.3431836639657615
1782661175233454600,5.16545458984375,-0.7481389189600944,-1.1110226752981542,-1.4463693131521342
1782661175243525600,5.175525634765625,-0.7646230207711457,-0.8805608917638659,-1.411460496856272
1782661175253596400,5.185596435546875,-0.47574645766913887,-0.5062831963606178,-1.1617770032405852
1782661175263667500,5.19566748046875,-0.08838204780817031,-0.03409413891211152,-0.8041643191732466
1782661175273738500,5.205738525390625,-0.03870762405693531,0.379005600707978,-0.3817068224906921
1782661175283809500,5.2158095703125,-0.3039899610817432,0.5051989082552493,0.032114217141270635
1782661175293880600,5.225880615234375,-0.6507943970173597,0.5757279039867222,0.23960019875764846
1782661175303951600,5.23595166015625,-1.199732347625494,0.6948296458378433,0.2353703061029315
1782661175314021400,5.246021484375,-1.7473767512917517,0.9470955571621655,0.15424918920844793
1782661175324092400,5.256092529296875,-2.192742099222541,1.2236900001876057,0.09636895490884781
1782661175334163500,5.26616357421875,-2.4777923820346595,1.464428701455891,0.054418695668876166
1782661175344234500,5.276234375,-2.5404209799051283,1.7348408025845885,0.043424715706706044
1782661175354305500,5.286305419921875,-2.4851883375048636,1.9481904155373573,0.05316971852108836
1782661175364376300,5.296376220703125,-2.227384373536706,2.012676916234195,0.011899258238822222
1782661175374446300,5.3064462890625,-1.7138310400426386,2.0263415767103434,-0.03922346462458372
1782661175384517400,5.316517333984375,-0.6954694050461053,2.0381850131087003,-0.016515519862622022
1782661175394588400,5.32658837890625,0.2655108850836754,2.006158181989938,0.07122180030122399
1782661175404658400,5.336658447265625,1.0817588791519404,1.930820909193903,0.16197934506908057
1782661175414729500,5.3467294921875,1.7656284472972155,1.7899862050928175,0.29069486457034943
1782661175424800500,5.356800537109375,2.1528443885982034,1.6787478900931774,0.30375512941256166
1782661175434871600,5.36687158203125,2.239081241071224,1.608141737472266,0.22559870754256844
1782661175444942600,5.376942626953125,2.1046447135746478,1.5442249994874,0.08218509286418557
1782661175455013600,5.387013671875,1.9814719228923319,1.4087366248503326,-0.10446735955998301
1782661175465084400,5.39708447265625,1.8853993205815553,1.2162282860048115,-0.31661607229039074
1782661175475155500,5.407155517578125,1.7087515448212622,1.0386053816020488,-0.5048506793394685
1782661175485225500,5.4172255859375,1.3952753779917955,0.9940329571649431,-0.6230456816092134
1782661175495296500,5.427296630859375,0.9642769935876131,1.0711036296248435,-0.5761354618743062
1782661175505367600,5.437367431640625,0.5884761802703142,1.039468135911226,-0.5605621912978589
1782661175515438300,5.447438232421875,0.38665304672122,0.9300285408966242,-0.5738558265045285
1782661175525509400,5.45750927734375,0.3782482064694166,0.8600107095576822,-0.4355490334458649
1782661175535580400,5.467580322265625,0.35402620388269423,0.9227706787228583,-0.10371639506220817
1782661175545651500,5.4776513671875,0.19643617981374262,1.007633758624643,0.14525032858625053
1782661175555722800,5.48772265625,-0.12198913385570048,1.0553484266102313,0.29501594263985753
1782661175565792800,5.497792724609375,-0.6375771880477666,1.0851438454151152,0.2819667837135494
1782661175575863800,5.50786376953125,-1.1306547197461128,1.1312170298039912,0.24368776033222675
1782661175585934600,5.5179345703125,-1.3370809631764888,1.1389680823221802,0.304416515930742
1782661175596005600,5.528005615234375,-1.3104133210033178,1.1346221620723604,0.4225638796664774
1782661175606076700,5.53807666015625,-1.250066696590185,1.1608815157055854,0.5736202641829848
1782661175616147700,5.548147705078125,-1.2360486926317213,1.2543522649548946,0.7718759145088493
1782661175626218800,5.55821875,-1.290231533718109,1.3658990613818167,0.9654908994220197
1782661175636289800,5.568289794921875,-1.2170160753816366,1.4427161974720657,1.101624586225301
1782661175646359800,5.57835986328125,-1.0120072975337504,1.4708577115900814,1.114500726672262
1782661175656430800,5.588430908203125,-0.7576917602032422,1.4832054442487657,1.090390513896942
1782661175666502000,5.598501953125,-0.5395370850563049,1.4699030412137508,1.0964710028544067
1782661175676572700,5.60857275390625,-0.45547874566614627,1.3993901198342442,1.1205340154871344
1782661175686643700,5.618643798828125,-0.43870939717292784,1.2613750031985342,0.9823094938844442
1782661175696714800,5.62871484375,-0.3378454689323902,1.1274319583073258,0.7681839281231164
1782661175706785800,5.638785888671875,-0.19376316121220588,0.9713790806777775,0.5115127675771713
1782661175716856800,5.64885693359375,0.02204582759141922,0.8818379259623587,0.3987888901948929
1782661175726926800,5.6589267578125,0.256197697815299,0.8587694773249328,0.4015102779828012
1782661175736998000,5.668997802734375,0.4465846605926752,0.8587899355910718,0.4329465958625078
1782661175747068700,5.679068603515625,0.5391121376425028,0.8390886252991855,0.3913469036258757
1782661175757139700,5.6891396484375,0.5173515567332506,0.8084552943654358,0.20575126677826044
1782661175767211800,5.699211669921875,0.4492430661469698,0.7586210038773715,-0.04464914293512702
1782661175777282800,5.70928271484375,0.5829162080556154,0.6009655133567751,-0.27914091263785956
1782661175787353900,5.719353759765625,0.7798726123511791,0.43072599720358845,-0.46156113431975243
1782661175797423900,5.729423828125,0.9364292017191648,0.2703451733723283,-0.6098832715667784
1782661175807494700,5.73949462890625,0.9313859468549489,0.12317410585656761,-0.8245365144640207
1782661175817565700,5.749565673828125,0.8126005774766206,-0.04095481846183538,-1.0749231879130006
1782661175827636700,5.75963671875,0.6741407858133316,-0.30661811762824653,-1.3092517298780382
1782661175837707800,5.769707763671875,0.4607575628519058,-0.6437424326792359,-1.5478639405116439
1782661175847778800,5.77977880859375,0.2095914294630289,-0.8977521189309656,-1.718407992569357
1782661175857849900,5.789849853515625,-0.17997370531260967,-0.882005099222809,-1.734303480837494
1782661175867920600,5.799920654296875,-0.9898843130528926,-0.7400069043003022,-1.7387404403716324
1782661175877990700,5.80999072265625,-0.9630389762252569,-0.6468690402671694,-1.5406540091328322
1782661175888061700,5.820061767578125,-0.8129103740781545,-0.4056893172331154,-0.95285017516613
1782661175898132700,5.8301328125,-0.6577917085587978,-0.16129983837231993,-0.4705725621625781
1782661175908203800,5.840203857421875,-0.39286709893047805,0.003392565047740936,-0.16132117342129348
1782661175918274600,5.850274658203125,-0.2170768167823553,0.027169015824049708,0.20980127282142638
1782661175928345600,5.860345703125,0.03973404449522495,0.046846068457514045,0.3952988561220467
1782661175938416600,5.870416748046875,0.20016016877293585,0.2802501890540123,0.5564831052906811
1782661175948487000,5.88048681640625,-0.2702572028279304,0.5776105028629303,0.7555293214723467
1782661175958558000,5.890557861328125,-0.7595394338965415,0.6087460842303931,0.8641979321144521
1782661175968628700,5.900628662109375,-0.7245674892365932,0.39323271737247706,0.7969251616999506
1782661175978699800,5.91069970703125,-0.6432564027279615,0.24767566092461346,0.6253998435199261
1782661175988770800,5.920770751953125,-0.6409264984756707,0.09992723191231488,0.3826052326351404
