time,seconds_elapsed,z,y,x
1782661170137573600,0.06957373046875,-0.1950606405735016,0.08536295592784882,0.3131274878978729
1782661170147644700,0.079644775390625,-0.1969648003578186,0.04585789516568184,0.267437219619751
1782661170157715700,0.0897158203125,-0.19261758029460907,-0.013916853815317154,0.2156328558921814
1782661170167786800,0.099786865234375,-0.1896209865808487,-0.05656498298048973,0.1662844866514206
1782661170177857500,0.109857421875,-0.19012190401554108,-0.0619773343205452,0.12776292860507965
1782661170187928600,0.119928466796875,-0.19383089244365692,-0.0599147193133831,0.10699079930782318
1782661170197999600,0.12999951171875,-0.19104020297527313,-0.05539936572313309,0.09709356725215912
1782661170208070700,0.140070556640625,-0.17880776524543762,-0.05257348716259003,0.09758705645799637
1782661170218141700,0.1501416015625,-0.15815040469169617,-0.05174016207456589,0.11977791041135788
1782661170228212700,0.160212646484375,-0.13194222748279572,-0.027821248397231102,0.15627387166023254
1782661170238283500,0.170283447265625,-0.1197778508067131,0.008580047637224197,0.20603838562965393
1782661170248354600,0.1803544921875,-0.13168084621429443,0.01774691417813301,0.2403542846441269
1782661170258424800,0.1904248046875,-0.14803986251354218,0.019114164635539055,0.2458334118127823
1782661170268496000,0.200495849609375,-0.1528700441122055,0.02221861109137535,0.22040608525276184
1782661170278567000,0.21056689453125,-0.13768547773361206,0.012489035725593567,0.18213066458702087
1782661170288637700,0.2206376953125,-0.09662832319736481,-0.01376254204660654,0.13849502801895142
1782661170298708700,0.230708740234375,-0.04308054596185684,-0.025747179985046387,0.08829455077648163
1782661170308779800,0.24077978515625,0.0032794978469610214,-0.029405031353235245,0.02440771274268627
1782661170318850800,0.250850830078125,0.04399997368454933,-0.03090311959385872,-0.049387864768505096
1782661170328921900,0.260921875,0.07914464175701141,-0.0364113375544548,-0.10163535177707672
1782661170338993000,0.270992919921875,0.12115660309791565,-0.04097670316696167,-0.11063366383314133
1782661170349063700,0.281063720703125,0.16605350375175476,-0.06426205486059189,-0.08987165987491608
1782661170359134700,0.291134765625,0.21431545913219452,-0.10220420360565186,-0.0525248683989048
1782661170369205800,0.301205810546875,0.26034873723983765,-0.1337948888540268,-0.015034752897918224
1782661170379276800,0.31127685546875,0.29921895265579224,-0.13754086196422577,0.02804786153137684
1782661170389347800,0.321347900390625,0.3194515109062195,-0.11283738166093826,0.07543615251779556
1782661170399417600,0.33141748046875,0.31688207387924194,-0.07889945060014725,0.1187906339764595
1782661170409488600,0.341488525390625,0.2931697964668274,-0.06348667293787003,0.15379148721694946
1782661170419559700,0.3515595703125,0.2562274634838104,-0.05020445957779884,0.1676454097032547
1782661170429630700,0.361630615234375,0.20370274782180786,-0.03021237812936306,0.16590449213981628
1782661170439701800,0.37170166015625,0.13804322481155396,-0.029917361214756966,0.15275894105434418
1782661170449772800,0.381772705078125,0.07606347650289536,-0.03711375594139099,0.14693807065486908
1782661170459843600,0.391843505859375,0.018497493118047714,-0.027857569977641106,0.14723078906536102
1782661170469914600,0.40191455078125,-0.021920770406723022,-0.0018997389124706388,0.15304766595363617
1782661170479985700,0.411985595703125,-0.040827132761478424,0.03408299386501312,0.14591826498508453
1782661170490056700,0.422056640625,-0.046972110867500305,0.06276710331439972,0.12931878864765167
1782661170500127700,0.432127685546875,-0.045023322105407715,0.07424625754356384,0.09873440861701965
1782661170510198800,0.44219873046875,-0.029990041628479958,0.0603640042245388,0.06866811960935593
1782661170520269600,0.45226953125,-0.006186653394252062,0.029165668413043022,0.05368775501847267
1782661170530340600,0.462340576171875,0.018888073042035103,-0.0026841405779123306,0.055824410170316696
1782661170540410600,0.47241064453125,0.033173881471157074,-0.028590185567736626,0.06263041496276855
1782661170550481400,0.4824814453125,0.04192103445529938,-0.04484505578875542,0.06409116089344025
1782661170560552400,0.492552490234375,0.04612518101930618,-0.059825822710990906,0.04690570756793022
1782661170570623500,0.50262353515625,0.04829778894782066,-0.09724270552396774,0.025504810735583305
1782661170580694500,0.512694580078125,0.04653698205947876,-0.1535690277814865,0.017288079485297203
1782661170590765600,0.522765625,0.04340723529458046,-0.18752966821193695,0.046250224113464355
1782661170600836600,0.532836669921875,0.03536659851670265,-0.19590875506401062,0.11921204626560211
1782661170610907400,0.542907470703125,0.03332901373505592,-0.1924663633108139,0.2282719612121582
1782661170620978400,0.552978515625,0.035153087228536606,-0.1659071296453476,0.3296930193901062
1782661170631049500,0.563049560546875,0.03326250985264778,-0.11672760546207428,0.3881044089794159
1782661170641120500,0.57312060546875,0.025114329531788826,-0.060446467250585556,0.39952704310417175
1782661170651191600,0.583191650390625,0.022478066384792328,-0.014106666669249535,0.3696519434452057
1782661170661262600,0.5932626953125,0.03247210755944252,0.012770754285156727,0.30697205662727356
1782661170671333400,0.60333349609375,0.040636561810970306,0.025663116946816444,0.2045287936925888
1782661170681403400,0.6134033203125,0.03408559784293175,0.023279204964637756,0.07448433339595795
1782661170691474400,0.623474365234375,0.017388908192515373,0.0029323881026357412,-0.04877874627709389
1782661170701545500,0.63354541015625,-0.009517228230834007,-0.024308759719133377,-0.1390034705400467
1782661170711616500,0.643616455078125,-0.034979447722435,-0.0582539439201355,-0.18544979393482208
1782661170721687300,0.653687255859375,-0.054964445531368256,-0.07351315766572952,-0.1833944022655487
1782661170731758300,0.66375830078125,-0.07137218117713928,-0.0675697848200798,-0.15642830729484558
1782661170741829400,0.673829345703125,-0.07802396267652512,-0.04831195995211601,-0.12896504998207092
1782661170751900400,0.683900390625,-0.07426704466342926,-0.03500014916062355,-0.11410940438508987
1782661170761971500,0.693971435546875,-0.062217775732278824,-0.021739140152931213,-0.12267634272575378
1782661170772042500,0.70404248046875,-0.04614720121026039,-0.015345423482358456,-0.13502781093120575
1782661170782113300,0.71411328125,-0.027358386665582657,-0.02483299747109413,-0.13074004650115967
1782661170792184300,0.724184326171875,-0.008981775492429733,-0.04124792665243149,-0.11415547132492065
1782661170802255400,0.73425537109375,0.011337820440530777,-0.04675699770450592,-0.0796717181801796
1782661170812326400,0.744326416015625,0.026809722185134888,-0.04321073368191719,-0.05061209946870804
1782661170822396400,0.754396484375,0.026301780715584755,-0.042682159692049026,-0.03326365351676941
1782661170832467200,0.76446728515625,0.02794681489467621,-0.03769033029675484,-0.03364954888820648
1782661170842538200,0.774538330078125,0.0215882770717144,-0.03252696990966797,-0.04154655709862709
1782661170852609300,0.784609375,0.0174955315887928,-0.04119556024670601,-0.05442613363265991
1782661170862680300,0.794680419921875,0.028780484572052956,-0.07518302649259567,-0.0567849799990654
1782661170872751400,0.80475146484375,0.057240888476371765,-0.0885733962059021,-0.03074139542877674
1782661170882822400,0.814822509765625,0.0833660289645195,-0.08648646622896194,-0.0015441172290593386
1782661170892893400,0.8248935546875,0.09590844810009003,-0.09856656193733215,0.01662876084446907
1782661170902964500,0.834964599609375,0.10337573289871216,-0.11609651893377304,0.011992854997515678
1782661170913035500,0.845035400390625,0.09422138333320618,-0.13015852868556976,0.012558244168758392
1782661170923106300,0.855106201171875,0.07691574096679688,-0.12776026129722595,0.02040422335267067
1782661170933177300,0.86517724609375,0.0638076663017273,-0.13145487010478973,0.04170152172446251
1782661170943248400,0.875248291015625,0.060829341411590576,-0.14989842474460602,0.055300645530223846
1782661170953319400,0.8853193359375,0.07563997805118561,-0.1696968972682953,0.05107474327087402
1782661170963390500,0.895390380859375,0.09263541549444199,-0.1742594987154007,0.021832454949617386
1782661170973460500,0.90546044921875,0.11230286210775375,-0.17548269033432007,-0.040219467133283615
1782661170983531500,0.915531494140625,0.11539351940155029,-0.1673479825258255,-0.1306638866662979
1782661170993602600,0.9256025390625,0.10212697833776474,-0.16738739609718323,-0.2180427461862564
1782661171003673300,0.93567333984375,0.08804167807102203,-0.15368396043777466,-0.25963157415390015
1782661171013744400,0.945744384765625,0.0751037746667862,-0.14076043665409088,-0.22839242219924927
1782661171023815400,0.9558154296875,0.06711943447589874,-0.13289231061935425,-0.14018642902374268
1782661171033886500,0.965886474609375,0.06305252015590668,-0.12206203490495682,-0.031356073915958405
1782661171043957500,0.97595751953125,0.054686810821294785,-0.11886536329984665,0.0734131932258606
1782661171054028500,0.986028564453125,0.04609492048621178,-0.13095317780971527,0.14537473022937775
1782661171064099300,0.996099365234375,0.04275476187467575,-0.14876069128513336,0.1857985258102417
1782661171074170400,1.00617041015625,0.04868801683187485,-0.1629529446363449,0.18738843500614166
1782661171084241400,1.016241455078125,0.05958949774503708,-0.1893053650856018,0.16854095458984375
1782661171094312400,1.0263125,0.05556919053196907,-0.2149990200996399,0.12914587557315826
1782661171104383500,1.036383544921875,0.035872433334589005,-0.23458896577358246,0.08109207451343536
1782661171114454500,1.04645458984375,0.008932162076234818,-0.21078750491142273,0.039939310401678085
1782661171124525300,1.056525390625,-0.0352649949491024,-0.17910775542259216,-0.002496994799003005
1782661171134595300,1.06659521484375,-0.08912236243486404,-0.13486412167549133,-0.03380937501788139
1782661171144666400,1.076666259765625,-0.1433025449514389,-0.08011167496442795,-0.06431487947702408
1782661171154737400,1.0867373046875,-0.19579344987869263,-0.05884900316596031,-0.1053166389465332
1782661171164808400,1.096808349609375,-0.22663897275924683,-0.07347026467323303,-0.15256746113300323
1782661171174879200,1.106879150390625,-0.24146318435668945,-0.08805986493825912,-0.2158026248216629
1782661171184950300,1.1169501953125,-0.24589286744594574,-0.07806294411420822,-0.2780326306819916
1782661171195021300,1.127021240234375,-0.2524045407772064,-0.04766242578625679,-0.33257684111595154
1782661171205092400,1.13709228515625,-0.26464948058128357,-0.0006288589211180806,-0.36706602573394775
1782661171215163400,1.147163330078125,-0.2833099961280823,0.048431359231472015,-0.3808595836162567
1782661171225234400,1.157234375,-0.30589595437049866,0.08636123687028885,-0.39027342200279236
1782661171235305200,1.16730517578125,-0.3126707673072815,0.09190940111875534,-0.40085816383361816
1782661171245376300,1.177376220703125,-0.3134210705757141,0.07882462441921234,-0.42056378722190857
1782661171255447300,1.187447265625,-0.3108082711696625,0.03767745941877365,-0.44794243574142456
1782661171265518300,1.197518310546875,-0.32518574595451355,-0.014145400375127792,-0.47858595848083496
1782661171275589400,1.20758935546875,-0.34917151927948,-0.044118743389844894,-0.502339780330658
1782661171285659400,1.217659423828125,-0.37642982602119446,-0.05855502188205719,-0.4919244050979614
1782661171295730400,1.22773046875,-0.39809650182724,-0.04436170309782028,-0.44668450951576233
1782661171305801500,1.237801513671875,-0.41487300395965576,-0.011150926351547241,-0.37278252840042114
1782661171315872500,1.24787255859375,-0.42454108595848083,0.019039999693632126,-0.30144762992858887
1782661171325943600,1.257943603515625,-0.4142554998397827,0.03945119306445122,-0.24922648072242737
1782661171336014600,1.2680146484375,-0.3932684659957886,0.056230973452329636,-0.22601409256458282
1782661171346085400,1.27808544921875,-0.3691985011100769,0.05904385447502136,-0.22697104513645172
1782661171356156400,1.288156494140625,-0.34530195593833923,0.05470982939004898,-0.24203814566135406
1782661171366227500,1.2982275390625,-0.3169560730457306,0.06668606400489807,-0.27678734064102173
1782661171376298500,1.308298583984375,-0.2823466956615448,0.12899871170520782,-0.2899084687232971
1782661171386369500,1.31836962890625,-0.25687098503112793,0.2043199986219406,-0.30954933166503906
1782661171396440600,1.328440673828125,-0.24649956822395325,0.23887291550636292,-0.35914406180381775
1782661171406511400,1.338511474609375,-0.2258511334657669,0.2353065460920334,-0.44374823570251465
1782661171416582400,1.34858251953125,-0.19441039860248566,0.22104771435260773,-0.5450237393379211
1782661171426652400,1.35865234375,-0.14685538411140442,0.1883087009191513,-0.6376598477363586
1782661171436723500,1.368723388671875,-0.09143339842557907,0.1350124627351761,-0.7181187272071838
1782661171446794500,1.37879443359375,-0.0360448993742466,0.07857213914394379,-0.7731301784515381
1782661171456865300,1.388865234375,0.011831013485789299,0.03495888039469719,-0.797048032283783
1782661171466936300,1.398936279296875,0.05602092668414116,-0.004974339157342911,-0.7833257913589478
1782661171477007400,1.40900732421875,0.09511266648769379,-0.05413655936717987,-0.7557336091995239
1782661171487078400,1.419078369140625,0.11720971018075943,-0.10339411348104477,-0.7027446627616882
1782661171497149400,1.4291494140625,0.13244512677192688,-0.13674888014793396,-0.6120312809944153
1782661171507220500,1.439220458984375,0.1378353238105774,-0.14652352035045624,-0.49099501967430115
1782661171517291300,1.449291259765625,0.13895171880722046,-0.15525415539741516,-0.3608625829219818
1782661171527362300,1.4593623046875,0.15384501218795776,-0.16922339797019958,-0.2388620674610138
1782661171537433300,1.469433349609375,0.17799882590770721,-0.20250172913074493,-0.1412750482559204
1782661171547505000,1.4795048828125,0.21440164744853973,-0.24264934659004211,-0.07820503413677216
1782661171557576000,1.489575927734375,0.2523213326931,-0.2742519974708557,-0.04218071699142456
1782661171567646000,1.49964599609375,0.29136839509010315,-0.2769201695919037,-0.02869061753153801
1782661171577717000,1.509717041015625,0.3211989998817444,-0.2576969563961029,-0.011523880995810032
1782661171587788000,1.5197880859375,0.3404896557331085,-0.23844382166862488,0.012487362138926983
1782661171597858800,1.52985888671875,0.3517473638057709,-0.22364304959774017,0.046591803431510925
1782661171607929900,1.539929931640625,0.3525209426879883,-0.21201977133750916,0.07827092707157135
1782661171618001000,1.5500009765625,0.3500649631023407,-0.194957435131073,0.09951549023389816
1782661171628072000,1.560072021484375,0.342072457075119,-0.1811189502477646,0.10264892876148224
1782661171638143000,1.57014306640625,0.32850950956344604,-0.15970446169376373,0.0989798903465271
1782661171648214000,1.580214111328125,0.31358104944229126,-0.1196838766336441,0.09326741844415665
1782661171658284800,1.590284912109375,0.2953258752822876,-0.05751610919833183,0.09979908913373947
1782661171668355800,1.60035595703125,0.28983068466186523,0.0010728894267231226,0.13927266001701355
1782661171678427000,1.610427001953125,0.2875310480594635,0.035530734807252884,0.18601059913635254
1782661171688498000,1.620497802734375,0.2821922302246094,0.03841068595647812,0.22791364789009094
1782661171698569000,1.63056884765625,0.26485931873321533,0.029972460120916367,0.27390775084495544
1782661171708639000,1.640638916015625,0.24179472029209137,0.05088008567690849,0.3342053294181824
1782661171718710000,1.6507099609375,0.22611188888549805,0.08229179680347443,0.4145776927471161
1782661171728781000,1.660781005859375,0.19860221445560455,0.09629867970943451,0.5034137964248657
1782661171738852000,1.67085205078125,0.15768912434577942,0.06495833396911621,0.5685733556747437
1782661171748923100,1.680923095703125,0.1013944000005722,0.016783831641077995,0.5892635583877563
1782661171758994200,1.690994140625,0.04842333123087883,-0.002397052012383938,0.5453498959541321
1782661171769065000,1.70106494140625,-0.009210377931594849,0.01254626177251339,0.44892945885658264
1782661171779136000,1.711135986328125,-0.07927015423774719,0.04117124527692795,0.3386381268501282
1782661171789207000,1.72120703125,-0.14201867580413818,0.03265400975942612,0.25886043906211853
1782661171799278000,1.731278076171875,-0.19549442827701569,-0.015810195356607437,0.22306568920612335
1782661171809349000,1.74134912109375,-0.22446715831756592,-0.07418554276227951,0.23619472980499268
1782661171819420200,1.751420166015625,-0.2459370344877243,-0.09939289838075638,0.2879636585712433
1782661171829491000,1.761490966796875,-0.26357269287109375,-0.0788700059056282,0.35668379068374634
1782661171839561000,1.77156103515625,-0.2905965745449066,-0.03926293924450874,0.4055269658565521
1782661171849632000,1.781632080078125,-0.339961975812912,0.0008461454417556524,0.4190337657928467
1782661171859703000,1.791703125,-0.40408581495285034,0.06796979159116745,0.4081403613090515
1782661171869774000,1.801774169921875,-0.47161704301834106,0.12259542942047119,0.3880718946456909
1782661171879844900,1.811844970703125,-0.5176153779029846,0.15529558062553406,0.3702335059642792
1782661171889916000,1.821916015625,-0.5218719244003296,0.1773950755596161,0.348869651556015
1782661171899987000,1.831987060546875,-0.4933534860610962,0.21216556429862976,0.33254632353782654
1782661171910058000,1.84205810546875,-0.42924848198890686,0.23926033079624176,0.3200887441635132
1782661171920129000,1.85212890625,-0.331802636384964,0.25518521666526794,0.310725599527359
1782661171930200000,1.862199951171875,-0.21914111077785492,0.24871638417243958,0.32388681173324585
1782661171940270800,1.872270751953125,-0.11634495854377747,0.19810408353805542,0.36686649918556213
1782661171950342000,1.882341796875,-0.02210569940507412,0.10135206580162048,0.41552889347076416
1782661171960413000,1.892412841796875,0.06246005371212959,-0.005479039158672094,0.47278791666030884
1782661171970483000,1.90248291015625,0.1405431032180786,-0.07084793597459793,0.52987140417099
1782661171980554000,1.912553955078125,0.2057790905237198,-0.084713414311409,0.5648858547210693
1782661171990625000,1.922625,0.24765545129776,-0.09485984593629837,0.5530959367752075
1782661172000696000,1.932696044921875,0.27791693806648254,-0.09137190133333206,0.4844122529029846
1782661172010767000,1.94276708984375,0.30338889360427856,-0.012652957811951637,0.33526158332824707
1782661172020838100,1.952838134765625,0.3075743317604065,0.17986083030700684,0.09706340730190277
1782661172030909200,1.9629091796875,0.24130991101264954,0.39432287216186523,-0.20649117231369019
1782661172040980200,1.972980224609375,0.09119044989347458,0.5559413433074951,-0.4917929470539093
1782661172051051000,1.983051025390625,-0.10350809246301651,0.6489938497543335,-0.6923771500587463
1782661172061122000,1.9931220703125,-0.3125441372394562,0.6438880562782288,-0.7674189209938049
1782661172071193000,2.003193115234375,-0.49323755502700806,0.5673282146453857,-0.7100703716278076
1782661172081264000,2.01326416015625,-0.6328391432762146,0.49779602885246277,-0.5641451478004456
1782661172091334100,2.023334228515625,-0.6885289549827576,0.45438045263290405,-0.37119433283805847
1782661172101405000,2.033405029296875,-0.6532580852508545,0.45709583163261414,-0.1344694048166275
1782661172111476000,2.04347607421875,-0.5591365694999695,0.4383637309074402,0.12657402455806732
1782661172121547000,2.053547119140625,-0.4467757046222687,0.39833933115005493,0.38506364822387695
1782661172131618000,2.0636181640625,-0.33812782168388367,0.373503714799881,0.5997112393379211
1782661172141689000,2.073689208984375,-0.2307654470205307,0.390125036239624,0.7346323132514954
1782661172151760100,2.083760009765625,-0.12824437022209167,0.40961191058158875,0.7850329875946045
1782661172161831000,2.093830810546875,-0.050410281866788864,0.39860212802886963,0.7628214359283447
1782661172171902000,2.10390185546875,0.017850425094366074,0.33512401580810547,0.6799935698509216
1782661172181973000,2.113972900390625,0.08043231070041656,0.26457661390304565,0.5792248845100403
1782661172192044000,2.1240439453125,0.1372063308954239,0.18379437923431396,0.4918890595436096
1782661172202115000,2.134114990234375,0.19596071541309357,0.10850255936384201,0.43874382972717285
1782661172212184800,2.144184814453125,0.23922711610794067,0.02734522894024849,0.4227626323699951
1782661172222255900,2.154255859375,0.26917439699172974,-0.03819649666547775,0.44421494007110596
1782661172232327000,2.164326904296875,0.29810968041419983,-0.06848081201314926,0.49815455079078674
1782661172242398000,2.17439794921875,0.32742202281951904,-0.0843639001250267,0.5623546242713928
1782661172252469000,2.184468994140625,0.3611903488636017,-0.1214926466345787,0.6318409442901611
1782661172262540000,2.1945400390625,0.38701850175857544,-0.18195384740829468,0.6865752935409546
1782661172272610800,2.20461083984375,0.41348811984062195,-0.234003484249115,0.7147036790847778
1782661172282681900,2.214681884765625,0.4436412453651428,-0.2578057646751404,0.7154070734977722
1782661172292753000,2.2247529296875,0.4655715525150299,-0.2740415036678314,0.6762608885765076
1782661172302824000,2.234823974609375,0.4820820987224579,-0.2820402979850769,0.6090919971466064
1782661172312895000,2.24489501953125,0.4903280735015869,-0.28236761689186096,0.5183152556419373
1782661172322966000,2.254966064453125,0.49613988399505615,-0.2531958818435669,0.43891391158103943
1782661172333036000,2.2650361328125,0.4921376705169678,-0.21002145111560822,0.3737717270851135
1782661172343107000,2.275107177734375,0.47709959745407104,-0.15797263383865356,0.33139389753341675
1782661172353178000,2.28517822265625,0.4558221101760864,-0.08893515169620514,0.31024283170700073
1782661172363249200,2.295249267578125,0.4262320101261139,-0.0277482271194458,0.2940918207168579
1782661172373320200,2.3053203125,0.3931191861629486,0.023684963583946228,0.2817494571208954
1782661172383391000,2.315390869140625,0.36313703656196594,0.07156912982463837,0.28101152181625366
1782661172393462000,2.3254619140625,0.32844051718711853,0.11112131923437119,0.2745949923992157
1782661172403533000,2.335532958984375,0.2736899256706238,0.14111118018627167,0.2558572590351105
1782661172413604000,2.34560400390625,0.2119326889514923,0.17489640414714813,0.21814969182014465
1782661172423675100,2.355675048828125,0.12043871730566025,0.20831428468227386,0.16200385987758636
1782661172433746200,2.36574609375,-0.01974928192794323,0.22844459116458893,0.08997148275375366
1782661172443817000,2.37581689453125,-0.22689713537693024,0.2100868821144104,0.03318782523274422
1782661172453887000,2.385886962890625,-0.4710456430912018,0.11719715595245361,0.015959037467837334
1782661172463958000,2.3959580078125,-0.740572452545166,0.024341784417629242,0.01350014004856348
1782661172474029000,2.406029052734375,-0.9789693355560303,0.08952371031045914,-0.12724485993385315
1782661172484100000,2.41610009765625,-1.1421446800231934,0.49704593420028687,-0.6148701906204224
1782661172494171000,2.4261708984375,-1.2354378700256348,1.1697654724121094,-1.394124984741211
1782661172504242000,2.436241943359375,-1.2518304586410522,1.714845061302185,-2.12699818611145
1782661172514313000,2.44631298828125,-1.172433853149414,1.7497776746749878,-2.4707939624786377
1782661172524384000,2.456384033203125,-0.9755040407180786,1.3025370836257935,-2.354966163635254
1782661172534455000,2.466455078125,-0.6836693286895752,0.718887448310852,-1.8607170581817627
1782661172544525800,2.47652587890625,-0.4077112376689911,0.2622821033000946,-1.1198954582214355
1782661172554596600,2.4865966796875,-0.18875959515571594,-0.026689546182751656,-0.358588844537735
1782661172564666600,2.49666650390625,-0.00934296753257513,-0.16784347593784332,0.23947642743587494
1782661172574737700,2.506737548828125,0.1779877096414566,-0.1640869826078415,0.5668534636497498
1782661172584808700,2.51680859375,0.3515956997871399,-0.06335052847862244,0.6902816891670227
1782661172594879700,2.526879638671875,0.4150485098361969,0.03686244413256645,0.6926909685134888
1782661172604950800,2.53695068359375,0.38612791895866394,0.10039667785167694,0.6491831541061401
1782661172615021800,2.547021728515625,0.29030004143714905,0.14397114515304565,0.5957447290420532
1782661172625092900,2.5570927734375,0.185781329870224,0.16123321652412415,0.5475995540618896
1782661172635164000,2.567163818359375,0.11139735579490662,0.16682346165180206,0.48324716091156006
1782661172645235000,2.57723486328125,0.0686432346701622,0.1602209508419037,0.40159356594085693
1782661172655305700,2.5873056640625,0.03632469102740288,0.14908646047115326,0.33088093996047974
1782661172665376800,2.597376708984375,-0.005134868901222944,0.15514221787452698,0.2609767019748688
1782661172675447800,2.60744775390625,-0.037104975432157516,0.18161439895629883,0.177117720246315
1782661172685517800,2.617517822265625,-0.0579276978969574,0.19492433965206146,0.0782470703125
1782661172695588900,2.6275888671875,-0.047714393585920334,0.17885145545005798,-0.04196618124842644
1782661172705659600,2.63765966796875,-0.015402527526021004,0.12975367903709412,-0.175636887550354
1782661172715730700,2.647730712890625,0.017236532643437386,0.04610716924071312,-0.29207485914230347
1782661172725801700,2.6578017578125,0.045633021742105484,-0.055429842323064804,-0.3880186975002289
1782661172735872800,2.667872802734375,0.07445302605628967,-0.17362403869628906,-0.4582974314689636
1782661172745943800,2.67794384765625,0.09670080989599228,-0.29659417271614075,-0.49616119265556335
1782661172756014800,2.688014892578125,0.11788223683834076,-0.4172433614730835,-0.5025808215141296
1782661172766085600,2.698085693359375,0.13790041208267212,-0.5409993529319763,-0.4819711148738861
1782661172776156700,2.70815673828125,0.15985381603240967,-0.6377262473106384,-0.4348265826702118
1782661172786227700,2.718227783203125,0.17152272164821625,-0.6704866290092468,-0.36143144965171814
1782661172796297700,2.728297607421875,0.16506755352020264,-0.6457042694091797,-0.2791677415370941
1782661172806368800,2.73836865234375,0.14558254182338715,-0.5583301782608032,-0.20389802753925323
1782661172816439600,2.748439453125,0.12572063505649567,-0.4030606746673584,-0.13584987819194794
1782661172826510600,2.758510498046875,0.12189099937677383,-0.1927037239074707,-0.08566686511039734
1782661172836581600,2.76858154296875,0.14056828618049622,0.022810986265540123,-0.05319893732666969
1782661172846652700,2.778652587890625,0.17693747580051422,0.18401159346103668,-0.03390699625015259
1782661172856723700,2.7887236328125,0.22866910696029663,0.25427910685539246,-0.012513822875916958
1782661172866794800,2.798794677734375,0.2831677794456482,0.2742490768432617,0.009486017748713493
1782661172876865500,2.808865478515625,0.3220294117927551,0.24971364438533783,0.028079677373170853
1782661172886936600,2.8189365234375,0.3491305410861969,0.18654878437519073,0.035242512822151184
1782661172897006800,2.8290068359375,0.3573163151741028,0.09885035455226898,0.029959069564938545
1782661172907078000,2.839077880859375,0.3582305610179901,0.026609718799591064,0.017073631286621094
1782661172917149000,2.84914892578125,0.3484382629394531,-0.021248530596494675,-0.0020842370577156544
1782661172927219700,2.8592197265625,0.33712702989578247,-0.058924004435539246,-0.051354847848415375
1782661172937290800,2.869290771484375,0.33268430829048157,-0.08974645286798477,-0.12838822603225708
1782661172947361800,2.87936181640625,0.3311327397823334,-0.11888197064399719,-0.2361636906862259
1782661172957432800,2.889432861328125,0.34219568967819214,-0.1728149652481079,-0.3550141155719757
1782661172967504000,2.89950390625,0.3523982763290405,-0.2282092571258545,-0.4652407467365265
1782661172977575000,2.909574951171875,0.3637377619743347,-0.2698768079280853,-0.5405716300010681
1782661172987645700,2.919645751953125,0.38143715262413025,-0.3039016127586365,-0.5730409026145935
1782661172997716700,2.929716796875,0.3949590027332306,-0.3421592712402344,-0.5682176351547241
1782661173007786800,2.939786865234375,0.4083765149116516,-0.36830776929855347,-0.5205180048942566
1782661173017857800,2.94985791015625,0.4220695495605469,-0.36351969838142395,-0.44760942459106445
1782661173027928800,2.9599287109375,0.4205813705921173,-0.35906341671943665,-0.3746577203273773
1782661173037999600,2.96999951171875,0.4047735631465912,-0.3729453980922699,-0.3089201748371124
1782661173048070700,2.980070556640625,0.3952319920063019,-0.4035094082355499,-0.25409770011901855
1782661173058141700,2.9901416015625,0.3831692337989807,-0.45776841044425964,-0.22568461298942566
1782661173068212700,3.000212646484375,0.37133175134658813,-0.5069711208343506,-0.22775521874427795
1782661173078283800,3.01028369140625,0.36216557025909424,-0.5040342807769775,-0.24635665118694305
1782661173088354800,3.020354736328125,0.3479671776294708,-0.451664000749588,-0.26277050375938416
1782661173098425600,3.030425537109375,0.3125965893268585,-0.3800884187221527,-0.264743447303772
1782661173108496600,3.04049658203125,0.2561894953250885,-0.29971635341644287,-0.2433590441942215
1782661173118566700,3.050566650390625,0.18787242472171783,-0.21738259494304657,-0.20915381610393524
1782661173128637700,3.0606376953125,0.12518881261348724,-0.14311422407627106,-0.1576610654592514
1782661173138708700,3.070708740234375,0.08142790198326111,-0.05785508081316948,-0.09586751461029053
1782661173148779500,3.080779541015625,0.05973246321082115,0.02643236704170704,-0.028053043410182
1782661173158850600,3.0908505859375,0.06211511418223381,0.07887311279773712,0.04004081338644028
1782661173168921600,3.100921630859375,0.08221904933452606,0.08206198364496231,0.10726884752511978
1782661173178992600,3.11099267578125,0.11762869358062744,0.04834120348095894,0.17996932566165924
1782661173189063700,3.121063720703125,0.1560666263103485,-0.0005254050483927131,0.24068114161491394
1782661173199134700,3.131134765625,0.18782418966293335,-0.06283636391162872,0.27887582778930664
1782661173209205500,3.14120556640625,0.1900191754102707,-0.11663701385259628,0.2930193543434143
1782661173219275800,3.15127587890625,0.17558501660823822,-0.12033098191022873,0.2880902588367462
1782661173229346800,3.161346923828125,0.13347725570201874,-0.09685787558555603,0.24834951758384705
1782661173239417900,3.17141796875,0.08042174577713013,-0.08918487280607224,0.16749770939350128
1782661173249489000,3.181489013671875,0.04871867969632149,-0.09331969916820526,0.07657232880592346
1782661173259559700,3.1915595703125,0.016726171597838402,-0.06824248284101486,0.006871987134218216
1782661173269630700,3.201630615234375,-0.0021140961907804012,-0.045389629900455475,-0.02222464606165886
1782661173279701800,3.21170166015625,0.0008136425749398768,0.0006800497649237514,0.03270746394991875
1782661173289772800,3.221772705078125,0.04284924268722534,0.06302545219659805,0.17855387926101685
1782661173299843800,3.23184375,0.15696755051612854,0.06818059831857681,0.3886238932609558
1782661173309915000,3.241914794921875,0.3177393972873688,0.02442166395485401,0.6217826008796692
1782661173319985700,3.251985595703125,0.47727152705192566,-0.03376831114292145,0.8319709897041321
1782661173330055700,3.2620556640625,0.6068359017372131,-0.09355387836694717,0.9812800884246826
1782661173340126700,3.272126708984375,0.7069929838180542,-0.164835587143898,1.0516772270202637
1782661173350197800,3.28219775390625,0.8103744983673096,-0.2486114352941513,1.0460749864578247
1782661173360268800,3.292268798828125,0.8977268934249878,-0.3072492182254791,0.9665353894233704
1782661173370339600,3.302339599609375,0.9483815431594849,-0.3246481716632843,0.8162204623222351
1782661173380410600,3.31241064453125,0.9384085536003113,-0.2656872272491455,0.5953624248504639
1782661173390481700,3.322481689453125,0.8398218154907227,-0.11704632639884949,0.2970404624938965
1782661173400552700,3.332552734375,0.6409174799919128,0.07615978270769119,-0.0642789751291275
1782661173410623700,3.342623779296875,0.32450494170188904,0.23793083429336548,-0.4463597536087036
1782661173420693800,3.35269384765625,-0.0815700888633728,0.2791193723678589,-0.7599624991416931
1782661173430764800,3.362764892578125,-0.4973345398902893,0.20945508778095245,-0.9484456181526184
1782661173440835800,3.3728359375,-0.8217526078224182,0.1313423365354538,-1.0150426626205444
1782661173450907000,3.382906982421875,-1.0395736694335938,0.09622164070606232,-0.9834208488464355
1782661173460978000,3.39297802734375,-1.202284812927246,0.08137451857328415,-0.852787971496582
1782661173471048700,3.403048583984375,-1.3222754001617432,0.023451296612620354,-0.6711025834083557
1782661173481119700,3.41311962890625,-1.3991444110870361,-0.08263315260410309,-0.46472790837287903
1782661173491190800,3.423190673828125,-1.4245243072509766,-0.16706708073616028,-0.25747618079185486
1782661173501261800,3.43326171875,-1.4025764465332031,-0.14161142706871033,-0.08480855077505112
1782661173511332900,3.443332763671875,-1.3538906574249268,-0.025524232536554337,0.05792969465255737
1782661173521404000,3.45340380859375,-1.2983731031417847,0.10509823262691498,0.1798834204673767
1782661173531473700,3.4634736328125,-1.227988362312317,0.2178330421447754,0.29627156257629395
1782661173541544700,3.473544677734375,-1.1383615732192993,0.2996521592140198,0.40678590536117554
1782661173551616000,3.483615966796875,-1.033108115196228,0.31378796696662903,0.513299822807312
1782661173561687000,3.49368701171875,-0.9017269611358643,0.26177188754081726,0.6434290409088135
1782661173571758000,3.503758056640625,-0.7749237418174744,0.16322748363018036,0.7600025534629822
1782661173581829000,3.5138291015625,-0.6432497501373291,0.024631254374980927,0.8436872959136963
1782661173591900200,3.523900146484375,-0.5119372606277466,-0.12797586619853973,0.8782862424850464
1782661173601971200,3.53397119140625,-0.3927707374095917,-0.25936955213546753,0.8359740972518921
1782661173612042000,3.5440419921875,-0.2937765121459961,-0.3509940207004547,0.7386334538459778
1782661173622113000,3.554113037109375,-0.20546279847621918,-0.4567570388317108,0.6044954061508179
1782661173632183000,3.56418310546875,-0.15492533147335052,-0.5649495720863342,0.46192362904548645
1782661173642254000,3.574254150390625,-0.1548588126897812,-0.6056625843048096,0.3396536111831665
1782661173652325000,3.5843251953125,-0.1821546107530594,-0.5750282406806946,0.2317628413438797
1782661173662396000,3.59439599609375,-0.21660275757312775,-0.5233116745948792,0.12902557849884033
1782661173672467000,3.604467041015625,-0.22284440696239471,-0.48314958810806274,0.03434727340936661
1782661173682538000,3.6145380859375,-0.17956320941448212,-0.4772806167602539,-0.03833618015050888
1782661173692609000,3.624609130859375,-0.11093968152999878,-0.5155143141746521,-0.0781128853559494
1782661173702680000,3.63468017578125,-0.053893689066171646,-0.6034570336341858,-0.08373045921325684
1782661173712751000,3.644751220703125,-0.027960890904068947,-0.6957648396492004,-0.0715654045343399
1782661173722822000,3.65482177734375,-0.026233578100800514,-0.756122887134552,-0.06055053323507309
1782661173732893000,3.664892822265625,-0.024726761505007744,-0.7813563346862793,-0.04998231306672096
1782661173742963200,3.674963134765625,-0.010371210984885693,-0.7634331583976746,-0.035412516444921494
1782661173753034200,3.6850341796875,0.00938464980572462,-0.7239286303520203,-0.02407091297209263
1782661173763105000,3.69510498046875,0.044153597205877304,-0.6807823777198792,-0.011974398046731949
1782661173773176000,3.705176025390625,0.08131454885005951,-0.6194987893104553,-0.002282355446368456
1782661173783247000,3.7152470703125,0.10708512365818024,-0.5408915281295776,-0.0071444264613091946
1782661173793318100,3.725318115234375,0.11503946036100388,-0.42600810527801514,-0.012890462763607502
1782661173803389200,3.73538916015625,0.11817985773086548,-0.33503344655036926,0.004963102750480175
1782661173813460200,3.745460205078125,0.11486368626356125,-0.2618495225906372,0.07695287466049194
1782661173823531300,3.75553125,0.09496000409126282,-0.2275281697511673,0.21321754157543182
1782661173833602000,3.76560205078125,0.06228408217430115,-0.23642019927501678,0.39382699131965637
1782661173843672000,3.775672119140625,-0.005104622337967157,-0.2507811188697815,0.5897704362869263
1782661173853743000,3.7857431640625,-0.11794648319482803,-0.24109973013401031,0.7376450896263123
1782661173863814100,3.795814208984375,-0.26979973912239075,-0.1953127235174179,0.7470697164535522
1782661173873885000,3.805885009765625,-0.42631903290748596,-0.055707164108753204,0.4877696931362152
1782661173883956000,3.8159560546875,-0.5181601643562317,0.24617287516593933,-0.021194372326135635
1782661173894027000,3.826027099609375,-0.502665638923645,0.583959698677063,-0.5757521390914917
1782661173904098000,3.83609814453125,-0.4102012515068054,0.6751090288162231,-0.9386962652206421
1782661173914169000,3.846169189453125,-0.2864830195903778,0.480476438999176,-1.0066181421279907
1782661173924240100,3.856240234375,-0.17858436703681946,0.1562487632036209,-0.7936075925827026
1782661173934311200,3.866311279296875,-0.13382941484451294,-0.13272231817245483,-0.4171561896800995
1782661173944381000,3.876380859375,-0.14290249347686768,-0.2630978226661682,-0.00041354092536494136
1782661173954452000,3.886451904296875,-0.16543257236480713,-0.22758084535598755,0.35365450382232666
1782661173964523000,3.89652294921875,-0.1707426905632019,-0.1032002717256546,0.5763682723045349
1782661173974594000,3.906593994140625,-0.15556028485298157,0.06557649374008179,0.6626885533332825
1782661173984664800,3.916664794921875,-0.14847645163536072,0.2593214213848114,0.64668208360672
1782661173994735900,3.92673583984375,-0.1663486659526825,0.4168471395969391,0.5697841048240662
1782661174004807000,3.936806884765625,-0.20872101187705994,0.523417055606842,0.43868160247802734
1782661174014878000,3.9468779296875,-0.2259466052055359,0.6117940545082092,0.2681215703487396
1782661174024949000,3.956948974609375,-0.19780932366847992,0.6683970093727112,0.0741991251707077
1782661174035020000,3.96702001953125,-0.11722365021705627,0.6555840373039246,-0.13051646947860718
1782661174045090000,3.977090087890625,-0.01274858321994543,0.5720853805541992,-0.31313008069992065
1782661174055161000,3.9871611328125,0.07991131395101547,0.4402397572994232,-0.4445831775665283
1782661174065232100,3.997232177734375,0.15760771930217743,0.2874290645122528,-0.5177319645881653
1782661174075303200,4.00730322265625,0.2244357466697693,0.12441430985927582,-0.5378228425979614
1782661174085374200,4.017374267578125,0.27930206060409546,-0.02947269380092621,-0.5347751975059509
1782661174095445000,4.027445068359375,0.31729763746261597,-0.17496277391910553,-0.5416315197944641
1782661174105516000,4.03751611328125,0.3497796654701233,-0.2987332046031952,-0.5669350028038025
1782661174115587000,4.047587158203125,0.3685016632080078,-0.3604935109615326,-0.5949898362159729
1782661174125658000,4.057658203125,0.35863497853279114,-0.3611694276332855,-0.6066232323646545
1782661174135729200,4.067729248046875,0.3329666554927826,-0.3222856819629669,-0.592471718788147
1782661174145799000,4.077798828125,0.3044414818286896,-0.2552984952926636,-0.5519140362739563
1782661174155870000,4.087869873046875,0.2627984285354614,-0.17313116788864136,-0.507026731967926
1782661174165941000,4.09794091796875,0.21698811650276184,-0.07053640484809875,-0.44617223739624023
1782661174176012000,4.108011962890625,0.1746598333120346,0.06997410953044891,-0.383914977312088
1782661174186083000,4.1180830078125,0.14590008556842804,0.2307605892419815,-0.3096516728401184
1782661174196154000,4.128154052734375,0.11250564455986023,0.3495064377784729,-0.23880839347839355
1782661174206225000,4.138224853515625,0.0727212131023407,0.38685888051986694,-0.1740817278623581
1782661174216296000,4.1482958984375,0.04488053172826767,0.36333465576171875,-0.12832409143447876
1782661174226367000,4.158366943359375,0.030860083177685738,0.2982384264469147,-0.09630949795246124
1782661174236438000,4.16843798828125,0.024588871747255325,0.2361268550157547,-0.08533327281475067
1782661174246508000,4.178508056640625,0.029053829610347748,0.18001621961593628,-0.09744821488857269
1782661174256578800,4.188578857421875,0.033854976296424866,0.12211935967206955,-0.1201828196644783
1782661174266649900,4.19864990234375,0.04693141579627991,0.07894884794950485,-0.16038213670253754
1782661174276721000,4.208720947265625,0.05747406929731369,0.059650253504514694,-0.20216552913188934
1782661174286792000,4.2187919921875,0.055129438638687134,0.05640583112835884,-0.24267370998859406
1782661174296863000,4.228863037109375,0.03652379661798477,0.06863879412412643,-0.27822718024253845
1782661174306934000,4.23893408203125,0.007634402252733707,0.0861787497997284,-0.30554676055908203
1782661174317004800,4.2490048828125,-0.030670376494526863,0.11155414581298828,-0.3258206248283386
1782661174327075800,4.259075927734375,-0.0599466972053051,0.11849470436573029,-0.3494601845741272
1782661174337147000,4.26914697265625,-0.0727037712931633,0.08636659383773804,-0.37486356496810913
1782661174347217200,4.279217041015625,-0.06399349868297577,0.0009693602914921939,-0.4109794497489929
1782661174357288200,4.2892880859375,-0.0349581241607666,-0.11644275486469269,-0.45648807287216187
1782661174367359000,4.29935888671875,-0.0011317183962091804,-0.23688633739948273,-0.4959191083908081
1782661174377430000,4.309429931640625,0.05072402209043503,-0.3038933575153351,-0.5068172812461853
1782661174387501000,4.3195009765625,0.09650372713804245,-0.33796101808547974,-0.48536375164985657
1782661174397572000,4.329572021484375,0.13946931064128876,-0.35411709547042847,-0.42873749136924744
1782661174407643100,4.33964306640625,0.17966197431087494,-0.38092926144599915,-0.3444666266441345
1782661174417714200,4.349714111328125,0.2223612368106842,-0.4245574474334717,-0.22702334821224213
1782661174427785000,4.359784912109375,0.24461491405963898,-0.4851039946079254,-0.09523238986730576
1782661174437855000,4.36985498046875,0.24417071044445038,-0.5248463749885559,0.03339057043194771
1782661174447926000,4.379926025390625,0.21636228263378143,-0.53883296251297,0.13560792803764343
1782661174457997000,4.3899970703125,0.1666320115327835,-0.5130969285964966,0.19703826308250427
1782661174468068000,4.400068115234375,0.10922833532094955,-0.48131874203681946,0.206422358751297
1782661174478139000,4.410138916015625,0.0421888530254364,-0.438198447227478,0.17392194271087646
1782661174488210000,4.4202099609375,-0.02031926065683365,-0.3986603319644928,0.12417983263731003
1782661174498281000,4.430281005859375,-0.07406184822320938,-0.34680432081222534,0.08082277327775955
1782661174508352000,4.44035205078125,-0.12175139039754868,-0.29119765758514404,0.06760253012180328
1782661174518423000,4.450423095703125,-0.15708622336387634,-0.1934652179479599,0.08359987288713455
1782661174528492800,4.460492919921875,-0.19646629691123962,-0.07582812011241913,0.10802751779556274
1782661174538563800,4.470563720703125,-0.2535066604614258,-0.0004771751118823886,0.11795418709516525
1782661174548634400,4.48063427734375,-0.32793569564819336,0.019890187308192253,0.08830693364143372
1782661174558705400,4.490705322265625,-0.4071168005466461,0.003673134371638298,0.001737417420372367
1782661174568776400,4.5007763671875,-0.4978314936161041,-0.034455493092536926,-0.12206097692251205
1782661174578847500,4.510847412109375,-0.5822994709014893,-0.06332629173994064,-0.24840933084487915
1782661174588918500,4.52091845703125,-0.6414385437965393,-0.06992383301258087,-0.35217565298080444
1782661174598989600,4.530989501953125,-0.6689513921737671,-0.06574506312608719,-0.4153178632259369
1782661174609060600,4.541060546875,-0.6440139412879944,-0.05564017966389656,-0.4285460114479065
1782661174619130400,4.55113037109375,-0.5648983120918274,-0.036702707409858704,-0.37472885847091675
1782661174629201400,4.561201416015625,-0.4549296200275421,-0.0015153699787333608,-0.2538459599018097
1782661174639272400,4.5712724609375,-0.3296465277671814,0.06717181205749512,-0.07066816836595535
1782661174649343500,4.581343505859375,-0.2338043451309204,0.16970041394233704,0.15037471055984497
1782661174659414300,4.591414306640625,-0.1712152659893036,0.2816924750804901,0.39160439372062683
1782661174669485300,4.6014853515625,-0.1616009920835495,0.3450164496898651,0.608191967010498
1782661174679556400,4.611556396484375,-0.17818449437618256,0.331880658864975,0.7677581906318665
1782661174689627400,4.62162744140625,-0.19400130212306976,0.2597573399543762,0.8592860102653503
1782661174699698400,4.631698486328125,-0.19211497902870178,0.15768425166606903,0.877845287322998
1782661174709768200,4.641768310546875,-0.1795806586742401,0.0686657577753067,0.8280912041664124
1782661174719839200,4.651839111328125,-0.16141603887081146,-0.011908717453479767,0.7213796377182007
1782661174729910300,4.66191015625,-0.1408347487449646,-0.07981964945793152,0.5737117528915405
1782661174739981300,4.671981201171875,-0.10758758336305618,-0.1213172897696495,0.4346412420272827
1782661174750052400,4.68205224609375,-0.09304949641227722,-0.14229454100131989,0.31567567586898804
1782661174760123400,4.692123291015625,-0.09195547550916672,-0.1762559711933136,0.22457851469516754
1782661174770194200,4.702194091796875,-0.093875452876091,-0.2072238326072693,0.15283316373825073
1782661174780265200,4.71226513671875,-0.12028629332780838,-0.22046799957752228,0.09985384345054626
1782661174790336300,4.722336181640625,-0.1669381558895111,-0.18776334822177887,0.07483439147472382
1782661174800406500,4.732406494140625,-0.2269543558359146,-0.11582124978303909,0.05678774416446686
1782661174810477600,4.7424775390625,-0.2820722758769989,-0.05445994809269905,0.04648703709244728
1782661174820548400,4.75254833984375,-0.29926323890686035,-0.01841139793395996,0.0511142797768116
1782661174830619400,4.762619384765625,-0.27111127972602844,0.00922420620918274,0.07187104225158691
1782661174840690400,4.7726904296875,-0.21607570350170135,0.014759319834411144,0.10063797235488892
1782661174850761500,4.782761474609375,-0.12567608058452606,0.007700765039771795,0.1312660127878189
1782661174860832500,4.79283251953125,-0.033520057797431946,-0.0015550510725006461,0.16311156749725342
1782661174870903600,4.802903564453125,0.0435178242623806,0.004217846319079399,0.18182674050331116
1782661174880974300,4.812974365234375,0.0844748467206955,0.034582141786813736,0.1786557137966156
1782661174891044400,4.82304443359375,0.079897940158844,0.06644780188798904,0.1499442607164383
1782661174901115400,4.833115478515625,0.046190045773983,0.0863267034292221,0.10390965640544891
1782661174911186400,4.8431865234375,0.015680795535445213,0.07549580186605453,0.041464947164058685
1782661174921257500,4.853257568359375,0.006604741793125868,0.03622695803642273,-0.014373550191521645
1782661174931328300,4.863328369140625,0.017133617773652077,0.008526308462023735,-0.06481606513261795
1782661174941399300,4.8733994140625,0.051968567073345184,-0.04215684160590172,-0.10765247792005539
1782661174951470300,4.88347021484375,0.10121236741542816,-0.18320320546627045,-0.13626009225845337
1782661174961541400,4.893541259765625,0.15229418873786926,-0.3519384264945984,-0.13154549896717072
1782661174971612400,4.9036123046875,0.21188418567180634,-0.47572505474090576,-0.09669535607099533
1782661174981682200,4.91368212890625,0.2836124300956726,-0.5160293579101562,-0.03398430719971657
1782661174991753200,4.923753173828125,0.38380762934684753,-0.48909035325050354,0.05705590173602104
1782661175001824300,4.93382421875,0.48834070563316345,-0.4358537495136261,0.1625913828611374
1782661175011895300,4.943895263671875,0.563848614692688,-0.39288821816444397,0.25694599747657776
1782661175021966300,4.95396630859375,0.5904541611671448,-0.3506086766719818,0.3431679606437683
1782661175032037400,4.964037353515625,0.5540056824684143,-0.2840152978897095,0.401228129863739
1782661175042108400,4.9741083984375,0.4529224634170532,-0.21721310913562775,0.40447771549224854
1782661175052179500,4.984179443359375,0.31730297207832336,-0.1780531406402588,0.36526012420654297
1782661175062249500,4.99424951171875,0.19172883033752441,-0.14949260652065277,0.296222984790802
1782661175072320500,5.004320556640625,0.10854978859424591,-0.13409192860126495,0.22504213452339172
1782661175082391600,5.0143916015625,0.05576486885547638,-0.08036530762910843,0.16961322724819183
1782661175092462300,5.02446240234375,0.023747235536575317,-0.005574958864599466,0.1359921544790268
1782661175102533400,5.034533447265625,-0.0010587783763185143,0.07297497987747192,0.11447728425264359
1782661175112604400,5.0446044921875,-0.02886345610022545,0.1410524547100067,0.09196432679891586
1782661175122675500,5.054675537109375,-0.05064518377184868,0.17843018472194672,0.0877876952290535
1782661175132746500,5.06474658203125,-0.054218590259552,0.2015404999256134,0.0972207710146904
1782661175142816300,5.074816162109375,-0.03073457069694996,0.18417295813560486,0.11188307404518127
1782661175152887300,5.08488720703125,0.0024847122840583324,0.1364649385213852,0.14014583826065063
1782661175162958300,5.094958251953125,0.014720072969794273,0.08467976003885269,0.16956232488155365
1782661175173029400,5.105029296875,-0.006436905823647976,0.033800236880779266,0.19918707013130188
1782661175183100400,5.115100341796875,-0.04535927250981331,-0.007856926880776882,0.22879396378993988
1782661175193171500,5.12517138671875,-0.08613414317369461,-0.044516421854496,0.2632303237915039
1782661175203242200,5.1352421875,-0.13273972272872925,-0.06310208886861801,0.3000365197658539
1782661175213313300,5.145313232421875,-0.18800824880599976,-0.033470287919044495,0.3217184841632843
1782661175223384300,5.15538427734375,-0.24974937736988068,0.06882812082767487,0.3116978108882904
1782661175233454600,5.16545458984375,-0.30535364151000977,0.2453685849905014,0.2422293722629547
1782661175243525600,5.175525634765625,-0.3369770646095276,0.47410428524017334,0.055303964763879776
1782661175253596400,5.185596435546875,-0.34065020084381104,0.6642484664916992,-0.22425273060798645
1782661175263667500,5.19566748046875,-0.327509343624115,0.7275358438491821,-0.4841192066669464
1782661175273738500,5.205738525390625,-0.2807842791080475,0.665154755115509,-0.628307580947876
1782661175283809500,5.2158095703125,-0.2275380939245224,0.5206471085548401,-0.6768122911453247
1782661175293880600,5.225880615234375,-0.18262365460395813,0.364863783121109,-0.6380686163902283
1782661175303951600,5.23595166015625,-0.15512092411518097,0.23719452321529388,-0.5266488790512085
1782661175314021400,5.246021484375,-0.13945335149765015,0.15337729454040527,-0.35846278071403503
1782661175324092400,5.256092529296875,-0.12852640450000763,0.13254843652248383,-0.16534017026424408
1782661175334163500,5.26616357421875,-0.11825390160083771,0.15042005479335785,0.038644060492515564
1782661175344234500,5.276234375,-0.09933720529079437,0.21447999775409698,0.23802879452705383
1782661175354305500,5.286305419921875,-0.08023685961961746,0.33045056462287903,0.41947489976882935
1782661175364376300,5.296376220703125,-0.07116027176380157,0.4957321882247925,0.5616488456726074
1782661175374446300,5.3064462890625,-0.06258942186832428,0.6469796299934387,0.6597321033477783
1782661175384517400,5.316517333984375,-0.044988855719566345,0.7370938062667847,0.6951819658279419
1782661175394588400,5.32658837890625,-0.012887886725366116,0.7620806694030762,0.6864868998527527
1782661175404658400,5.336658447265625,0.02489757537841797,0.7053585052490234,0.6392623782157898
1782661175414729500,5.3467294921875,0.06804219633340836,0.5960457921028137,0.5599936842918396
1782661175424800500,5.356800537109375,0.11581931263208389,0.48827624320983887,0.46031877398490906
1782661175434871600,5.36687158203125,0.1647210419178009,0.40543586015701294,0.3582203686237335
1782661175444942600,5.376942626953125,0.19718870520591736,0.3543585538864136,0.2408199906349182
1782661175455013600,5.387013671875,0.1993074268102646,0.31558412313461304,0.09931357204914093
1782661175465084400,5.39708447265625,0.1788831204175949,0.2575637102127075,-0.05219818651676178
1782661175475155500,5.407155517578125,0.1276405155658722,0.18970544636249542,-0.17873626947402954
1782661175485225500,5.4172255859375,0.0724174752831459,0.12467743456363678,-0.23614737391471863
1782661175495296500,5.427296630859375,0.030114369466900826,0.0591486394405365,-0.2199542373418808
1782661175505367600,5.437367431640625,-0.023263100534677505,0.008229001425206661,-0.17268845438957214
1782661175515438300,5.447438232421875,-0.09351743012666702,-0.050466954708099365,-0.14665530622005463
1782661175525509400,5.45750927734375,-0.15780533850193024,-0.1200907751917839,-0.16417543590068817
1782661175535580400,5.467580322265625,-0.2065768837928772,-0.18225497007369995,-0.2155151516199112
1782661175545651500,5.4776513671875,-0.2251761257648468,-0.21601825952529907,-0.2890506088733673
1782661175555722800,5.48772265625,-0.23831479251384735,-0.19716854393482208,-0.3827367126941681
1782661175565792800,5.497792724609375,-0.24510185420513153,-0.08790037781000137,-0.4754392206668854
1782661175575863800,5.50786376953125,-0.24782980978488922,0.09002760797739029,-0.5678212642669678
1782661175585934600,5.5179345703125,-0.2363036572933197,0.2485962063074112,-0.6322124600410461
1782661175596005600,5.528005615234375,-0.22316084802150726,0.31999197602272034,-0.6280112862586975
1782661175606076700,5.53807666015625,-0.20442098379135132,0.30304068326950073,-0.5526145100593567
1782661175616147700,5.548147705078125,-0.16834574937820435,0.25243279337882996,-0.41309571266174316
1782661175626218800,5.55821875,-0.11939100176095963,0.19324350357055664,-0.23453263938426971
1782661175636289800,5.568289794921875,-0.06476739794015884,0.13299842178821564,-0.06962075084447861
1782661175646359800,5.57835986328125,-0.018115466460585594,0.0762067660689354,0.04715646058320999
1782661175656430800,5.588430908203125,0.03155148774385452,0.0219718087464571,0.09912306070327759
1782661175666502000,5.598501953125,0.09722770750522614,-0.015236014500260353,0.10439398884773254
1782661175676572700,5.60857275390625,0.171843022108078,0.010406083427369595,0.07120488584041595
1782661175686643700,5.618643798828125,0.22954732179641724,0.07357253134250641,0.016576264053583145
1782661175696714800,5.62871484375,0.2715087831020355,0.1442558914422989,-0.04405667632818222
1782661175706785800,5.638785888671875,0.2944689691066742,0.20327314734458923,-0.10279109328985214
1782661175716856800,5.64885693359375,0.3128761053085327,0.23032522201538086,-0.14248158037662506
1782661175726926800,5.6589267578125,0.33430764079093933,0.23588643968105316,-0.16712301969528198
1782661175736998000,5.668997802734375,0.35736361145973206,0.20128022134304047,-0.1700303554534912
1782661175747068700,5.679068603515625,0.38676226139068604,0.14170876145362854,-0.14857646822929382
1782661175757139700,5.6891396484375,0.41347259283065796,0.10260022431612015,-0.11592065542936325
1782661175767211800,5.699211669921875,0.42088043689727783,0.07813136279582977,-0.0744352638721466
1782661175777282800,5.70928271484375,0.4185597002506256,0.043769434094429016,-0.03765256702899933
1782661175787353900,5.719353759765625,0.41144347190856934,-0.013473350554704666,-0.013128848746418953
1782661175797423900,5.729423828125,0.38836637139320374,-0.082033671438694,0.001322711817920208
1782661175807494700,5.73949462890625,0.3460751175880432,-0.1358199268579483,0.006858624517917633
1782661175817565700,5.749565673828125,0.2827984094619751,-0.1517404168844223,-0.007654188200831413
1782661175827636700,5.75963671875,0.18515413999557495,-0.1256377100944519,-0.059360258281230927
1782661175837707800,5.769707763671875,0.057316288352012634,-0.07797528058290482,-0.14485128223896027
1782661175847778800,5.77977880859375,-0.08870376646518707,-0.02444520778954029,-0.23809467256069183
1782661175857849900,5.789849853515625,-0.23608900606632233,0.09827195107936859,-0.2672760486602783
1782661175867920600,5.799920654296875,-0.4297415614128113,0.23412245512008667,-0.17856457829475403
1782661175877990700,5.80999072265625,-0.5745953321456909,0.20517760515213013,-0.1225709393620491
1782661175888061700,5.820061767578125,-0.595668375492096,0.17666499316692352,-0.09117067605257034
1782661175898132700,5.8301328125,-0.576376736164093,0.18348026275634766,-0.0876462310552597
1782661175908203800,5.840203857421875,-0.5390773415565491,0.18629176914691925,-0.0668267011642456
1782661175918274600,5.850274658203125,-0.4966949224472046,0.16962023079395294,-0.04292546957731247
1782661175928345600,5.860345703125,-0.4602697789669037,0.04420905187726021,-0.0354238785803318
1782661175938416600,5.870416748046875,-0.3997035324573517,-0.070229671895504,-0.04518476128578186
1782661175948487000,5.88048681640625,-0.3089294135570526,-0.07147203385829926,-0.027214813977479935
1782661175958558000,5.890557861328125,-0.2674240171909332,-0.051890745759010315,0.028258459642529488
1782661175968628700,5.900628662109375,-0.25197234749794006,-0.09210580587387085,0.10766566544771194
1782661175978699800,5.91069970703125,-0.2408880889415741,-0.10488695651292801,0.21137797832489014
1782661175988770800,5.920770751953125,-0.2586742639541626,-0.1505814641714096,0.2797554135322571
