time,seconds_elapsed,z,y,x
1782811633823314200,0.079314208984375,-0.3791665732860565,-0.5008796453475952,0.3839583098888397
1782811633833386200,0.08938623046875,-0.4128119647502899,-0.44219881296157837,0.4666544198989868
1782811633843457300,0.099457275390625,-0.42778822779655457,-0.36837679147720337,0.5330281257629395
1782811633853529000,0.109529052734375,-0.4157281816005707,-0.2936616539955139,0.5614966154098511
1782811633863601200,0.11960107421875,-0.3656160235404968,-0.2744477391242981,0.5580430626869202
1782811633873673200,0.129673095703125,-0.2853080630302429,-0.29573336243629456,0.5788682699203491
1782811633883745300,0.139745361328125,-0.1676964908838272,-0.28338348865509033,0.6541579961776733
1782811633893817000,0.149817138671875,-0.06588535010814667,-0.1929498016834259,0.7735905051231384
1782811633903889200,0.15988916015625,-0.05005338788032532,-0.09333053976297379,0.8498498201370239
1782811633913961200,0.169961181640625,-0.062183234840631485,-0.08942964673042297,0.8406932950019836
1782811633924033300,0.180033203125,-0.1033349260687828,-0.04813121259212494,0.7373732924461365
1782811633934105000,0.19010498046875,-0.17232751846313477,0.0655500665307045,0.5679843425750732
1782811633944177200,0.20017724609375,-0.24684329330921173,0.1570480316877365,0.40946632623672485
1782811633954249200,0.210249267578125,-0.3148057162761688,0.23559322953224182,0.30919700860977173
1782811633964320300,0.2203203125,-0.3634296953678131,0.30896463990211487,0.2699612081050873
1782811633974392000,0.23039208984375,-0.3893721401691437,0.4467311501502991,0.2590026557445526
1782811633984464100,0.240464111328125,-0.360882967710495,0.635930597782135,0.22006990015506744
1782811633994536200,0.2505361328125,-0.26953545212745667,0.8636298179626465,0.13605350255966187
1782811634004608300,0.260608154296875,-0.09002001583576202,1.1353139877319336,0.009738709777593613
1782811634014680000,0.27068017578125,0.04626071825623512,1.3061429262161255,-0.03251710906624794
1782811634024752000,0.280752197265625,0.17333024740219116,1.2610583305358887,0.02014024555683136
1782811634034824200,0.29082421875,0.21185767650604248,1.1480989456176758,0.10731133818626404
1782811634044896000,0.30089599609375,0.0652482658624649,1.031281590461731,0.17227967083454132
1782811634054968000,0.310968017578125,-0.18945513665676117,0.8442850112915039,0.17472901940345764
1782811634065040100,0.3210400390625,-0.4600999355316162,0.6166585087776184,0.12089348584413528
1782811634075112200,0.3311123046875,-0.6709023118019104,0.4036944508552551,0.04627253860235214
1782811634085183200,0.341183349609375,-0.7808660864830017,0.30354148149490356,-0.007750748656690121
1782811634095255000,0.351255126953125,-0.8245313167572021,0.3879663646221161,-0.030453316867351532
1782811634105327000,0.3613271484375,-0.8407936692237854,0.5398712158203125,-0.02694779820740223
1782811634115399200,0.371399169921875,-0.8580471277236938,0.681964635848999,-0.01005608681589365
1782811634125471200,0.38147119140625,-0.8615782260894775,0.7860808968544006,-0.040870193392038345
1782811634135543000,0.39154296875,-0.792640209197998,0.9157987236976624,-0.1313437670469284
1782811634145615000,0.401614990234375,-0.6459391713142395,1.1129709482192993,-0.2594008147716522
1782811634155687200,0.411687255859375,-0.44559499621391296,1.2900758981704712,-0.37792786955833435
1782811634165759000,0.421759033203125,-0.2340175062417984,1.378808856010437,-0.449754923582077
1782811634175831300,0.431831298828125,-0.05233965814113617,1.3955799341201782,-0.4433402419090271
1782811634185903400,0.4419033203125,0.06527405977249146,1.36469304561615,-0.3455710709095001
1782811634195975400,0.451975341796875,0.08704729378223419,1.3674066066741943,-0.17066647112369537
1782811634206047200,0.462047119140625,0.026842545717954636,1.4506417512893677,0.01640995591878891
1782811634216118000,0.472117919921875,0.09267411381006241,1.3527164459228516,0.16335128247737885
1782811634226190000,0.482190185546875,0.2877301573753357,0.9660965800285339,0.3155336380004883
1782811634236262100,0.49226220703125,0.4390958845615387,0.5847596526145935,0.47133246064186096
1782811634246334200,0.502334228515625,0.5096585154533386,0.17449040710926056,0.5314445495605469
1782811634256406300,0.51240625,0.5072255730628967,0.02359764836728573,0.43277761340141296
1782811634266478300,0.522478271484375,0.556298553943634,-0.07752709835767746,0.18012885749340057
1782811634276550400,0.53255029296875,0.7770133018493652,-0.06815024465322495,-0.13943986594676971
1782811634286622200,0.542622314453125,1.0859826803207397,-0.027413733303546906,-0.5172781944274902
1782811634296694300,0.5526943359375,1.3599929809570312,-0.0018285908736288548,-0.9232509136199951
1782811634306766300,0.562766357421875,1.581831693649292,-0.1322087049484253,-1.2541491985321045
1782811634316838100,0.572838134765625,1.7616418600082397,-0.3130461275577545,-1.4804686307907104
1782811634326910200,0.58291015625,1.8134169578552246,-0.5180991291999817,-1.61098051071167
1782811634336981200,0.592981201171875,1.5981570482254028,-0.769582211971283,-1.6719715595245361
1782811634347053300,0.60305322265625,1.0438737869262695,-1.2026017904281616,-1.752943754196167
1782811634357125400,0.61312548828125,0.13888369500637054,-1.8788201808929443,-2.078218698501587
1782811634367197200,0.623197265625,-1.0423402786254883,-2.727781295776367,-2.851236581802368
1782811634377269200,0.633269287109375,-1.759861946105957,-3.1838269233703613,-3.830308198928833
1782811634387341300,0.64334130859375,-1.9997456073760986,-3.2622618675231934,-4.665070056915283
1782811634397413400,0.653413330078125,-1.9976431131362915,-2.861168146133423,-5.027805328369141
1782811634407485400,0.6634853515625,-1.7471909523010254,-2.2625908851623535,-4.819899559020996
1782811634417557500,0.6735576171875,-1.3733224868774414,-1.7574557065963745,-4.1421990394592285
1782811634427629600,0.683629638671875,-1.0067611932754517,-1.2960397005081177,-3.132545232772827
1782811634437701400,0.693701416015625,-0.6893659830093384,-0.9251672625541687,-2.0325968265533447
1782811634447773400,0.7037734375,-0.43648871779441833,-0.6445427536964417,-1.1112288236618042
1782811634457844500,0.713844482421875,-0.2891763746738434,-0.41852232813835144,-0.4759167432785034
1782811634467916500,0.72391650390625,-0.25783416628837585,-0.23415274918079376,-0.10298975557088852
1782811634477988600,0.733988525390625,-0.3105582594871521,-0.023511704057455063,0.08518848568201065
1782811634488060400,0.744060302734375,-0.4124649167060852,0.17839078605175018,0.19219349324703217
1782811634498132500,0.754132568359375,-0.5251318216323853,0.2575758695602417,0.32599925994873047
1782811634508204500,0.76420458984375,-0.6074474453926086,0.1770637035369873,0.503700315952301
1782811634518276600,0.774276611328125,-0.6511398553848267,0.04962703213095665,0.6359966993331909
1782811634528348700,0.7843486328125,-0.6685814261436462,0.009365894831717014,0.6769947409629822
1782811634538420700,0.794420654296875,-0.655504584312439,0.11014736443758011,0.6460018157958984
1782811634548492500,0.804492431640625,-0.6010064482688904,0.26569220423698425,0.6065308451652527
1782811634558564600,0.814564697265625,-0.5180880427360535,0.414745569229126,0.5996947884559631
1782811634568636700,0.82463671875,-0.3894456923007965,0.5747802257537842,0.6254070997238159
1782811634578707500,0.83470751953125,-0.21785672008991241,0.7120491862297058,0.6555614471435547
1782811634588779800,0.84477978515625,-0.03925953432917595,0.7506903409957886,0.6863659620285034
1782811634598851600,0.8548515625,0.11872757971286774,0.6837940216064453,0.7208645939826965
1782811634608923600,0.864923583984375,0.2638341784477234,0.5515853762626648,0.7812155485153198
1782811634618995700,0.87499560546875,0.39223796129226685,0.3767522871494293,0.901296079158783
1782811634629067800,0.88506787109375,0.4764085114002228,0.17232057452201843,1.0771722793579102
1782811634639139600,0.8951396484375,0.5198862552642822,0.034357380121946335,1.2936969995498657
1782811634649211600,0.905211669921875,0.5331613421440125,-0.004251798149198294,1.5037187337875366
1782811634659283700,0.91528369140625,0.5220628380775452,0.012475557625293732,1.6480674743652344
1782811634669355500,0.92535546875,0.5264090895652771,0.05897754803299904,1.6787891387939453
1782811634679427600,0.935427490234375,0.5544724464416504,0.08097845315933228,1.6273366212844849
1782811634689499600,0.945499755859375,0.5925694704055786,0.03936735913157463,1.585864543914795
1782811634699570700,0.95557080078125,0.6550486087799072,-0.003378010354936123,1.6476349830627441
1782811634709642800,0.965642822265625,0.7542369365692139,0.003248999360948801,1.8304013013839722
1782811634719714600,0.975714599609375,0.8372127413749695,0.04846794903278351,2.2025787830352783
1782811634729786600,0.98578662109375,0.8981853127479553,0.21041610836982727,2.6840667724609375
1782811634739858700,0.995858642578125,0.9497705101966858,0.48067599534988403,3.065852403640747
1782811634749930500,1.005930419921875,0.9983652234077454,0.6622322201728821,3.1077520847320557
1782811634760002600,1.01600244140625,1.0009883642196655,0.6078431010246277,2.8205795288085938
1782811634770074600,1.02607470703125,1.0095990896224976,0.3339140713214874,2.3687140941619873
1782811634780146700,1.036146728515625,1.0771156549453735,-0.028957337141036987,1.9884274005889893
1782811634790218500,1.046218505859375,1.2129157781600952,-0.2553422749042511,1.8691226243972778
1782811634800290600,1.05629052734375,1.2690434455871582,-0.2715839445590973,2.009063720703125
1782811634810362600,1.066362548828125,1.0088683366775513,-0.2529979944229126,2.124065637588501
1782811634820433700,1.07643359375,0.5640367269515991,-0.2886132597923279,1.8830643892288208
1782811634830505700,1.086505615234375,0.15483640134334564,-0.43376457691192627,1.2651293277740479
1782811634840577500,1.09657763671875,-0.13873352110385895,-0.5232477784156799,0.5772647857666016
1782811634850649600,1.106649658203125,-0.3634369373321533,-0.2702291011810303,0.09627284854650497
1782811634860721700,1.1167216796875,-0.5564395189285278,0.2832925021648407,-0.19560207426548004
1782811634870793500,1.12679345703125,-0.7236899733543396,0.8574841618537903,-0.4603674113750458
1782811634880865500,1.136865478515625,-0.8703488707542419,1.1998600959777832,-0.7972016930580139
1782811634890937600,1.1469375,-0.9957861304283142,1.2007815837860107,-1.2069920301437378
1782811634901009700,1.157009765625,-1.0613949298858643,0.8467087149620056,-1.6243422031402588
1782811634911081500,1.16708154296875,-1.059312343597412,0.2009669840335846,-1.9394623041152954
1782811634921153500,1.177153564453125,-1.0247604846954346,-0.5784671306610107,-2.0534825325012207
1782811634931225600,1.1872255859375,-0.9987072944641113,-1.254416584968567,-1.9795758724212646
1782811634941296600,1.197296630859375,-0.9708431363105774,-1.6086550951004028,-1.794769525527954
1782811634951368400,1.207368408203125,-0.9431785345077515,-1.6243128776550293,-1.6158264875411987
1782811634961440500,1.2174404296875,-0.9019895195960999,-1.330926537513733,-1.5457872152328491
1782811634971512600,1.2275126953125,-0.8457717895507812,-0.9235473275184631,-1.5969595909118652
1782811634981584600,1.237584716796875,-0.8147670030593872,-0.5767113566398621,-1.6804568767547607
1782811634991656400,1.247656494140625,-0.7824676632881165,-0.45159685611724854,-1.6984035968780518
1782811635001728500,1.257728515625,-0.7519618272781372,-0.5384596586227417,-1.6218703985214233
1782811635011800600,1.267800537109375,-0.7437204122543335,-0.598206102848053,-1.4737677574157715
1782811635021872600,1.27787255859375,-0.726725697517395,-0.5494300127029419,-1.281332015991211
1782811635031944400,1.2879443359375,-0.7053785920143127,-0.44593825936317444,-1.0546492338180542
1782811635042016500,1.2980166015625,-0.6801624298095703,-0.3689119815826416,-0.7745802402496338
1782811635052088600,1.308088623046875,-0.6229140162467957,-0.31624850630760193,-0.41333839297294617
1782811635062159600,1.31815966796875,-0.5267646908760071,-0.23920021951198578,-0.0053649586625397205
1782811635072231400,1.3282314453125,-0.4073783755302429,-0.11904583871364594,0.3887423872947693
1782811635082303500,1.338303466796875,-0.26785868406295776,0.010526616126298904,0.6994997262954712
1782811635092375600,1.34837548828125,-0.13242335617542267,0.120873361825943,0.8827233910560608
1782811635102447600,1.358447509765625,-0.008430104702711105,0.17901021242141724,0.9454444050788879
1782811635112519400,1.36851953125,0.08123452961444855,0.19618840515613556,0.9086400866508484
1782811635122591500,1.378591552734375,0.11801675707101822,0.17430394887924194,0.8104205131530762
1782811635132663600,1.38866357421875,0.10164763778448105,0.09862302988767624,0.6860783696174622
1782811635142735400,1.3987353515625,0.03690151870250702,0.0016327195335179567,0.592606246471405
1782811635152807400,1.408807373046875,-0.04858248680830002,-0.06304587423801422,0.5801112055778503
1782811635162879500,1.41887939453125,-0.12610621750354767,-0.09075777977705002,0.6256007552146912
1782811635172950500,1.428950439453125,-0.18789848685264587,-0.12440202385187149,0.6950743794441223
1782811635183022600,1.439022705078125,-0.2134547084569931,-0.15408295392990112,0.7281058430671692
1782811635193094400,1.449094482421875,-0.2217904031276703,-0.23038224875926971,0.6958432197570801
1782811635203166500,1.45916650390625,-0.2487180382013321,-0.38914141058921814,0.564246416091919
1782811635213238500,1.469238525390625,-0.2677047848701477,-0.5970066785812378,0.34930741786956787
1782811635223310600,1.479310546875,-0.2542835474014282,-0.7343059182167053,0.16859681904315948
1782811635233382400,1.48938232421875,-0.20912006497383118,-0.8319792151451111,0.09750134497880936
1782811635243454500,1.499454345703125,-0.1346898376941681,-0.9426345825195312,0.18183206021785736
1782811635253526800,1.50952685546875,-0.010347104631364346,-0.9293012022972107,0.4558793306350708
1782811635263598600,1.5195986328125,0.11869417876005173,-0.6769424080848694,0.8994778990745544
1782811635273670700,1.529670654296875,0.1989392191171646,-0.24995563924312592,1.4081547260284424
1782811635283742700,1.53974267578125,0.20064464211463928,0.26685184240341187,1.840315580368042
1782811635293813500,1.5498134765625,0.15706387162208557,0.6028900742530823,1.9911434650421143
1782811635303885600,1.559885498046875,0.13980811834335327,0.7243685722351074,1.8023535013198853
1782811635313957600,1.56995751953125,0.1949201077222824,0.7388226389884949,1.417344570159912
1782811635324029700,1.58002978515625,0.2760479152202606,0.5691394209861755,0.9749312996864319
1782811635334101800,1.590101806640625,0.24032266438007355,0.23341546952724457,0.5582861304283142
1782811635344173600,1.600173583984375,0.06252355128526688,-0.14498472213745117,0.12834955751895905
1782811635354245600,1.61024560546875,-0.21507316827774048,-0.3288048803806305,-0.3752928078174591
1782811635364317700,1.620317626953125,-0.5070362687110901,-0.3375376760959625,-0.9814147353172302
1782811635374389800,1.6303896484375,-0.7368801236152649,-0.31222060322761536,-1.5964858531951904
1782811635384461600,1.640461669921875,-0.8750077486038208,-0.3250356614589691,-2.05855131149292
1782811635394533400,1.650533447265625,-0.917220413684845,-0.3935886323451996,-2.273658514022827
1782811635404604400,1.6606044921875,-0.8807333707809448,-0.4418606758117676,-2.240410089492798
1782811635414676500,1.670676513671875,-0.7853085994720459,-0.38466691970825195,-2.0312626361846924
1782811635424748500,1.68074853515625,-0.6584568023681641,-0.24758049845695496,-1.7207499742507935
1782811635434820400,1.6908203125,-0.5562031269073486,-0.15886075794696808,-1.354345440864563
1782811635444892400,1.700892333984375,-0.461597740650177,-0.20659509301185608,-0.9845297932624817
1782811635454964500,1.710964599609375,-0.3712814152240753,-0.2844693660736084,-0.6305781006813049
1782811635465036300,1.721036376953125,-0.31590136885643005,-0.31730177998542786,-0.33116400241851807
1782811635475108400,1.7311083984375,-0.31225231289863586,-0.29122301936149597,-0.18280062079429626
1782811635485180400,1.741180419921875,-0.3578076660633087,-0.21402481198310852,-0.21102483570575714
1782811635495252700,1.751252685546875,-0.4326701760292053,-0.043039221316576004,-0.37618130445480347
1782811635505324500,1.761324462890625,-0.5230202078819275,0.1978318691253662,-0.6193941235542297
1782811635515396600,1.771396728515625,-0.5993226766586304,0.47179925441741943,-0.8758836984634399
1782811635525467400,1.78146728515625,-0.6388592720031738,0.7212256193161011,-1.104323148727417
1782811635535539500,1.79153955078125,-0.6212461590766907,0.9169831871986389,-1.2630558013916016
1782811635545611300,1.801611328125,-0.5285371541976929,0.9860004782676697,-1.3158321380615234
1782811635555683300,1.811683349609375,-0.380803644657135,0.8946018815040588,-1.2559874057769775
1782811635565755600,1.821755615234375,-0.20476195216178894,0.7167502045631409,-1.0909535884857178
1782811635575827700,1.83182763671875,-0.025746924802660942,0.48632103204727173,-0.8415084481239319
1782811635585899500,1.8418994140625,0.148172527551651,0.21134714782238007,-0.5632246136665344
1782811635595971600,1.8519716796875,0.2979750633239746,-0.004690343048423529,-0.27734434604644775
1782811635606043600,1.862043701171875,0.39833980798721313,-0.0935017466545105,0.00988915003836155
1782811635616115500,1.872115478515625,0.43928298354148865,-0.06993144005537033,0.2729247510433197
1782811635626187500,1.8821875,0.44614672660827637,-0.008327691815793514,0.4949965178966522
1782811635636259600,1.892259521484375,0.4337235987186432,0.05510560795664787,0.6704908609390259
1782811635646330600,1.90233056640625,0.414443701505661,0.09269745647907257,0.7992282509803772
1782811635656402700,1.912402587890625,0.4069679379463196,0.10472135990858078,0.8774545788764954
1782811635666474500,1.922474609375,0.4075334072113037,0.08921046555042267,0.9282118678092957
1782811635676546600,1.932546630859375,0.4055062234401703,0.040271155536174774,0.9610992670059204
1782811635686618600,1.94261865234375,0.37146708369255066,-0.0198761448264122,0.9927875399589539
1782811635696690400,1.9526904296875,0.28727495670318604,-0.09209068864583969,1.0113240480422974
1782811635706762500,1.962762451171875,0.16762733459472656,-0.14476154744625092,1.0354704856872559
1782811635716834600,1.97283447265625,0.030385857447981834,-0.1962023675441742,1.0795652866363525
1782811635726906600,1.98290673828125,-0.07912137359380722,-0.2731812000274658,1.118471384048462
1782811635736978400,1.992978515625,-0.11109369248151779,-0.2983022630214691,1.0742064714431763
1782811635747050500,2.003050537109375,-0.12170902639627457,-0.3343420624732971,1.0074725151062012
1782811635757121500,2.01312158203125,-0.1590888947248459,-0.4167535603046417,0.9748984575271606
1782811635767193600,2.023193603515625,-0.20089426636695862,-0.5402129888534546,0.9159712791442871
1782811635777265700,2.033265625,-0.253316193819046,-0.5816813111305237,0.8758203983306885
1782811635787337500,2.04333740234375,-0.33098721504211426,-0.5192409157752991,0.9100647568702698
1782811635797409500,2.053409423828125,-0.44102078676223755,-0.31267040967941284,1.0807890892028809
1782811635807481600,2.063481689453125,-0.5191759467124939,0.007179930806159973,1.3254976272583008
1782811635817553400,2.073553466796875,-0.48889365792274475,0.30228906869888306,1.5523203611373901
1782811635827625500,2.08362548828125,-0.35215315222740173,0.4849208891391754,1.6475530862808228
1782811635837697500,2.093697509765625,-0.1621331423521042,0.4811626374721527,1.448127031326294
1782811635847769600,2.10376953125,0.003455530386418104,0.3994992673397064,0.8519472479820251
1782811635857841400,2.11384130859375,0.20986196398735046,0.30215194821357727,-0.1304430365562439
1782811635867912400,2.123912353515625,0.4822489023208618,0.15481345355510712,-1.247457504272461
1782811635877984500,2.133984619140625,0.7047054171562195,-0.06527098268270493,-2.229905128479004
1782811635888056600,2.144056640625,0.7380948662757874,-0.35247802734375,-2.9352972507476807
1782811635898128400,2.15412841796875,0.6416253447532654,-0.6417830586433411,-3.33791184425354
1782811635908200400,2.164200439453125,0.4261886775493622,-0.6326497793197632,-3.44763445854187
1782811635918272500,2.1742724609375,0.07689539343118668,-0.2976430356502533,-3.296926259994507
1782811635928344600,2.184344482421875,-0.3390733003616333,0.003164916764944792,-2.940474271774292
1782811635938416400,2.19441650390625,-0.6830074787139893,0.07124197483062744,-2.480186939239502
1782811635948488400,2.204488525390625,-0.8763077259063721,-0.04947242885828018,-1.9897844791412354
1782811635958560500,2.214560546875,-0.924202024936676,-0.2814052700996399,-1.5176976919174194
1782811635968632600,2.224632568359375,-0.8320834040641785,-0.5043172836303711,-1.1511141061782837
1782811635978704400,2.234704345703125,-0.609381914138794,-0.644874095916748,-0.9655929803848267
1782811635988775400,2.244775390625,-0.3003726899623871,-0.6237634420394897,-1.01008939743042
1782811635998847500,2.254847412109375,-0.010127536952495575,-0.471947580575943,-1.2622987031936646
1782811636008919600,2.26491943359375,0.14182284474372864,-0.31144392490386963,-1.5846318006515503
1782811636018991400,2.274991455078125,0.19203701615333557,-0.37300822138786316,-1.7434736490249634
1782811636029063400,2.2850634765625,0.1540285348892212,-0.553084135055542,-1.6308741569519043
1782811636039135500,2.295135498046875,-0.027621962130069733,-0.7191380858421326,-1.2929922342300415
1782811636049207600,2.30520751953125,-0.30652928352355957,-0.7518581748008728,-0.7881760597229004
1782811636059279400,2.315279296875,-0.6154381036758423,-0.5976539850234985,-0.17082256078720093
1782811636069351400,2.325351318359375,-0.8763306140899658,-0.4171953499317169,0.42360007762908936
1782811636079423500,2.335423583984375,-1.0641279220581055,-0.28494569659233093,0.9457312226295471
1782811636089494500,2.34549462890625,-1.1766738891601562,-0.07750973105430603,1.385787844657898
1782811636099566300,2.35556640625,-1.2011677026748657,0.24414978921413422,1.7369824647903442
1782811636109638400,2.365638427734375,-1.0975100994110107,0.4638161063194275,1.9427340030670166
1782811636119710500,2.37571044921875,-0.8110367655754089,0.3939286172389984,1.8773986101150513
1782811636129782500,2.385782470703125,-0.37387099862098694,0.26474031805992126,1.6051838397979736
1782811636139854300,2.395854248046875,0.11532160639762878,0.25213027000427246,1.2556798458099365
1782811636149926400,2.405926513671875,0.571251630783081,0.38317030668258667,0.9559304714202881
1782811636159998500,2.41599853515625,0.9810479283332825,0.6051778197288513,0.6921354532241821
1782811636170070500,2.426070556640625,1.3084661960601807,0.8492574691772461,0.49877262115478516
1782811636180142300,2.436142333984375,1.5268256664276123,1.0802254676818848,0.41235998272895813
1782811636190214400,2.44621435546875,1.575666069984436,1.2801752090454102,0.476290225982666
1782811636200286500,2.456286376953125,1.4663501977920532,1.464806318283081,0.6948270797729492
1782811636210357500,2.466357421875,1.262367844581604,1.6540908813476562,1.0156900882720947
1782811636220429300,2.47642919921875,1.0067814588546753,1.8059946298599243,1.3871662616729736
1782811636230501400,2.48650146484375,0.7372384071350098,1.8007326126098633,1.7402241230010986
1782811636240573400,2.496573486328125,0.5161228179931641,1.5463168621063232,1.9835859537124634
1782811636250645500,2.5066455078125,0.4136812686920166,1.1792304515838623,2.0045182704925537
1782811636260717300,2.51671728515625,0.44735613465309143,0.7843539118766785,1.8459992408752441
1782811636270789400,2.526789306640625,0.4921930432319641,0.1112583577632904,1.7134653329849243
1782811636280861400,2.536861328125,0.5649042129516602,-0.2662750780582428,1.5407966375350952
1782811636290933500,2.54693359375,0.5953486561775208,-0.4316354990005493,1.288873314857483
1782811636301005600,2.557005615234375,0.5274223685264587,-0.3487747013568878,1.0356162786483765
1782811636311077600,2.56707763671875,0.3480261564254761,0.07487034052610397,0.9015437364578247
1782811636321148400,2.5771484375,0.15618987381458282,0.4030900299549103,0.874542236328125
1782811636331220500,2.587220458984375,0.06499633193016052,0.36263400316238403,0.9033812880516052
1782811636341292300,2.597292236328125,0.033250387758016586,0.10566400736570358,0.9971852898597717
1782811636351364400,2.6073642578125,-0.10820157825946808,-0.27475571632385254,1.0100139379501343
1782811636361436700,2.617436767578125,-0.34165987372398376,-0.5427142381668091,0.7999100685119629
1782811636371508500,2.627508544921875,-0.5015425086021423,-0.6668688654899597,0.44907712936401367
1782811636381580500,2.63758056640625,-0.5196775794029236,-0.9356499910354614,0.04907698184251785
1782811636391652600,2.647652587890625,-0.4303785562515259,-1.2961701154708862,-0.35996657609939575
1782811636401724400,2.657724365234375,-0.3040483295917511,-1.33487868309021,-0.6496961116790771
1782811636411796200,2.667796142578125,-0.16324317455291748,-1.102773904800415,-0.8119909763336182
1782811636421868300,2.677868408203125,-0.007603245787322521,-0.7390630841255188,-0.8812270164489746
1782811636431939300,2.687939208984375,0.19393901526927948,-0.4590491056442261,-0.8571961522102356
1782811636442011400,2.698011474609375,0.41048142313957214,-0.42720064520835876,-0.7673496007919312
1782811636452083500,2.70808349609375,0.5816255807876587,-0.5944793820381165,-0.6408663392066956
1782811636462155300,2.7181552734375,0.6548217535018921,-0.8938232660293579,-0.48649007081985474
1782811636472227300,2.728227294921875,0.5965192317962646,-1.2414796352386475,-0.32504650950431824
1782811636482299400,2.73829931640625,0.40284401178359985,-1.5136555433273315,-0.23322255909442902
1782811636492371200,2.74837109375,0.11212702840566635,-1.6310725212097168,-0.23237714171409607
1782811636502443300,2.758443359375,-0.19074521958827972,-1.5910497903823853,-0.32649537920951843
1782811636512515300,2.768515380859375,-0.3973429799079895,-1.4147392511367798,-0.48110470175743103
1782811636522587400,2.77858740234375,-0.4576830267906189,-1.1588339805603027,-0.6398075819015503
1782811636532659200,2.7886591796875,-0.3947325348854065,-0.9135419726371765,-0.7577179670333862
1782811636542730200,2.798730224609375,-0.25258976221084595,-0.7027423977851868,-0.8006734251976013
1782811636552802300,2.80880224609375,-0.11738306283950806,-0.5133417248725891,-0.7805469036102295
1782811636562874400,2.818874267578125,-0.05083572864532471,-0.2955963611602783,-0.7544119954109192
1782811636572946400,2.828946533203125,-0.058059461414813995,-0.02493322640657425,-0.7813822627067566
1782811636583018200,2.839018310546875,-0.10799906402826309,0.2621323764324188,-0.8755100965499878
1782811636593090300,2.84909033203125,-0.16488589346408844,0.5276371240615845,-0.9976653456687927
1782811636603162400,2.859162353515625,-0.19891630113124847,0.714469850063324,-1.0978031158447266
1782811636613234200,2.869234130859375,-0.1985493153333664,0.7734915614128113,-1.1622341871261597
1782811636623306200,2.87930615234375,-0.15358318388462067,0.7015318870544434,-1.1679831743240356
1782811636633378300,2.88937841796875,-0.07121145725250244,0.5147174000740051,-1.1093788146972656
1782811636643450400,2.899450439453125,0.032978594303131104,0.3430420756340027,-0.9844373464584351
1782811636653521400,2.909521484375,0.14590278267860413,0.2677600681781769,-0.801122784614563
1782811636663593200,2.91959326171875,0.23578660190105438,0.2735990583896637,-0.6325007081031799
1782811636673665300,2.929665283203125,0.2598113715648651,0.34191784262657166,-0.4774448573589325
1782811636683737300,2.9397373046875,0.2150454968214035,0.3903684616088867,-0.32776108384132385
1782811636693809200,2.94980908203125,0.118380106985569,0.43557411432266235,-0.17078912258148193
1782811636703881200,2.959881103515625,0.012646488845348358,0.4785554111003876,-0.011707864701747894
1782811636713953300,2.969953369140625,-0.04466374218463898,0.48021987080574036,0.14403770864009857
1782811636724025300,2.980025390625,-0.04258008301258087,0.4550090432167053,0.2790168225765228
1782811636734097200,2.99009716796875,0.03531699627637863,0.6263484358787537,0.3947436511516571
1782811636744169200,3.000169189453125,0.15769509971141815,0.9504618048667908,0.5120396614074707
1782811636754241300,3.0102412109375,0.2850944697856903,1.0614814758300781,0.5973740220069885
1782811636764312300,3.020312255859375,0.37518253922462463,1.028542399406433,0.66810542345047
1782811636774384400,3.03038427734375,0.3308029770851135,0.6302382946014404,0.740432858467102
1782811636784456200,3.040456298828125,0.12492438405752182,0.1584036499261856,0.7717782258987427
1782811636794528300,3.0505283203125,-0.15297508239746094,-0.10420377552509308,0.7947627902030945
1782811636804600300,3.060600341796875,-0.3520176112651825,-0.10692312568426132,0.8348020911216736
1782811636814672100,3.070672119140625,-0.4154701828956604,-0.2202395349740982,0.8642992377281189
1782811636824744200,3.080744140625,-0.38078197836875916,-0.3250711262226105,0.8981791734695435
1782811636834816300,3.090816162109375,-0.27513033151626587,-0.02210700511932373,1.0659544467926025
1782811636844888300,3.100888427734375,-0.1123930960893631,0.30386975407600403,1.354472279548645
1782811636854960400,3.11096044921875,0.0058763762935996056,0.2740668058395386,1.5711394548416138
1782811636865032400,3.121032470703125,-0.04649122431874275,0.11249547451734543,1.571258544921875
1782811636875103200,3.131103271484375,-0.21932969987392426,-0.0926346629858017,1.3312485218048096
1782811636885175300,3.14117529296875,-0.4246724545955658,-0.2526605427265167,0.963752031326294
1782811636895247000,3.1512470703125,-0.5392090678215027,-0.34907960891723633,0.578243613243103
1782811636905319200,3.161319091796875,-0.5473951101303101,-0.3235814571380615,0.21172744035720825
1782811636915391200,3.17139111328125,-0.4929211735725403,-0.09819043427705765,-0.12106768786907196
1782811636925463600,3.181463623046875,-0.41641148924827576,0.2475254237651825,-0.41704341769218445
1782811636935535400,3.191535400390625,-0.3153515160083771,0.4484095871448517,-0.7059656977653503
1782811636945607400,3.201607421875,-0.1728779822587967,0.36400070786476135,-0.9740506410598755
1782811636955679500,3.211679443359375,0.00994171667844057,0.0657164454460144,-1.1695772409439087
1782811636965751300,3.221751220703125,0.1647789627313614,-0.3416758179664612,-1.2571579217910767
1782811636975823400,3.2318232421875,0.245472714304924,-0.7883531451225281,-1.2249598503112793
1782811636985894400,3.241894287109375,0.2712997794151306,-1.2446268796920776,-1.1301969289779663
1782811636995966500,3.251966552734375,0.20529422163963318,-1.5795986652374268,-1.1274220943450928
1782811637006038500,3.26203857421875,0.004931568633764982,-1.6298078298568726,-1.3434237241744995
1782811637016110300,3.2721103515625,-0.2786520719528198,-1.3982473611831665,-1.6831936836242676
1782811637026182400,3.282182373046875,-0.5205374360084534,-0.8811674118041992,-1.9817821979522705
1782811637036254500,3.29225439453125,-0.6323726773262024,-0.1931183934211731,-2.151536464691162
1782811637046326300,3.302326171875,-0.592424750328064,0.5055059790611267,-2.1505041122436523
1782811637056398300,3.3123984375,-0.43138113617897034,1.0329309701919556,-2.005589723587036
1782811637066470400,3.322470458984375,-0.21360275149345398,1.3566358089447021,-1.7340284585952759
1782811637076542500,3.33254248046875,0.00021304585970938206,1.5015619993209839,-1.3484697341918945
1782811637086614300,3.3426142578125,0.19346213340759277,1.4962586164474487,-0.8725982308387756
1782811637096685300,3.352685302734375,0.3326237201690674,1.3531373739242554,-0.33117297291755676
1782811637106757400,3.36275732421875,0.39869168400764465,1.114668369293213,0.2193458378314972
1782811637116829400,3.372829345703125,0.40036505460739136,0.8575050234794617,0.7487316727638245
1782811637126901500,3.382901611328125,0.3712729513645172,0.6417974829673767,1.2221565246582031
1782811637136973300,3.392973388671875,0.3147485852241516,0.50661301612854,1.5985546112060547
1782811637147045400,3.40304541015625,0.22285354137420654,0.4894748330116272,1.8710389137268066
1782811637157117400,3.413117431640625,0.14134109020233154,0.5879330039024353,2.004612922668457
1782811637167189200,3.423189208984375,0.09171813726425171,0.7533483505249023,1.9841917753219604
1782811637177261300,3.43326123046875,0.08468940109014511,0.8902727961540222,1.822245478630066
1782811637187333400,3.44333349609375,0.10045424848794937,0.921312153339386,1.5420795679092407
1782811637197405400,3.453405517578125,0.14187465608119965,0.9022881388664246,1.2109121084213257
1782811637207476500,3.4634765625,0.1878432184457779,0.871249794960022,0.9028586745262146
1782811637217548300,3.47354833984375,0.24078845977783203,0.869686484336853,0.6782737374305725
1782811637227620400,3.483620361328125,0.3088247776031494,0.8045884370803833,0.533061146736145
1782811637237692400,3.4936923828125,0.34792065620422363,0.5128083229064941,0.4208741784095764
1782811637247764200,3.50376416015625,0.3102891147136688,-0.01659342274069786,0.3213616907596588
1782811637257836300,3.513836181640625,0.13770006597042084,-0.2316652536392212,0.3855816125869751
1782811637267908400,3.523908447265625,-0.017198966816067696,-0.020248081535100937,0.5709594488143921
1782811637277980400,3.53398046875,-0.11957880854606628,-0.13452090322971344,0.7301071286201477
1782811637288052200,3.54405224609375,-0.17778538167476654,-0.5749565958976746,0.809878408908844
1782811637298124300,3.554124267578125,-0.19261731207370758,-0.9843303561210632,0.871529221534729
1782811637308196400,3.5641962890625,-0.17517706751823425,-1.001444697380066,0.972553014755249
1782811637318267400,3.574267333984375,-0.10149384289979935,-0.5568361878395081,1.1003726720809937
1782811637328339500,3.58433935546875,0.06874100863933563,0.11613290011882782,1.2140192985534668
1782811637338411300,3.594411376953125,0.28331366181373596,0.5897235870361328,1.2454349994659424
1782811637348483300,3.6044833984375,0.4438391625881195,0.6244458556175232,1.1562955379486084
1782811637358555400,3.614555419921875,0.4912364184856415,0.3626967966556549,0.9921604990959167
1782811637368627200,3.624627197265625,0.36829638481140137,-0.005911599844694138,0.7979755401611328
1782811637378699300,3.63469921875,0.03963490575551987,-0.42125609517097473,0.5213550329208374
1782811637388771300,3.644771240234375,-0.3549307882785797,-0.7425416707992554,0.19606034457683563
1782811637398843400,3.654843505859375,-0.6266564726829529,-1.0167070627212524,-0.12181103974580765
1782811637408915200,3.664915283203125,-0.7281636595726013,-1.175038456916809,-0.4164903461933136
1782811637418986000,3.674986083984375,-0.7045762538909912,-1.169939637184143,-0.7019307017326355
1782811637429058300,3.685058349609375,-0.5899812579154968,-1.0856350660324097,-0.9634456634521484
1782811637439130400,3.69513037109375,-0.39388760924339294,-1.0201516151428223,-1.148545742034912
1782811637449202200,3.7052021484375,-0.1431395560503006,-0.9457024335861206,-1.2076444625854492
1782811637459274200,3.715274169921875,0.09399446099996567,-0.9263442158699036,-1.1524115800857544
1782811637469346300,3.72534619140625,0.2317400872707367,-1.0319435596466064,-1.0368138551712036
1782811637479418400,3.73541845703125,0.2505132555961609,-1.2577203512191772,-0.8899660110473633
1782811637489490200,3.745490234375,0.1730259209871292,-1.4558472633361816,-0.7653087377548218
1782811637499562200,3.755562255859375,-0.0008814847096800804,-1.5470521450042725,-0.7542588710784912
1782811637509634300,3.76563427734375,-0.22349750995635986,-1.5421141386032104,-0.8964958786964417
1782811637519706400,3.775706298828125,-0.4061741828918457,-1.4401546716690063,-1.1282544136047363
1782811637529777400,3.78577734375,-0.4881875514984131,-1.229994773864746,-1.3558881282806396
1782811637539849200,3.79584912109375,-0.4319528341293335,-0.9662262201309204,-1.5058783292770386
1782811637549921300,3.80592138671875,-0.24388866126537323,-0.7595124840736389,-1.5198556184768677
1782811637559993300,3.815993408203125,0.0428529791533947,-0.7076430320739746,-1.3659446239471436
1782811637570065200,3.826065185546875,0.3452298939228058,-0.860418438911438,-1.0522911548614502
1782811637580137200,3.83613720703125,0.5746479630470276,-1.1962443590164185,-0.6439813375473022
1782811637590209300,3.846209228515625,0.6832426190376282,-1.556944489479065,-0.19203653931617737
1782811637600281300,3.85628125,0.6768049597740173,-1.8219294548034668,0.2612132728099823
1782811637610353200,3.866353271484375,0.5683777928352356,-1.9281245470046997,0.6498875617980957
1782811637620425200,3.87642529296875,0.3653811514377594,-1.8791871070861816,0.89836186170578
1782811637630497300,3.886497314453125,0.11694388836622238,-1.6823524236679077,1.0066092014312744
1782811637640568300,3.896568359375,-0.12291569262742996,-1.336187720298767,1.0184470415115356
1782811637650640100,3.90664013671875,-0.2728266417980194,-0.8005053997039795,1.0247457027435303
1782811637660712200,3.916712158203125,-0.31338706612586975,-0.21007093787193298,1.014640212059021
1782811637670784300,3.9267841796875,-0.21758252382278442,0.24780315160751343,0.9770132303237915
1782811637680856300,3.936856201171875,-0.07149043679237366,0.5183916687965393,0.9293074607849121
1782811637690928000,3.94692822265625,0.05168608948588371,0.6836519837379456,0.8962746858596802
1782811637701000200,3.957000244140625,0.11941123008728027,0.8692180514335632,0.8873966932296753
1782811637711072300,3.967072265625,0.08372700214385986,0.9595796465873718,0.8553098440170288
1782811637721144300,3.977144287109375,-0.05825298652052879,0.8330724239349365,0.756455659866333
1782811637731216100,3.987216064453125,-0.21766526997089386,0.7076159715652466,0.6534650921821594
1782811637741287200,3.997287109375,-0.32977426052093506,0.8397069573402405,0.5982149839401245
1782811637751359200,4.007359130859375,-0.40403732657432556,1.2420541048049927,0.6004354953765869
1782811637761431300,4.017431396484375,-0.4619162678718567,1.5869277715682983,0.6325712203979492
1782811637771503000,4.027503173828125,-0.5323646068572998,1.6460949182510376,0.6196804642677307
1782811637781575200,4.0375751953125,-0.5819422006607056,1.4242749214172363,0.5584736466407776
1782811637791647200,4.047647216796875,-0.5772188305854797,1.0880074501037598,0.4598788917064667
1782811637801719300,4.05771923828125,-0.4552435278892517,1.0550971031188965,0.5312961935997009
1782811637811791000,4.067791015625,-0.2863903343677521,1.3297494649887085,0.7136803865432739
1782811637821863200,4.07786328125,-0.08831539750099182,1.6079851388931274,0.9396216869354248
1782811637831935200,4.087935302734375,0.0760895237326622,1.6510326862335205,1.0732316970825195
1782811637842007000,4.098007080078125,0.18613587319850922,1.6290088891983032,1.1023319959640503
1782811637852078000,4.108078125,0.28996241092681885,1.5795211791992188,1.0883126258850098
1782811637862150100,4.118150146484375,0.3670930564403534,1.5296329259872437,1.0073471069335938
1782811637872222200,4.12822216796875,0.37151363492012024,1.4004895687103271,0.8413105010986328
1782811637882294300,4.138294189453125,0.31324002146720886,1.3696417808532715,0.6556416153907776
1782811637892366000,4.148365966796875,0.17289143800735474,1.6638643741607666,0.49046602845191956
1782811637902438100,4.158438232421875,-0.08599385619163513,1.834980845451355,0.16886600852012634
1782811637912510200,4.16851025390625,-0.4248283803462982,1.4942342042922974,-0.3959832489490509
1782811637922582300,4.178582275390625,-0.6862388849258423,0.7702170610427856,-1.0707669258117676
1782811637932654000,4.188654052734375,-0.7578989863395691,0.13143126666545868,-1.6264379024505615
1782811637942726100,4.19872607421875,-0.6078765988349915,-0.2667311728000641,-1.9251418113708496
1782811637952798200,4.208798095703125,-0.283122718334198,-0.5138791799545288,-1.963640809059143
1782811637962869200,4.218869140625,0.10831110924482346,-0.6563742756843567,-1.7843869924545288
1782811637972941000,4.228941162109375,0.45715218782424927,-0.6627245545387268,-1.459183931350708
1782811637983013000,4.23901318359375,0.6585090756416321,-0.617026686668396,-1.0888123512268066
1782811637993085200,4.249085205078125,0.6790183186531067,-0.6001638174057007,-0.7616539001464844
1782811638003157200,4.2591572265625,0.542310893535614,-0.6403611302375793,-0.5097911953926086
1782811638013229000,4.26922900390625,0.28279945254325867,-0.7346982955932617,-0.37961748242378235
1782811638023301000,4.279301025390625,-0.05868000537157059,-0.8360636234283447,-0.4022926688194275
1782811638033373200,4.289373291015625,-0.42465877532958984,-0.9692054390907288,-0.5873536467552185
1782811638043445000,4.299445068359375,-0.7320874929428101,-1.098778247833252,-0.8948493599891663
1782811638053517000,4.30951708984375,-0.8943824172019958,-1.1459513902664185,-1.2328121662139893
1782811638063588000,4.319588134765625,-0.8717004656791687,-1.0483466386795044,-1.5019985437393188
1782811638073660200,4.32966015625,-0.7143087387084961,-0.8498345017433167,-1.6497693061828613
1782811638083732200,4.339732177734375,-0.4908178746700287,-0.6055639982223511,-1.650750756263733
1782811638093804000,4.349803955078125,-0.26492857933044434,-0.4216410517692566,-1.4975857734680176
1782811638103876000,4.3598759765625,-0.08822467178106308,-0.359829306602478,-1.2230935096740723
1782811638113948200,4.3699482421875,0.009756220504641533,-0.4202606678009033,-0.8810628652572632
1782811638124020200,4.380020263671875,-0.015530374832451344,-0.5191620588302612,-0.542091965675354
1782811638134092000,4.390092041015625,-0.12345204502344131,-0.5456680059432983,-0.2592674195766449
1782811638144164000,4.4001640625,-0.24569250643253326,-0.4687414765357971,-0.059644557535648346
1782811638154236400,4.410236328125,-0.3391643762588501,-0.32168012857437134,0.07657933235168457
1782811638164308200,4.42030810546875,-0.37845101952552795,-0.16458646953105927,0.18821386992931366
1782811638174379000,4.43037890625,-0.37836048007011414,-0.004558714106678963,0.31935086846351624
1782811638184451000,4.440451171875,-0.3461104929447174,0.20099030435085297,0.5044397115707397
1782811638194523100,4.450523193359375,-0.29142701625823975,0.4603470265865326,0.7426203489303589
1782811638204595200,4.46059521484375,-0.2291036993265152,0.7039079666137695,0.9923350811004639
1782811638214667000,4.4706669921875,-0.17861735820770264,0.8854979872703552,1.231615662574768
1782811638224739300,4.4807392578125,-0.17497725784778595,1.009018898010254,1.425154447555542
1782811638234811400,4.490811279296875,-0.20732854306697845,1.082847237586975,1.5683307647705078
1782811638244883200,4.50088330078125,-0.25234663486480713,1.0899635553359985,1.663097620010376
1782811638254955300,4.510955322265625,-0.29063916206359863,1.012777328491211,1.7232013940811157
1782811638265027300,4.52102734375,-0.3028843402862549,0.9151527881622314,1.7855559587478638
1782811638275098000,4.53109814453125,-0.27601173520088196,0.900838315486908,1.8426059484481812
1782811638285170400,4.54117041015625,-0.21080787479877472,0.972392737865448,1.8849797248840332
1782811638295242200,4.5512421875,-0.09972423315048218,1.0634725093841553,1.9259308576583862
1782811638305314300,4.561314208984375,0.019876904785633087,1.1133437156677246,1.9762396812438965
1782811638315386400,4.571386474609375,0.09762789309024811,1.055773377418518,2.011082410812378
1782811638325458200,4.581458251953125,0.10650655627250671,0.9324160218238831,2.013784408569336
1782811638335530200,4.5915302734375,0.03206001967191696,0.9170756936073303,1.9453915357589722
1782811638345602300,4.601602294921875,-0.10239215195178986,1.086315631866455,1.759751319885254
1782811638355674400,4.61167431640625,-0.2390192449092865,1.3058712482452393,1.4758522510528564
1782811638365746200,4.62174609375,-0.3144153356552124,1.249982476234436,1.0963971614837646
1782811638375818200,4.631818359375,-0.28846630454063416,0.9192495942115784,0.6991679668426514
1782811638385889300,4.64188916015625,-0.1438797265291214,0.6455997824668884,0.4146048128604889
1782811638395961600,4.651961669921875,0.01157190278172493,0.5385186076164246,0.2586972415447235
1782811638406033400,4.662033447265625,0.07396911829710007,0.49337658286094666,0.15039204061031342
1782811638416105500,4.67210546875,0.023664670065045357,0.38719475269317627,-0.049533333629369736
1782811638426177500,4.682177490234375,-0.060225553810596466,0.2914108633995056,-0.33504292368888855
1782811638436249600,4.69224951171875,-0.07005368173122406,0.2689572274684906,-0.6157975792884827
1782811638446321400,4.7023212890625,0.016307448968291283,0.030536459758877754,-0.8874584436416626
1782811638456393500,4.7123935546875,0.1451043039560318,-0.6252176761627197,-1.1368865966796875
1782811638466465500,4.722465576171875,0.2021384835243225,-1.4350615739822388,-1.31471586227417
1782811638476537300,4.732537353515625,0.18986423313617706,-2.020603895187378,-1.373811960220337
1782811638486608400,4.7426083984375,0.18068142235279083,-2.348595380783081,-1.3168582916259766
1782811638496680400,4.752680419921875,0.17035847902297974,-2.459355592727661,-1.199288249015808
1782811638506752500,4.76275244140625,0.09182724356651306,-2.3463456630706787,-1.155178427696228
1782811638516824600,4.772824462890625,-0.09574159234762192,-2.1571500301361084,-1.309219241142273
1782811638526896400,4.782896484375,-0.32040485739707947,-1.9884270429611206,-1.6456955671310425
1782811638536968400,4.792968505859375,-0.45351552963256836,-1.798141598701477,-2.033407688140869
1782811638547040500,4.80304052734375,-0.4360567629337311,-1.5072643756866455,-2.3366141319274902
1782811638557112600,4.813112548828125,-0.2868281304836273,-1.2145220041275024,-2.43019437789917
1782811638567184600,4.8231845703125,-0.06492404639720917,-0.9818460941314697,-2.2788069248199463
1782811638577256700,4.833256591796875,0.14402435719966888,-0.792950451374054,-1.9063392877578735
1782811638587327500,4.843327392578125,0.29459041357040405,-0.6255356669425964,-1.3958932161331177
1782811638597399600,4.853399658203125,0.37070968747138977,-0.42065656185150146,-0.810529351234436
1782811638607471400,4.863471435546875,0.36922991275787354,-0.15158924460411072,-0.2160080075263977
1782811638617543400,4.87354345703125,0.2984132766723633,0.0919879898428917,0.2940855920314789
1782811638627615700,4.88361572265625,0.17382587492465973,0.2322380095720291,0.6476027369499207
1782811638637687800,4.893687744140625,0.02022167667746544,0.25601255893707275,0.8328452706336975
1782811638647759600,4.903759521484375,-0.1016610860824585,0.22435155510902405,0.8829191327095032
1782811638657831700,4.913831787109375,-0.14767570793628693,0.19710847735404968,0.8478727340698242
1782811638667903700,4.92390380859375,-0.12173662334680557,0.19910912215709686,0.7763433456420898
1782811638677975600,4.9339755859375,-0.03881830349564552,0.23479147255420685,0.719237744808197
1782811638688047600,4.944047607421875,0.07778510451316833,0.3378421366214752,0.7124462127685547
1782811638698118700,4.95411865234375,0.18838699162006378,0.5012308359146118,0.7690876126289368
1782811638708190700,4.964190673828125,0.24202753603458405,0.6404308080673218,0.8632831573486328
1782811638718262800,4.9742626953125,0.22129668295383453,0.7127289772033691,0.9888245463371277
1782811638728334600,4.98433447265625,0.13040699064731598,0.6846712231636047,1.138842225074768
1782811638738406700,4.99440673828125,-0.02718629688024521,0.6029698848724365,1.2911796569824219
1782811638748478700,5.004478759765625,-0.23473836481571198,0.5138407945632935,1.405631422996521
1782811638758550500,5.014550537109375,-0.4062483310699463,0.4748614728450775,1.4485032558441162
1782811638768622600,5.02462255859375,-0.49840280413627625,0.5186395645141602,1.4425104856491089
1782811638778694700,5.034694580078125,-0.527512788772583,0.6153025031089783,1.3808269500732422
1782811638788766700,5.0447666015625,-0.5050398111343384,0.7812604308128357,1.2812786102294922
1782811638798837800,5.054837646484375,-0.42787015438079834,1.0172981023788452,1.1786649227142334
1782811638808909600,5.06490966796875,-0.3111918568611145,1.2732473611831665,1.0884311199188232
1782811638818981600,5.074981689453125,-0.18119604885578156,1.4592523574829102,1.0108153820037842
1782811638829053700,5.0850537109375,-0.08187498897314072,1.399380087852478,0.9262163043022156
1782811638839125800,5.095125732421875,-0.05162281170487404,1.0148850679397583,0.858127772808075
1782811638849197600,5.105197509765625,-0.07372961938381195,0.4526788294315338,0.8360371589660645
1782811638859269600,5.11526953125,-0.13510935008525848,-0.08215291798114777,0.874699056148529
1782811638869341700,5.125341796875,-0.24398496747016907,-0.34497955441474915,0.9835385084152222
1782811638879413500,5.13541357421875,-0.37097033858299255,-0.2532656192779541,1.1185630559921265
1782811638889485600,5.145485595703125,-0.4468678832054138,0.0694417878985405,1.1930444240570068
1782811638899557600,5.1555576171875,-0.3423406779766083,0.3726029694080353,1.190123200416565
1782811638909628700,5.165628662109375,-0.02944873459637165,0.51981520652771,1.181183934211731
1782811638919700700,5.17570068359375,0.36894819140434265,0.5087431073188782,1.2052075862884521
1782811638929772500,5.1857724609375,0.6297496557235718,0.28418251872062683,1.1645452976226807
1782811638939844600,5.1958447265625,0.6047172546386719,0.01882806234061718,0.973738968372345
1782811638949916700,5.205916748046875,0.3256365954875946,-0.10068927705287933,0.638157308101654
1782811638959988500,5.215988525390625,0.02852422557771206,0.000893005111720413,0.2057693749666214
1782811638970060500,5.226060546875,-0.0935668796300888,0.06310535967350006,-0.28051435947418213
1782811638980132600,5.236132568359375,-0.03361007198691368,-0.09835224598646164,-0.7578068971633911
1782811638990204700,5.24620458984375,0.1259630173444748,-0.4957786202430725,-1.0917965173721313
1782811639000276500,5.2562763671875,0.2743817865848541,-1.1020807027816772,-1.2824434041976929
1782811639010347500,5.266347412109375,0.346370667219162,-1.640425443649292,-1.3311630487442017
1782811639020419600,5.276419677734375,0.35815542936325073,-1.8589445352554321,-1.2855247259140015
1782811639030491600,5.28649169921875,0.30953124165534973,-1.8488554954528809,-1.2142843008041382
1782811639040563500,5.2965634765625,0.1721249222755432,-1.721228003501892,-1.203837513923645
1782811639050635500,5.306635498046875,-0.018117638304829597,-1.5269742012023926,-1.3047775030136108
1782811639060707600,5.31670751953125,-0.17554986476898193,-1.3319247961044312,-1.4756674766540527
1782811639070779600,5.326779541015625,-0.21362653374671936,-1.1736243963241577,-1.5626654624938965
1782811639080850700,5.3368505859375,-0.08872055262327194,-1.0981765985488892,-1.4895819425582886
1782811639090922500,5.346922607421875,0.1801430732011795,-1.1115102767944336,-1.2173515558242798
1782811639100994600,5.35699462890625,0.5191408395767212,-1.1265510320663452,-0.7268598079681396
1782811639111065600,5.367065673828125,0.8152485489845276,-1.0761041641235352,-0.09079102426767349
1782811639121137700,5.3771376953125,0.9744008779525757,-0.9669145345687866,0.5170435309410095
1782811639131209700,5.387209716796875,0.9723670482635498,-0.8118834495544434,0.9287693500518799
1782811639141281500,5.397281494140625,0.8531636595726013,-0.6377843618392944,1.0775140523910522
1782811639151353600,5.407353515625,0.6577410697937012,-0.4600636959075928,0.9688560366630554
1782811639161425700,5.41742578125,0.4109741747379303,-0.2532564401626587,0.6428552865982056
1782811639171497500,5.42749755859375,0.1680322289466858,0.03684743121266365,0.14819036424160004
1782811639181569500,5.437569580078125,0.005601250100880861,0.3364655673503876,-0.39290058612823486
1782811639191641600,5.4476416015625,-0.04184512421488762,0.5753692388534546,-0.8234870433807373
1782811639201713700,5.457713623046875,-0.04009808972477913,0.803368330001831,-1.057295799255371
1782811639211784700,5.46778466796875,-0.04205090180039406,1.036990761756897,-1.0781967639923096
1782811639221856500,5.4778564453125,-0.01781480573117733,1.2050585746765137,-0.9345796704292297
1782811639231928600,5.487928466796875,0.04594384506344795,1.2090004682540894,-0.6836849451065063
1782811639242000600,5.498000732421875,0.09178777039051056,1.0383623838424683,-0.3717544674873352
1782811639252072400,5.508072509765625,0.09573853760957718,0.8267838954925537,-0.025541311129927635
1782811639262144500,5.51814453125,0.030717190355062485,0.605076253414154,0.3185848891735077
1782811639272216600,5.528216552734375,-0.06534995138645172,0.4583584666252136,0.6140583157539368
1782811639282288600,5.53828857421875,-0.12825541198253632,0.4227919578552246,0.8497595191001892
1782811639292360400,5.5483603515625,-0.16833952069282532,0.47581928968429565,1.0072031021118164
1782811639302432500,5.5584326171875,-0.1718333214521408,0.616421639919281,1.0964168310165405
1782811639312504600,5.568504638671875,-0.1299142986536026,0.8542435169219971,1.1279845237731934
1782811639322575600,5.57857568359375,-0.06990395486354828,1.1767467260360718,1.1243940591812134
1782811639332647700,5.588647705078125,-0.027653466910123825,1.8480918407440186,1.364951729774475
1782811639342719500,5.598719482421875,-0.08665100485086441,2.280787706375122,1.8093593120574951
1782811639352791600,5.60879150390625,-0.2371533066034317,2.027682065963745,2.301084041595459
1782811639362863600,5.618863525390625,-0.312618225812912,1.4617133140563965,2.6099233627319336
1782811639372935400,5.628935302734375,-0.3972060978412628,0.8901126980781555,2.7149064540863037
1782811639383007500,5.639007568359375,-0.6139911413192749,0.5023101568222046,2.637274980545044
1782811639393079600,5.64907958984375,-0.8322071433067322,0.3429359495639801,2.3399462699890137
1782811639403152000,5.65915185546875,-0.8527086973190308,0.2762746214866638,1.933942198753357
1782811639413223000,5.669222900390625,-0.5655535459518433,0.2113533765077591,1.6023030281066895
1782811639423294700,5.679294677734375,-0.05687538534402847,-0.2195277065038681,1.2806328535079956
1782811639433366800,5.68936669921875,0.5196937918663025,-0.5746737718582153,0.9977664947509766
