time,seconds_elapsed,z,y,x
1782661525003167700,0.076167724609375,-0.6356961966067552,-1.615337640325725,-0.6545867019724101
1782661525013238800,0.08623876953125,-0.7123983280152082,-1.4570894446089864,-0.5516408528912812
1782661525023309600,0.0963095703125,-0.7093342642694711,-1.2133975926235316,-0.33456447450034316
1782661525033381400,0.10638134765625,-0.7374895146518945,-0.8963838993176817,-0.12162957982830702
1782661525043452400,0.116452392578125,-1.0242617989510296,-0.4898357732981443,0.05248918891102075
1782661525053523500,0.1265234375,-1.3330308110028504,-0.10364040721654891,0.18305727747641504
1782661525063594500,0.136594482421875,-1.2669886052966117,0.1708724072292447,0.1974514943361282
1782661525073665500,0.14666552734375,-0.9743348617434501,0.19151655132919548,0.22820143738687038
1782661525083736600,0.156736572265625,-0.6270183846324682,-0.0015334931775927542,0.1554088806375861
1782661525093807400,0.166807373046875,-0.2495493458420038,-0.17272504935860633,0.052513410036824644
1782661525103878400,0.17687841796875,-0.12654898911714554,-0.21287118178606032,0.0030666210290044545
1782661525113950500,0.186950439453125,-0.15950141064822673,-0.12229688463062047,0.01747683917544782
1782661525124021500,0.197021484375,-0.22644144197702407,-0.05119213483780622,0.052331989055313166
1782661525134092500,0.207092529296875,-0.17864567157924174,-0.03952741600722074,0.0508976454032585
1782661525144163600,0.21716357421875,0.057599371531605714,-0.10517419265508651,0.0733713795505464
1782661525154234600,0.227234619140625,0.484034393543005,-0.1996858292594552,0.10080540298633277
1782661525164305700,0.2373056640625,0.8869844950705766,-0.255621359232068,0.20982812429573386
1782661525174376400,0.24737646484375,1.0243494772344828,-0.2520113520413637,0.36997656414322555
1782661525184447500,0.257447509765625,1.0060206243395804,-0.07919862439930439,0.4861167893076315
1782661525194518500,0.2675185546875,0.8101204510986805,0.09833762463331222,0.5768544603312388
1782661525204590600,0.277590576171875,0.5568243199437857,0.16247984193712472,0.602743775075674
1782661525214661600,0.28766162109375,0.3306120105475187,0.19949965903759,0.6553190348349511
1782661525224732700,0.297732666015625,0.2541810972958803,0.19278759417831898,0.5881582003623247
1782661525234803700,0.3078037109375,0.20783435666263103,0.26410978611409663,0.31466135802604256
1782661525244874500,0.31787451171875,0.2901753707408905,0.22345278155505655,0.1913627490069717
1782661525254945500,0.327945556640625,0.6574602846473455,0.17406681935638188,0.2370135432653129
1782661525265016600,0.3380166015625,1.149043193873763,0.20602876854538915,0.410403924664855
1782661525275087600,0.348087646484375,1.399067756012082,0.2846606989726424,0.32625724940411743
1782661525285159700,0.35815966796875,1.3664111025571821,0.23844489124268292,0.19161957331225274
1782661525295230700,0.368230712890625,0.8723685252189636,-0.001389116270840168,0.07245024611763656
1782661525305301800,0.3783017578125,0.5343126284062862,-0.1378302615880966,0.051759851723164316
1782661525315372500,0.38837255859375,0.444358216714859,-0.0013683657437562943,0.06620031887739897
1782661525325443600,0.398443603515625,0.5582482152670621,0.19489333428591488,0.1796411854226142
1782661525335514600,0.4085146484375,0.9571592705368995,0.36283494876027106,0.5387693886194378
1782661525345585700,0.418585693359375,1.410369486749172,0.41388592156171794,0.7592601054985075
1782661525355656700,0.42865673828125,2.234124495446682,0.3411982864916324,0.26932627865336833
1782661525365728500,0.438728515625,3.0288550697118044,0.12999562243968246,-0.44348260292410846
1782661525375799600,0.448799560546875,3.3954788893610237,-0.10440759219676256,-0.6861489112541079
1782661525385870300,0.458870361328125,3.4882968737900253,-0.16386282072812317,-0.648315147422254
1782661525395941400,0.46894140625,3.115105950710177,-0.09023147506713866,-0.5165659593135118
1782661525406012400,0.479012451171875,2.354562308207154,0.003316284941136837,-0.23252865293622016
1782661525416083500,0.48908349609375,1.6524509809285401,0.644288668385148,0.22928280288279054
1782661525426154500,0.499154541015625,0.8127601519525051,1.203546352955699,0.616542144934088
1782661525436225500,0.5092255859375,-0.07981003429591656,1.4240087205231189,0.880607361254096
1782661525446297300,0.51929736328125,-0.4289911362349987,1.8893647170811891,1.1694336554735898
1782661525456368400,0.529368408203125,-0.657533934405446,1.8435577824130653,1.0339147395677863
1782661525466439400,0.539439453125,-0.620116350159049,1.476491771954298,0.7154647298485041
1782661525476510500,0.549510498046875,-0.1577946067303419,1.2056751816779374,0.503400480531156
1782661525486581500,0.55958154296875,0.6556810000151395,0.7519698754251003,0.5330258034661411
1782661525496652500,0.569652587890625,2.011847187411785,0.13234364687055347,0.5958678979568183
1782661525506723300,0.579723388671875,2.8649282438367605,-0.2807917485848069,0.6035208969280124
1782661525516794400,0.58979443359375,2.1876497445195913,-0.4420172065466642,0.45314226554259657
1782661525526866400,0.599866455078125,0.6018751755475997,-0.5916758530944586,0.15812632290273904
1782661525536937500,0.6099375,-0.7273451372563838,-1.0929834529995917,-0.5867044944226741
1782661525547008500,0.620008544921875,-1.9384990426063538,-1.8362915908023714,-1.4452515611685812
1782661525557079600,0.63007958984375,-3.7878064745873212,-2.320800616119802,-1.4261732050806284
1782661525567150600,0.640150634765625,-5.893372979182004,-2.309168045993149,-1.2523548075273632
1782661525577221400,0.650221435546875,-6.83313980089128,-1.65812990334779,-1.72653883818537
1782661525587292400,0.66029248046875,-6.553056200575829,-1.0170952683225274,-1.795611936020106
1782661525597363500,0.670363525390625,-5.890030098494887,-1.009940135870874,-1.955111008580774
1782661525607435500,0.680435546875,-6.003795593884587,-1.1434764996573328,-2.062725580125302
1782661525617506600,0.690506591796875,-6.189331609499454,-0.5493161362707615,-2.1422703876137734
1782661525627577600,0.70057763671875,-5.200468456187844,0.30384996808916326,-1.3767892887085675
1782661525637648600,0.710648681640625,-4.9020238542735575,0.9808166249781847,-0.8558958215847611
1782661525647719400,0.720719482421875,-4.533316798609495,1.4506842537418008,-0.8855375841978936
1782661525657790500,0.73079052734375,-4.600865901747346,2.5660554796382784,-0.3706872696958482
1782661525667861500,0.740861572265625,-5.281595418301224,2.165102397146821,-1.103470506352931
1782661525677932500,0.7509326171875,-4.940417005553841,0.06605360388308763,-1.4736200159102677
1782661525688004600,0.761004638671875,-4.437682003194094,-1.7014643104225395,-1.8209934839054942
1782661525698075600,0.77107568359375,-3.685995620885491,-2.8455031201377508,-2.0730898838818073
1782661525708146700,0.781146728515625,-2.4740134480178355,-2.8324548379942773,-2.0194469948910174
1782661525718217500,0.791217529296875,-0.5967407352685928,-2.2278023066878316,-1.7451204967975615
1782661525728288500,0.80128857421875,0.8444704644680022,-2.11007696775645,-1.1191938529245555
1782661525738359600,0.811359619140625,1.3096703936815262,-2.0177906059861184,-0.3219465465981513
1782661525748430600,0.8214306640625,1.7407120327055454,-1.5443585627391934,-0.03532653025127947
1782661525758501600,0.831501708984375,2.065740690162778,-1.0095528901189565,-0.09532090716063976
1782661525768573400,0.841573486328125,2.1726135034292935,-0.687933748844266,-0.031781478055566546
1782661525778644500,0.85164453125,1.9887311002403496,-0.11950228547602891,0.02400631400942802
1782661525788715500,0.861715576171875,1.8735715201437473,0.5536909903541207,0.20936142009943723
1782661525798786300,0.871786376953125,1.174597321847081,0.2506345107302069,0.13605433795675634
1782661525808857300,0.881857421875,0.03183306211233139,-0.6609364363253116,-0.445707439366728
1782661525818928400,0.891928466796875,0.1863163523375988,-1.0626266009196639,-0.759584295951575
1782661525828999400,0.90199951171875,0.9370558091849088,-0.9140461049973965,-0.22060937482267617
1782661525839070500,0.912070556640625,1.6675602872550486,-0.718838590195775,0.3163492380477488
1782661525849141500,0.9221416015625,2.236680609670281,-0.5472638799160718,1.2586876638107
1782661525859213600,0.932213623046875,2.835639605510235,-0.5017663034580647,2.3089709159858525
1782661525869284400,0.942284423828125,3.7382337576448914,-0.5824468369781971,2.9522768569439646
1782661525879355400,0.95235546875,4.8655491038352245,-0.4100707471877336,3.1641058362007137
1782661525889426400,0.962426513671875,4.967511933228373,-0.6597331980153918,2.541740830332041
1782661525899497500,0.97249755859375,4.865589435845613,-1.056063296881318,2.072444133324176
1782661525909568500,0.982568603515625,4.709747716748714,-1.1322215306714176,2.023009509678185
1782661525919639600,0.9926396484375,4.017563324722647,-1.1924397063992918,1.8442647616386412
1782661525929710300,1.00271044921875,2.083127293771505,-0.8307096501410007,1.9652124236173927
1782661525939782400,1.012782470703125,-0.7926298025935887,-0.6243870132155716,1.787846270454675
1782661525949853400,1.022853515625,-1.1290227346301078,-0.08753083780631422,0.9613285190455615
1782661525959924500,1.032924560546875,-0.277689983177185,1.018252037142217,0.6186567990005016
1782661525969995500,1.04299560546875,1.2620838821202516,2.477147654390335,0.4746637769989669
1782661525980066600,1.053066650390625,2.5506109500080347,3.766495391011238,0.5034460732385516
1782661525990137600,1.0631376953125,3.04078048530519,4.054947883482277,0.4071197884276509
1782661526000208400,1.07320849609375,3.3149563228815793,3.4891134508699175,0.11109751828946172
1782661526010279400,1.083279541015625,3.4850516082584857,2.634773918816447,-0.32226080017909403
1782661526020351500,1.0933515625,3.6074370479553934,2.1067688661217687,-0.5031234902206808
1782661526030422500,1.103422607421875,3.964318056747317,2.2487995020091534,-0.40049664396084844
1782661526040493600,1.11349365234375,4.608813645881414,2.7931863651841877,-0.28217779611572624
1782661526050564600,1.123564697265625,5.555429310572147,3.3277778105318543,-0.17331512420624492
1782661526060635600,1.1336357421875,6.497751661983132,3.6016903209969398,0.06408266913630067
1782661526070706700,1.143706787109375,7.408272515463828,3.5574472746446726,0.37644013413414357
1782661526080777500,1.153777587890625,7.385304896852373,3.6404686722025272,0.4425575239684432
1782661526090848500,1.1638486328125,5.7373933129191395,3.9503614275872705,0.6485006600569934
1782661526100920300,1.17392041015625,3.833848094794154,3.9719466519296165,1.621504492392391
1782661526110991400,1.183991455078125,1.923956722512841,3.651858958005905,2.131021994499117
1782661526121062400,1.1940625,0.3805342715799808,3.0802649389535186,2.000595433296263
1782661526131133400,1.204133544921875,-0.6641489686310291,1.866208882421255,1.6677540562614797
1782661526141204500,1.21420458984375,-1.4736071564286946,0.23989187518060207,1.3904847827143967
1782661526151275500,1.224275634765625,-2.734305721670389,-1.745240908306837,0.9561239361397922
1782661526161346600,1.2343466796875,-4.532781376558542,-4.1121155855983496,0.5556052630102262
1782661526171417600,1.24441748046875,-6.052319094035029,-6.525203732532263,0.03806527103278786
1782661526181488600,1.254488525390625,-6.0843111461013555,-7.663278373146056,-0.9892241686437279
1782661526191560400,1.264560546875,-5.422104543709755,-6.408725471052527,-1.7487490625582633
1782661526201631500,1.274631591796875,-5.8240217950582505,-4.459136879155039,-1.807589081800729
1782661526211702500,1.28470263671875,-7.136958497059345,-3.542930965775251,-1.3648586124181747
1782661526221773300,1.294773193359375,-9.312365430599451,-2.7941572560429573,-1.0454396115362643
1782661526231844400,1.30484423828125,-11.20019811580777,-2.0951690292209384,-1.2823093624167143
1782661526241915400,1.314915283203125,-11.056579918467998,-1.5599588674530387,-2.239638144301623
1782661526251986400,1.324986328125,-10.858882924938202,-1.7378771015405654,-2.687333542615175
1782661526262057500,1.335057373046875,-9.402175465384126,-2.371563711890578,-3.147027567888796
1782661526272129500,1.345129638671875,-6.35101679392755,-2.9360777095541355,-3.4906349613487717
1782661526282200600,1.35520068359375,-2.9375884063780306,-3.5827348606362937,-3.545866726966202
1782661526292271400,1.365271240234375,0.11456102968156337,-4.0993291692614555,-2.796099037760496
1782661526302342400,1.37534228515625,1.1078642112672328,-4.04496483412832,-1.4226223807312548
1782661526312413400,1.385413330078125,0.09510463406145572,-3.0783158507123587,-0.42164245397262273
1782661526322484500,1.395484375,-1.2835884424418211,-1.8814643192201852,-0.21871903103142976
1782661526332555500,1.405555419921875,-2.0052029270917178,-1.1197358508467674,-0.4388038705233484
1782661526342626600,1.41562646484375,-1.145833584177494,-1.0100447652891278,-0.6776767779197543
1782661526352697300,1.425697265625,0.14531447986364363,-1.0078849569067359,-0.4219122108247131
1782661526362769700,1.435769775390625,1.5657535252064465,-1.187847410172969,0.13343385326005516
1782661526372840400,1.44584033203125,3.0464263822376725,-1.3686021828606725,0.7290034258574247
1782661526382911500,1.455911376953125,4.129006514644622,-1.3267963005274535,1.2621864657118915
1782661526392982500,1.465982421875,4.752861466810107,-1.2074264092594384,1.6344273945905268
1782661526403053600,1.476053466796875,5.175404157558083,-1.0652833990387618,1.9528058003783224
1782661526413124400,1.486124267578125,5.165089684292674,-0.8482086280830204,2.222324167537689
1782661526423195400,1.4961953125,4.748933479711413,-0.48482802813872694,2.29820489956066
1782661526433266400,1.506266357421875,4.3154374332726,-0.023804946218430996,2.1095631730154154
1782661526443338500,1.51633837890625,4.314305798894167,0.40792146019935605,1.7624647225692867
1782661526453409500,1.526409423828125,4.354450177755951,0.7000161085650325,1.473314749353379
1782661526463480300,1.536480224609375,3.802042505210638,0.7899436322495341,1.3196890988707541
1782661526473551400,1.54655126953125,3.215786923599243,0.8201401792012154,1.1237414332263171
1782661526483622400,1.556622314453125,3.002840923011303,0.9720249773658811,0.9776105224132537
1782661526493693400,1.566693359375,3.00952259273231,1.1557925220035017,1.0366203452646732
1782661526503764500,1.576764404296875,2.7785177883625027,1.2342039415478705,0.9667699794471263
1782661526513835500,1.58683544921875,2.7482752103120087,1.359758951191604,0.7368420105285942
1782661526523907300,1.5969072265625,3.101511140599847,1.4653472776055334,0.45521088851019736
1782661526533978000,1.60697802734375,3.8336978726685045,1.740562248971313,0.3379300784759223
1782661526544049200,1.617049072265625,5.006895264589787,2.1285653951272367,0.45479003274962304
1782661526554120200,1.6271201171875,6.151909933599829,2.310199727128446,0.901613032142818
1782661526564191200,1.637191162109375,6.565500087085366,2.179501217116415,1.2732957426168023
1782661526574262300,1.64726220703125,6.023914252805709,1.906090518693626,1.2274661577254533
1782661526584333300,1.657333251953125,4.888194650885462,1.7564245656222104,0.9170132842399179
1782661526594404000,1.667404052734375,3.653660454469919,1.7576827489897608,0.4864439389027655
1782661526604475100,1.67747509765625,2.6944138562649487,1.9171753918096421,0.08764803444519638
1782661526614547200,1.687547119140625,1.296899174913764,2.3441169020384547,-0.060504006931930775
1782661526624618200,1.6976181640625,-1.6448241393119096,2.647100024165213,0.14990180765390396
1782661526634689300,1.707689208984375,-4.699966327446699,2.6878216183930634,0.38460049810558555
1782661526644760300,1.71776025390625,-6.694120037257671,2.3118355116367337,0.0812422590561211
1782661526654831400,1.727831298828125,-7.251891282662749,1.3708309648260473,-0.7210657647259533
1782661526664902100,1.737902099609375,-6.257091140517592,0.00903261676132679,-1.2803681652210652
1782661526674973200,1.74797314453125,-4.659634317058325,-1.6785215339913964,-0.6898899974785745
1782661526685044200,1.758044189453125,-2.4740339062839745,-3.2295518295794725,0.601924129255861
1782661526695115300,1.768115234375,-1.2866016527831554,-4.2233582845121616,0.4067671755976975
1782661526705187300,1.778187255859375,-1.9893407565712928,-4.685073294219374,-0.4449032833769917
1782661526715258400,1.78825830078125,-2.2429560366779566,-3.644135670277476,-0.297646583404392
1782661526725329400,1.798329345703125,-2.053340058273077,-2.4962726260989903,0.6466555436469614
1782661526735400400,1.808400390625,-3.472393202215433,-2.350401681396365,1.0494165523432195
1782661526745471200,1.81847119140625,-5.8877095465928315,-2.0987883887618777,0.3529135664656758
1782661526755542300,1.828542236328125,-8.245572065389156,-1.4389590368956326,-1.0354621151402592
1782661526765613300,1.83861328125,-9.541754616466164,-1.1028054665729403,-3.0812609642535445
1782661526775684400,1.848684326171875,-8.677063786268233,-1.3337319450095295,-4.514998467108607
1782661526785756400,1.85875634765625,-6.205017254409194,-2.1782816121935844,-5.031633984526992
1782661526795827500,1.868827392578125,-4.575976959684491,-2.7307541666686532,-4.410993902754783
1782661526805898500,1.8788984375,-4.941265146815777,-1.9038266654148697,-2.4123715230971574
1782661526815969300,1.88896923828125,-6.196736917319893,-0.37221447926312684,-0.39717254103943705
1782661526826040300,1.899040283203125,-6.604148674431443,0.6420176547132432,0.8129301016919315
1782661526836111400,1.909111328125,-5.357513705855608,1.127729041557759,1.421324888266623
1782661526846182400,1.919182373046875,-4.208707827869057,0.8471792850352823,1.5744538412734865
1782661526856253400,1.92925341796875,-3.405672951117158,-0.43929158097505566,1.331646078646183
1782661526866324500,1.939324462890625,-1.4267366841822862,-1.691534452560544,1.081914361974597
1782661526876396500,1.949396484375,1.0871662911534308,-3.0467125057026743,0.9147561529628931
1782661526886467300,1.95946728515625,3.5792274370372295,-4.361540720538795,0.8774186482153833
1782661526896538400,1.969538330078125,5.06479741846025,-4.597448786780238,1.4151096670135854
1782661526906609400,1.979609375,5.351338816612959,-3.675297701260447,1.8282909474372864
1782661526916680400,1.989680419921875,5.0359167764127255,-2.5626602842420336,2.188868180398643
1782661526926751500,1.99975146484375,4.893460608589649,-1.6416002088293433,2.6597274505481123
1782661526936822500,2.009822509765625,5.393288199070096,-0.8131330769181251,3.05262289879024
1782661526946893300,2.019893310546875,5.8951399888545275,-0.1136862926736474,3.3111268277212975
1782661526956964400,2.02996435546875,6.211840378427505,0.30093758777379986,3.2905911124318834
1782661526967036200,2.0400361328125,5.89334375308752,0.5199633466668426,3.204895234967768
1782661526977107200,2.050107177734375,5.213846993198991,0.8596161572821438,3.100207072263956
1782661526987178200,2.06017822265625,4.802179916730523,1.2176741008989511,2.8777137833908197
1782661526997249300,2.070249267578125,4.371615247568488,1.6305194273665546,2.5640762885197996
1782661527007320300,2.0803203125,4.208815964418649,1.9790569707050918,2.0741781175099314
1782661527017391000,2.09039111328125,4.587344741395116,2.2797470134586093,1.4900079638704657
1782661527027462100,2.100462158203125,5.071826878705621,2.5324381644576786,1.100255635959655
1782661527037533200,2.110533203125,5.796366310891509,2.780854999138415,0.8464955405548215
1782661527047604200,2.120604248046875,6.546785449743271,3.013640549445152,0.6838869576714932
1782661527057676300,2.13067626953125,7.114038224720955,3.124795570075512,0.6056999945327639
1782661527067747300,2.140747314453125,7.480384396472573,3.0970424707531925,0.5242679119929671
1782661527077818400,2.150818359375,7.721116229608654,2.948619211219251,0.4382420719221234
1782661527087889400,2.160889404296875,7.636374584129452,2.82641643461287,0.3612422727413475
1782661527097960200,2.170960205078125,7.077153724437951,2.786126509800553,0.24388795907944438
1782661527108031200,2.18103125,6.087110421431064,2.805924266204238,-0.008162555928528308
1782661527118102300,2.191102294921875,4.95919944743514,2.7455805644005538,-0.3190814394906163
1782661527128173300,2.20117333984375,3.5439977182239293,2.4302906261473893,-0.7113133092574775
1782661527138244400,2.211244384765625,1.8259739026665687,1.771742546263337,-0.8334297227546572
1782661527148316400,2.22131640625,-0.06661211454868317,0.5247957352593541,-0.49386692851036784
1782661527158387500,2.231387451171875,-2.646663678574562,-1.309217389217019,-0.19342486916854976
1782661527168458200,2.241458251953125,-5.2096910425633185,-3.3594331779897213,-0.1708062101252377
1782661527178529300,2.251529296875,-6.985033659145236,-5.189941801476478,-0.7683582617767155
1782661527188600300,2.261600341796875,-7.41427555527091,-7.034903313207626,-1.6636797925598918
1782661527198671400,2.27167138671875,-7.699537435007095,-8.204598834487795,-2.869756979167461
1782661527208742400,2.281742431640625,-9.467156763860583,-6.719787562477588,-4.5071091751635075
1782661527218813400,2.2918134765625,-11.864492045867442,-4.405094031061232,-4.803300445193052
1782661527228884200,2.30188427734375,-14.14607036640644,-3.117688952940702,-4.265217650598287
1782661527238955300,2.311955322265625,-16.58553038743734,-2.426777941851318,-3.6310610846489664
1782661527249027300,2.32202734375,-17.311771947365997,-1.6192656274244188,-3.3261160147994753
1782661527259098400,2.332098388671875,-14.735920757639407,-1.5289832989528773,-3.271114550806582
1782661527269169400,2.34216943359375,-10.559245313847065,-2.837325658901036,-3.116932289354503
1782661527279240400,2.352240478515625,-6.4633016953706734,-4.1884664193511005,-2.607428815773129
1782661527289311500,2.3623115234375,-3.3102743025451895,-4.452874896150827,-1.7944506371557711
1782661527299382300,2.37238232421875,-1.400652979376912,-3.742265497379005,-0.8347668165773153
1782661527309453300,2.382453369140625,-0.4655640863507986,-2.7755998550891876,0.01626753645092249
1782661527319524400,2.3925244140625,0.14933599046468735,-1.9759201339840888,0.6409487103074789
1782661527329595400,2.402595458984375,0.43822015235126016,-1.3695941165074705,1.0743047637537122
1782661527339667200,2.412667236328125,0.45584816350042817,-0.748982676307857,1.3111153317928312
1782661527349738200,2.42273828125,0.40099019963145255,-0.1249076516509056,1.5331892262101172
1782661527359809300,2.432809326171875,0.4632528867989778,0.1625984998807311,1.586869232340902
1782661527369880300,2.44288037109375,0.6004045184731484,0.32907091858536003,1.4046538855813442
1782661527379951400,2.452951416015625,0.9502139814436436,0.2733053383521736,1.3214376961037515
1782661527390022400,2.4630224609375,1.6317559834241866,-0.013470014686882494,1.351338328848779
1782661527400093400,2.473093505859375,2.42068517793417,-0.17098434317111968,1.509846198415011
1782661527410164500,2.48316455078125,3.3173318198412654,-0.11335852202400565,1.6883485160008072
1782661527420235500,2.493235595703125,4.118590334570408,0.03955824953690171,1.9495371539711952
1782661527430307300,2.503307373046875,4.837971361079812,0.2178125837109983,2.217213984917104
1782661527440378400,2.51337841796875,5.337860326358675,0.4845065410993993,2.380794919963926
1782661527450449400,2.523449462890625,5.58688594058752,0.8704065774962305,2.4140365336999294
1782661527460520400,2.5335205078125,5.534996178874373,1.3017754026480017,2.3090146089971064
1782661527470591500,2.543591552734375,5.361188010454177,1.6432444689050316,2.171276994128525
1782661527480662300,2.553662353515625,5.089738967493176,1.7444623251497744,1.8493804972171783
1782661527490733300,2.5637333984375,4.858866265070438,1.6392897399298845,1.3614740845464168
1782661527500804400,2.573804443359375,4.845053428295254,1.5839228036254644,0.8672549815975129
1782661527510875400,2.58387548828125,5.00947943586409,1.6294050363838672,0.40068712503165005
1782661527520946400,2.593946533203125,5.311619385164976,1.7900670152440665,0.025985285932198166
1782661527531018500,2.6040185546875,5.635317670801282,1.9515131302192805,-0.25421865282729267
1782661527541089500,2.614089599609375,6.1099897772371765,2.1280922246575353,-0.4761383795961737
1782661527551160300,2.624160400390625,6.550791178253292,2.29888075299561,-0.5706348186314105
1782661527561231400,2.6342314453125,6.778388804528117,2.3358646219998596,-0.5330672314550727
1782661527571302400,2.644302490234375,6.978838311636448,2.385023497444391,-0.3143118870012462
1782661527581373400,2.65437353515625,7.2409542935848235,2.534576637791097,0.03979520009793341
1782661527591444500,2.664444580078125,7.47624948862493,2.4859213279545305,0.2877274661321193
1782661527601515500,2.674515625,7.41560008187294,2.1720751587688922,-0.03332688086666167
1782661527611586300,2.68458642578125,7.239092006844282,1.9127607902377843,-0.9075865535944699
1782661527621657300,2.6946572265625,6.731684921020269,1.7322504938304424,-1.7210177366763353
1782661527631729400,2.7047294921875,4.843633624625205,1.327751701556146,-2.0561016319409013
1782661527641800400,2.714800537109375,1.9341338331341742,0.45843642642796034,-1.9041312013193963
1782661527651871500,2.72487158203125,-2.143720001900196,-0.8550748605906963,-1.53916157861799
1782661527661942500,2.734942626953125,-5.846017353767157,-1.8968103569120167,-0.9646633625566959
1782661527672013600,2.745013671875,-8.994861323428154,-2.5265648885101077,-0.03251826789751649
1782661527682084600,2.755084716796875,-8.949619913688302,-3.306150500613451,0.3383833752013743
1782661527692155400,2.7651552734375,-5.634502262765169,-5.55697127931714,-0.08165288568362593
1782661527702226400,2.775226318359375,-4.185677665415406,-8.124377296781539,-0.9312659737370907
1782661527712297500,2.78529736328125,-6.12937953736186,-6.924746071442962,-2.856540354719758
1782661527722368500,2.795368408203125,-9.199352799403666,-4.087572680494189,-4.195743716877699
1782661527732440600,2.805440673828125,-11.145859791898726,-3.0998908459216357,-3.9976556782037016
1782661527742511600,2.81551171875,-11.93191781488657,-3.0517361790835857,-3.1672233836993575
1782661527752582700,2.825582763671875,-12.62170508264303,-2.3528970053434373,-2.527257839210331
1782661527762653400,2.8356533203125,-12.460372364914416,-1.3635270715534686,-2.65004279961884
1782661527772724500,2.845724365234375,-9.883575418770313,-1.5980615113541483,-3.051645578190684
1782661527782795500,2.85579541015625,-5.844077910137176,-3.118918494735658,-3.3429812248826023
1782661527792866600,2.865866455078125,-1.8851158274650572,-4.318024527156353,-3.2057600351035593
1782661527802937600,2.8759375,1.0784469781249761,-4.2748084857642645,-2.8593349538743493
1782661527813008600,2.886008544921875,2.780617975512147,-3.106796387526393,-2.337654574156552
1782661527823079400,2.896079345703125,2.9727719479620456,-1.498728153681755,-1.4244474042013286
1782661527833151200,2.906151123046875,1.7996312546640634,0.14129706091582775,-0.264557676012069
1782661527843222300,2.91622216796875,-0.2620861713320017,1.4447148239433765,0.9233214444734156
1782661527853293300,2.926293212890625,-1.0852157416075467,2.0952888562083243,1.733451247922331
1782661527863364400,2.9363642578125,-0.6662596771746874,2.1369942007765172,2.2471866599850356
1782661527873435400,2.946435302734375,-0.1508148308455944,1.7578639507755636,2.883434791386127
1782661527883506400,2.95650634765625,0.8873170880258083,1.1401312808826565,3.1796389208972453
1782661527893577200,2.9665771484375,1.9123790974438188,0.7110795005016028,3.3535505496919154
1782661527903648300,2.976648193359375,2.8388024534553287,0.3102186263382435,3.305622385086119
1782661527913719300,2.98671923828125,3.9441982287824153,-0.1300052670508623,2.8796801150277256
1782661527923790300,2.996790283203125,4.943623692640662,-0.5545680654495955,2.243990348161757
1782661527933862400,3.0068623046875,5.610858352327346,-1.0061775684669614,1.6294003602087497
1782661527943933400,3.016933349609375,6.101009182924032,-1.2807463508836925,1.131966971388459
1782661527954004500,3.02700439453125,6.390415907379984,-1.2350688878141343,0.8768053386226295
1782661527964075300,3.0370751953125,6.35819706082046,-1.0205598756931722,0.8771329631417989
1782661527974146300,3.047146240234375,6.088206984496116,-0.6845559429742395,1.1580407393217087
1782661527984217300,3.05721728515625,5.725078605747223,-0.2887241490192711,1.7143771296180783
1782661527994288400,3.067288330078125,5.312857402527332,0.09384791199862956,2.3424530604794622
1782661528004359400,3.077359375,4.89994821704328,0.4059808475255966,2.9277275220990178
1782661528014430500,3.087430419921875,4.564086030882597,0.7385173963949084,3.277865486371517
1782661528024501500,3.09750146484375,4.500321706980467,1.0232299716852604,3.295389452624321
1782661528034572300,3.107572265625,4.662997656011581,1.224590894550085,3.0438638382732868
1782661528044644400,3.117644287109375,4.823993689131736,1.2557841974541544,2.6534143218785524
1782661528054715400,3.12771533203125,5.022347685265541,1.037976436048746,2.1316127999991177
1782661528064786400,3.137786376953125,5.301997570338845,0.876528567507863,1.625164330074191
1782661528074857500,3.147857421875,5.503659960368275,0.8694596520349382,1.1570090581864119
1782661528084928500,3.157928466796875,5.774498177954555,0.9898112478166818,0.788284905257076
1782661528094999600,3.16799951171875,6.0595800249487155,1.1273469103723763,0.5642227596320212
1782661528105070300,3.1780703125,6.262831145474315,1.2975415644705295,0.5511142717339098
1782661528115141400,3.188141357421875,6.144512809085845,1.4661217691093682,0.63694619666785
1782661528125212400,3.19821240234375,5.831646883109212,1.5144216896370053,0.7098197096988559
1782661528135283500,3.208283447265625,5.227079399737716,1.3972086841419338,0.6890478475660086
1782661528145355500,3.21835546875,3.7177544487178324,0.924645532684028,0.6390004988491534
1782661528155426600,3.228426513671875,1.6258149029374123,0.1996940125659108,0.19258008890748024
1782661528165497600,3.23849755859375,0.4564262556493282,-0.9467217554137111,-0.7292860421910882
1782661528175568400,3.248568359375,0.3187619982779026,-3.1913270206034183,-2.034811152761429
1782661528185639400,3.258639404296875,1.1507318776130675,-6.464813853499293,-2.7585797467052937
1782661528195710500,3.26871044921875,3.8780917256683107,-8.968490033853053,-2.510405780869722
1782661528205781500,3.278781494140625,4.525670083248615,-8.519689450776577,-1.4372786825932562
1782661528215852500,3.2888525390625,-0.6803799724638462,-8.318012447699903,-0.08098375425040721
1782661528225923600,3.298923583984375,-6.964307097458839,-8.028829595127702,0.4582940953478217
1782661528235994400,3.308994384765625,-14.240100064712761,-4.010186658474803,-2.2802298285394906
1782661528246065400,3.3190654296875,-24.070583360242843,-1.6352192756205797,-6.717521955633163
1782661528256137500,3.329137451171875,-30.940593048369884,-2.1405822883963586,-10.089432337880133
1782661528266208500,3.33920849609375,-32.70693636593818,-2.3913445171594616,-11.613348708832262
1782661528276279600,3.349279541015625,-29.249720859110354,-1.5349942298054695,-11.074607742589711
1782661528286350600,3.3593505859375,-21.435993565821647,-0.5587234315633773,-8.669647372531891
1782661528296421600,3.369421630859375,-12.568099749183654,-0.49011546702235936,-5.608730692648887
1782661528306492400,3.379492431640625,-5.074293561080098,-0.8337515020549296,-3.435482398447394
1782661528316563500,3.3895634765625,0.032925533524155615,-1.436451730249822,-2.3272373711690304
1782661528326634500,3.399634521484375,2.4655647686243056,-2.2973709329545495,-2.0460145376905796
1782661528336705500,3.40970556640625,3.2358903849512335,-2.790942093388736,-2.237863097453117
1782661528346776600,3.419776611328125,3.490975737610459,-2.6588842777222395,-2.350266949100792
1782661528356847600,3.42984765625,3.77725176282525,-2.0152616720303893,-2.0474585990190506
1782661528366919400,3.43991943359375,4.106563796690106,-1.172176816701889,-1.0865759240448474
1782661528376990500,3.449990478515625,4.542887175509334,-0.6780866008296609,0.41533933524042366
1782661528387061200,3.460061279296875,4.737029691427946,-0.3044710225969553,1.8932761914364993
1782661528397132300,3.47013232421875,4.529344387847185,0.16643384025990962,2.600737793701887
1782661528407203300,3.480203369140625,4.129567655658722,0.4080246283128857,2.785664737507701
1782661528417274600,3.490274658203125,3.9026445676445958,0.32972967475503684,2.7039374714136124
1782661528427345700,3.500345703125,3.8694466469198465,0.1129255374342203,2.407126462050527
1782661528437416700,3.510416748046875,4.137258210161328,0.03514423248693347,2.0265128416240215
1782661528447487700,3.52048779296875,4.702821716877818,0.17426950232163071,1.7568837075665593
1782661528457558500,3.53055859375,5.454953504866361,0.38755920178070663,1.5013739920154212
1782661528467629600,3.540629638671875,6.008928865119815,0.6571617400921881,1.2622189066767693
1782661528477701600,3.55070166015625,6.22276041637063,0.9510613920532166,1.11813630669564
1782661528487772700,3.560772705078125,6.332869142818451,1.2624779960043728,1.0789314006410538
1782661528497843700,3.57084375,6.361689579111338,1.4849230618216096,1.0813085050359368
1782661528507914800,3.580914794921875,6.416186308452486,1.7309312279254196,1.04716818889454
1782661528517985800,3.59098583984375,6.415349273106456,2.0596663386851546,0.9925830506175756
1782661528528056600,3.601056640625,6.4024547202199695,2.3178730382353065,0.9010276334702968
1782661528538127600,3.611127685546875,6.443965711259842,2.4636063280329106,0.8538119279827923
1782661528548198700,3.62119873046875,6.673426793318987,2.4958807041719555,0.7556441800236702
1782661528558269700,3.631269775390625,7.1881275432825085,2.558444712373614,0.6288881240271031
1782661528568340700,3.6413408203125,7.851915861907601,2.3992428691938517,0.5484403763495386
1782661528578411800,3.651411865234375,8.429346332028508,2.0761843427658078,0.4693458699118346
1782661528588483800,3.66148388671875,8.85499108044505,1.9541776732534168,0.4892088735714554
1782661528598555000,3.671554931640625,8.870221967324614,2.1820926949143407,0.8225037665273994
1782661528608625700,3.681625732421875,8.251288689470291,2.4576269613623616,1.6114222204476594
1782661528618696700,3.69169677734375,7.024421666681766,2.516127373386919,2.6262422373145817
1782661528628767700,3.701767822265625,6.247665140524506,2.089647927711904,2.606272631475329
1782661528638838800,3.7118388671875,4.71553623702228,1.4564417943552135,1.4439254271313546
1782661528648909800,3.721909912109375,1.586370196777582,0.6989651382073759,-0.43999826793968677
1782661528658980900,3.73198095703125,-2.544162504521012,-0.17692016296088695,-2.713446181254089
1782661528669051600,3.7420517578125,-6.4056777739197015,-0.7888909083262086,-4.374167854660749
1782661528679122700,3.752122802734375,-8.573179048901796,-2.321380169573426,-4.763876489560306
1782661528689193700,3.76219384765625,-6.986179906570911,-4.447295634713769,-3.1556428360208866
1782661528699265800,3.772265869140625,-2.3789117365658283,-5.116241189971566,-0.3420436878072098
1782661528709336800,3.7823369140625,-0.45481589784324167,-4.554223393037915,2.387712882658839
1782661528719407900,3.792407958984375,-1.2980921840906143,-5.920481350859999,4.313292822459339
1782661528729479000,3.80247900390625,-2.210451943436265,-5.43669713268578,3.5667040555506944
1782661528739549700,3.8125498046875,-5.3551136589765544,-2.9573054987609386,0.9139833419594913
1782661528749620700,3.822620849609375,-10.498292540234326,-1.9213538465380668,-1.1737428969748318
1782661528759691800,3.83269189453125,-16.03132647912502,-1.886789021374285,-3.2135636945918202
1782661528769762800,3.8427626953125,-20.306830545938013,-2.162583984585106,-5.235235818186402
1782661528779833900,3.852833740234375,-20.53915929238796,-2.3735160150021315,-6.122134973061084
1782661528789905000,3.86290478515625,-16.696180381155013,-2.9387071812748906,-5.6018970472365615
1782661528799975700,3.8729755859375,-11.27934939393401,-3.5549800077483056,-4.313213327482343
1782661528810047700,3.8830478515625,-6.06572744166255,-3.410545525589585,-3.0073174839034675
1782661528820118800,3.893118896484375,-2.5632202562123534,-2.6732600090771914,-1.5674951081767676
1782661528830189800,3.90318994140625,-1.200782148939371,-1.7821935053899882,0.21668635616004467
1782661528840260900,3.9132607421875,-1.2431062099277972,-1.0444435862362385,1.9018740700423717
1782661528850332000,3.923331787109375,-1.559827642288804,-0.7219295419484376,2.5875714381366968
1782661528860403000,3.93340283203125,-1.5653408527523278,-0.7912266577973961,2.2114678424805403
1782661528870473700,3.9434736328125,-0.8441746963918209,-0.9104714613810181,1.6958794960275292
1782661528880544800,3.953544677734375,0.3442453991025686,-0.8418018297806382,1.1832877010419964
1782661528890615800,3.96361572265625,1.5864315715759991,-0.7175026654168963,0.6982849008582532
1782661528900686800,3.973686767578125,2.7704133923619985,-0.5492170598104595,0.45208698433600364
1782661528910758000,3.9837578125,3.8070676398962733,-0.2842179236412048,0.559092776332423
1782661528920829700,3.99382958984375,4.682798919546604,0.12943769629597662,0.8805781351596117
1782661528930900700,4.003900634765625,5.442857993403077,0.5959577681973576,1.379127376267314
1782661528940971800,4.0139716796875,6.0923898231387135,0.9370102164775133,1.9881394179575145
1782661528951042600,4.02404248046875,6.366648662823438,1.159010168875754,2.463794251820445
1782661528961113600,4.034113525390625,6.491717057994007,1.4541545602008699,2.726340149618685
1782661528971184600,4.0441845703125,6.622016339555382,1.7359499328702688,2.8487136066168546
1782661528981255700,4.054255615234375,6.499517502611875,1.8942136184170841,2.885341501790285
1782661528991326700,4.06432666015625,6.196495509779453,1.9309221776112913,2.6547563841372726
1782661529001397800,4.074397705078125,5.967802489483356,1.8670237059354782,2.136702524353564
1782661529011468500,4.084468505859375,5.843484035897254,1.6733827097982168,1.4324170679062604
1782661529021539600,4.09453955078125,5.723005306604504,1.410806124600768,0.7666620523180813
1782661529031611600,4.104611572265625,5.596340582153201,1.1835407990202307,0.24596169661357997
1782661529041682700,4.1146826171875,5.690092048040032,1.0813438686102628,-0.042158933554589745
1782661529051753700,4.124753662109375,5.847672719758749,1.1217442680597305,-0.10617854739204048
1782661529061824800,4.13482470703125,5.910995145112276,1.2575892010495067,-0.1346465900506824
1782661529071895800,4.144895751953125,5.983175999704003,1.3292469085499643,-0.22519096699189392
1782661529081966600,4.154966552734375,6.124787533396482,1.3229448857963084,-0.3488694056414067
1782661529092037600,4.16503759765625,6.662599694356322,1.2991215271383523,-0.5222642074877396
1782661529102108700,4.175108642578125,7.228658291113376,1.2899176454633474,-0.6314885157838463
1782661529112179700,4.1851796875,7.557634224891662,1.269589435444772,-0.5156853770866989
1782661529122250800,4.195250732421875,7.426112708058953,1.2517574261561035,-0.24649839730616657
1782661529132321800,4.20532177734375,6.98209819021523,1.324174719852209,0.21661992159401997
1782661529142392600,4.215392578125,6.270573722425103,1.4268404368177054,0.8647453368641436
1782661529152464600,4.225464599609375,5.040585937267542,1.391669170193374,1.3684893701359628
1782661529162535700,4.23553564453125,3.104893768775463,1.3066703350827098,1.369839615701139
1782661529172606700,4.245606689453125,0.45386078907549376,0.6371604239404202,0.8343937454812228
1782661529182677800,4.255677734375,-2.8810698158204553,-1.2655021661311388,0.18748353295344858
1782661529192748800,4.265748779296875,-6.024952363681793,-4.673136188188195,-0.24069720021411775
1782661529202819800,4.27581982421875,-7.433499895700812,-7.321722943779826,-1.527704949580133
1782661529212890600,4.285890625,-8.133164998871088,-7.4357093884438275,-3.701122755129635
1782661529222961700,4.295961669921875,-10.205344197648763,-8.457814301621914,-4.54277231695801
1782661529233032700,4.30603271484375,-10.990561678159237,-10.418188491427898,-3.8851089109539982
1782661529243103700,4.316103759765625,-11.201717872720955,-8.245928623741865,-3.2544699977368112
1782661529253174800,4.3261748046875,-12.582684739375114,-4.3638884527087205,-2.7537308453693985
1782661529263246800,4.336246826171875,-13.848254125523566,-2.4187638544827696,-1.9799118339687585
1782661529273318000,4.34631787109375,-14.249641800040006,-2.7251123613893986,-1.1712035877555609
1782661529283389000,4.356388916015625,-13.881480687820911,-3.7996938962578772,-0.8759855466723442
1782661529293459700,4.366459716796875,-11.831627887141703,-4.507915230849385,-1.3220657648742198
1782661529303530800,4.37653076171875,-8.267829489904642,-5.2515878180503845,-2.4206664732336995
1782661529313601800,4.386601806640625,-4.40594597171545,-5.852791962468624,-3.4702190730467435
1782661529323672800,4.3966728515625,-1.2379086412847042,-5.625969412219524,-3.912866101929545
1782661529333743900,4.406743896484375,0.41376492553055283,-4.657437683796882,-3.5576764072254297
1782661529343815000,4.41681494140625,0.5761345850914716,-3.36826618052572,-2.675449628075957
1782661529353885700,4.4268857421875,-0.09076105189919471,-1.739200166837871,-1.3863978056617081
1782661529363956700,4.436956787109375,-1.430581084650755,-0.04247545215785503,0.06116831605955958
1782661529374028800,4.44702880859375,-2.546919694274664,1.1925368831634522,1.3432701732054353
1782661529384099800,4.457099853515625,-2.9972710139244794,1.9023460714682936,2.4007509356692434
1782661529394171000,4.4671708984375,-2.4056968676388264,1.7016607097774743,2.4390550934918225
1782661529404242000,4.477241943359375,-0.6821715320557356,0.839798965525627,1.686441951727122
1782661529414313000,4.48731298828125,1.1054571501255035,-0.09998451505750418,0.7314164783485233
1782661529424383700,4.4973837890625,2.824913628834486,-0.7549632120221853,-0.06565189121440053
1782661529434454800,4.507454833984375,4.07688469774127,-0.9219196148514747,-0.31354733236953614
1782661529444525800,4.51752587890625,4.975091428571939,-0.8317731877192854,-0.14417290861308574
1782661529454596900,4.527596923828125,5.4621296801060435,-0.5026271580711007,0.4081776269175112
1782661529464668000,4.53766796875,5.701627003011107,0.16604425642043352,1.1272921114452183
1782661529474739000,4.547739013671875,5.984077916979789,0.9633058104678988,1.8528022883594035
1782661529484809700,4.557809814453125,6.403585185554623,1.5529744153931737,2.4992823293089863
1782661529494881500,4.567881591796875,7.054488303643464,1.802921528381109,2.8185844258129595
1782661529504952600,4.57795263671875,7.561602544000745,1.8134379539594052,2.614195533429086
1782661529515023600,4.588023681640625,7.916980747014284,1.8090180916905403,2.1686923844628034
1782661529525094700,4.5980947265625,8.741905968534946,1.7239011831581592,1.818042379014939
1782661529535165700,4.608165771484375,9.74829425714314,1.534730318172276,1.5940128204852342
1782661529545236700,4.61823681640625,10.731892037272452,1.2196084299623966,1.5530859129436314
1782661529555307500,4.6283076171875,11.350772123634815,1.2906629108726977,1.7288440463878214
1782661529565378600,4.638378662109375,10.401682762306928,1.9483076121762393,1.9372456815443932
1782661529575449600,4.64844970703125,9.064364483243226,2.785957290713489,2.2496213397860525
1782661529585520600,4.658520751953125,7.999617529168725,3.534742398622632,2.502695060361922
1782661529595591700,4.668591796875,6.823596311998367,4.115400014096498,2.7837591961473227
1782661529605663700,4.678663818359375,5.720245778763294,4.673893436296284,2.825852078728378
1782661529615734800,4.68873486328125,5.863255488815903,5.047360545969009,2.5002222405076027
1782661529625805800,4.698805908203125,6.3932186898410315,5.082037307074666,2.097287336549163
1782661529635876600,4.708876708984375,6.932412076026201,4.7262516923040145,1.6757874328523874
1782661529645947600,4.71894775390625,7.598203551167249,4.311452747550606,1.4834705249257385
1782661529656018700,4.729018798828125,6.976418391013145,3.9273675054907797,1.6109093024894594
1782661529666089700,4.73908984375,4.878860420829057,3.2675779011130333,1.4823825835585593
1782661529676160800,4.749160888671875,2.9155478394836187,2.4187743758767843,0.9908185251630842
1782661529686231800,4.759231689453125,0.9448223515331745,1.5762290342524647,0.8975797580387442
1782661529696302600,4.769302490234375,-1.465840614080429,0.16236118399351834,1.869965020084381
1782661529706373600,4.77937353515625,-2.966801056858897,-2.819756392201781,3.561027763479948
1782661529716444700,4.789444580078125,-2.4971938325971363,-5.331653872933983,2.6371324646413323
1782661529726516700,4.799516845703125,-2.154616658967733,-5.208581035494804,-0.4782229307852685
1782661529736587800,4.809587890625,-4.078354770293831,-5.243640073916316,-0.8859302367772907
1782661529746658800,4.819658935546875,-5.821136010488868,-6.542548835086822,1.1501482325062156
1782661529756729900,4.829729736328125,-7.1114908783257,-5.448728931263089,1.0094741988595575
1782661529766800600,4.839800537109375,-9.979687184047698,-2.379156651237607,-0.430891855289787
1782661529776871700,4.84987158203125,-14.834376455694436,0.18881313758939502,-0.38456250418275595
1782661529786942700,4.859942626953125,-18.55768853853941,0.6431570340067148,-1.5078732909068464
1782661529797013800,4.870013671875,-18.515189120984076,0.6756830468192696,-2.817749728554487
1782661529807084800,4.880084716796875,-18.573060295194388,0.6786169083140791,-3.7173067049503326
1782661529817155800,4.89015576171875,-16.849159112036226,-0.7255700904078781,-4.151868919315934
1782661529827226600,4.9002265625,-12.271246800374984,-1.7515378164939581,-4.156915681311488
1782661529837298700,4.910298583984375,-8.818244527328014,-2.0883859449520705,-4.026899892866611
1782661529847369700,4.92036962890625,-6.552806609728932,-2.170535966502875,-3.6734681477457283
1782661529857440800,4.930440673828125,-6.69761021746099,-1.9444506444871426,-3.094630733436346
1782661529867511800,4.94051171875,-8.216178797644377,-1.5219254893958567,-2.1916211323685943
1782661529877582800,4.950582763671875,-9.051162471842765,-0.5327746051840484,-1.4627937937304376
1782661529887654000,4.96065380859375,-9.527508648970723,0.6171979784943163,-0.9447583463862538
1782661529897724700,4.970724609375,-10.731156708735227,2.816610203130543,-0.4146810174621641
1782661529907795700,4.980795654296875,-7.970430013129115,2.848470445510745,-0.09709303139969706
1782661529917866800,4.99086669921875,-4.975280813664198,2.1729098560273648,0.29378084788694975
1782661529927937800,5.000937744140625,-1.4418705404281615,1.8556763824909925,0.8394416765205561
1782661529938008800,5.0110087890625,1.2509107461988924,0.940254020704329,1.1120803676575421
1782661529948079900,5.021079833984375,3.089678663986921,-0.30054098967164755,0.7633373648747801
1782661529958150700,5.031150634765625,5.033431973859668,-0.5334259086996317,0.579184912572801
1782661529968222700,5.04122265625,6.246322493743896,-0.10521510918736457,0.8702405732795596
1782661529978293800,5.051293701171875,6.522464078435301,0.2943479802504182,1.2486395863965154
1782661529988364800,5.06136474609375,6.293125745972991,0.4903048521146178,1.4004608178056777
1782661529998435800,5.071435791015625,6.162470490580797,0.42914428097009655,1.1857971996448933
1782661530008507000,5.0815068359375,6.618114655941724,0.5261287374287843,0.8655524154633283
1782661530018578000,5.091577880859375,6.952091174486279,0.8154621043875813,0.7629753266293555
1782661530028649000,5.10164892578125,6.642921180418133,1.2330442501187324,0.6527122864026575
1782661530038719700,5.1117197265625,6.271316065225005,1.5782213771134614,0.5147893050298095
1782661530048790800,5.121790771484375,6.219609258863329,1.7202561046540736,0.3512190740400925
1782661530058861800,5.13186181640625,6.0961272561013695,1.7919176115468143,0.12877716829432173
1782661530068932900,5.141932861328125,5.9308723964929575,1.773870790463686,-0.1923151178283617
1782661530079004000,5.15200390625,6.082315003848075,1.7966408406764267,-0.47230588876120744
1782661530089075700,5.16207568359375,6.382951562848687,1.8104381876215339,-0.655442368953675
1782661530099146800,5.172146728515625,6.604481851908564,1.9368691033169627,-0.8162648721378296
1782661530109217500,5.182217529296875,6.679129973396659,2.196507004714012,-0.9763490511100739
1782661530119288600,5.19228857421875,6.249447347766161,2.4251842429190873,-1.1192632648989558
1782661530129359600,5.202359619140625,5.371024929335713,2.5905814336076376,-1.2336008610881863
1782661530139430700,5.2124306640625,4.754009467801452,2.7622841541811822,-1.2253861365810037
1782661530149501700,5.222501708984375,4.863611413770914,2.9617355901628732,-1.2420257212147117
1782661530159572700,5.23257275390625,5.341185086867213,3.0249808586269613,-1.3125200840242206
1782661530169643500,5.2426435546875,5.8477685813486575,2.910909073767066,-1.1373756985642016
1782661530179714600,5.252714599609375,5.726077553656697,2.5495681629568336,-0.4239247562235221
1782661530189785600,5.26278564453125,4.406175104296207,1.90978498929739,0.6584415507696568
1782661530199856600,5.272856689453125,2.2709213174462315,1.1308943737208843,1.2197009305514395
1782661530209928700,5.2829287109375,0.1599292806714773,0.33810441212952136,1.074118593531847
1782661530219999700,5.292999755859375,-1.6949837162315844,-1.0333347477227448,0.9147646285302936
1782661530230070800,5.30307080078125,-2.5767595367431637,-3.340861748510599,0.6422954487413167
1782661530240141600,5.3131416015625,-1.7418384063869714,-5.775062826099991,-0.03582381224893033
1782661530250211800,5.3232119140625,0.6748720226973295,-7.3884817733228205,0.12344634692668914
1782661530260283000,5.333282958984375,-0.4417664466559887,-8.11911835334003,1.603444373436272
1782661530270354000,5.34335400390625,-3.9877340036481614,-7.178362520593405,2.217973278851807
1782661530280425000,5.353425048828125,-6.1427358625411985,-4.873554131114482,1.1591531575430183
1782661530290495700,5.363495849609375,-7.204492987149953,-3.1342309224188325,0.4124974628780037
1782661530300566800,5.37356689453125,-7.904280255395173,-2.5213269878566265,0.5995001169793307
1782661530310637800,5.383637939453125,-7.653084895911812,-2.72736569327414,1.0327091631703078
1782661530320709600,5.393709716796875,-6.570217763257026,-3.6814836964190003,1.1386914573378861
1782661530330780700,5.40378076171875,-5.814125839465857,-5.036760826021433,0.8614077899392694
1782661530340851700,5.413851806640625,-5.194375984531641,-6.113201725021004,0.1400282100237906
1782661530350922800,5.4239228515625,-4.327669722858071,-6.461291524592042,-0.5900463521964848
1782661530360993500,5.43399365234375,-3.794999600961804,-6.180843767139315,-1.0961451319009066
1782661530371064600,5.444064697265625,-3.415698670569062,-5.379232785710692,-1.427598561708629
1782661530381135600,5.454135498046875,-2.7866455652385946,-4.236909840002656,-1.6295485365077853
1782661530391206700,5.46420654296875,-2.017082165455818,-2.6216560785681007,-1.6318376703582702
1782661530401277700,5.474277587890625,-1.5926736808359623,-0.801322227615118,-1.2321047773115337
1782661530411348700,5.4843486328125,-1.554849853876233,0.7785422405302524,-0.4268552932500839
1782661530421419500,5.49441943359375,-1.378311968231201,1.8251725231558082,0.40439679320454597
1782661530431490600,5.504490478515625,-0.5792489177197218,2.26061093583405,0.8512718881111592
1782661530441562600,5.514562744140625,0.6155272688031196,2.1073528034895657,0.9105069710858166
1782661530451633400,5.52463330078125,1.9959873549789189,1.7058549465969204,0.5811529977753758
1782661530461704400,5.534704345703125,3.3307647173881527,1.0694985325157642,0.1242339171078056
1782661530471775500,5.544775390625,4.591788276800513,0.5336544567584991,-0.12919665408171713
1782661530481846500,5.554846435546875,5.424640784189105,0.47717210655808445,-0.20639343713931738
1782661530491917600,5.56491748046875,5.63071339187622,0.9272937091052532,-0.15379508876539766
1782661530501988600,5.574988525390625,5.025364402738213,1.6411618174120783,0.1792915682673454
1782661530512059600,5.5850595703125,4.302275753882527,2.4314962025448676,0.5695088102761656
1782661530522130400,5.59513037109375,3.873127965781092,3.121058137112856,0.7765713788487016
1782661530532201500,5.605201416015625,3.5954081719875335,3.6548441112965344,0.7895445499293505
1782661530542272500,5.6152724609375,3.544319205263257,3.8145088958129283,0.5054099937226623
1782661530552343600,5.625343505859375,3.786100255191326,3.6366987982749936,0.13208470367342232
1782661530562414600,5.63541455078125,4.078101672315597,3.3539059390008448,-0.10917188398912549
1782661530572486700,5.645486572265625,4.4242116962462665,2.977638384954631,-0.35957477792054415
1782661530582557700,5.6555576171875,4.724909045523405,2.7438486260414123,-0.5097233999423683
1782661530592628500,5.66562841796875,4.870882281556725,2.8385750744402407,-0.4682882506176829
1782661530602699500,5.675699462890625,4.569235668730736,3.0389570692703125,-0.32795550468936563
1782661530612770600,5.6857705078125,4.228668081358075,3.2137957497820255,-0.1691219103001058
1782661530622841600,5.695841552734375,4.10265860594511,3.2158412841349837,-0.20854162814915178
1782661530632912600,5.70591259765625,4.309065560153126,3.079747637081146,-0.42052667475044725
1782661530642985500,5.7159853515625,4.932020348608494,2.9294331569731233,-0.5054835704155266
1782661530653056500,5.726056396484375,5.260873532789946,2.776214187595248,-0.4451284704349935
1782661530663127600,5.73612744140625,5.026697697168588,2.444450084403157,-0.4455924346849322
1782661530673198300,5.7461982421875,4.290426326134801,1.9296961429476738,-0.6067851594209671
1782661530683269400,5.756269287109375,3.14678703713119,1.2782961812525986,-0.91887440193668
1782661530693340400,5.76634033203125,1.820728987750411,0.6345259837836027,-1.2580384061217307
1782661530703411500,5.776411376953125,-0.3166746706098318,0.14633154795169828,-1.164445491797477
1782661530713482500,5.786482421875,-2.7935394164055585,-0.7246861471801996,-0.5430852790571749
1782661530723553500,5.796553466796875,-2.8060288956224917,-1.8904057505667209,-0.08338774665221571
1782661530733625600,5.80662548828125,1.5849357800602912,-2.782613533243537,-0.05424845366850495
1782661530743696400,5.8166962890625,5.452183455631136,-4.305503483757376,0.327310338653624
1782661530753767400,5.826767333984375,3.826325882595777,-5.4057589735865585,1.8631239220179616
1782661530763838500,5.83683837890625,-0.26846564323604105,-4.153859216350317,3.926029534885287
1782661530773909500,5.846909423828125,-2.4813831000030038,-1.5610241585969924,4.587138697429001
1782661530783980500,5.85698046875,-4.2773897344291205,0.8749071037858724,3.6676340347647667
1782661530794051600,5.867051513671875,-8.174753731322289,2.349993100595474,1.973537476631254
1782661530804122600,5.87712255859375,-12.101155606651306,2.235416288822889,0.14772110261395574
1782661530814193400,5.887193359375,-13.185575813966988,0.44370355219841,-1.7095580388985574
1782661530824264400,5.897264404296875,-12.522305966258049,-2.0406044953405855,-3.5385289314240214
1782661530834335500,5.90733544921875,-10.53683591364026,-4.44572736248374,-4.6065644056499
1782661530844406500,5.917406494140625,-7.395073426672816,-6.481686077845096,-4.399687495842576
1782661530854478600,5.927478515625,-4.124575838720799,-7.600441685482859,-3.1938699830844994
1782661530864549600,5.937549560546875,-1.5561960077881811,-7.805110271590948,-1.72816147095114
1782661530874620700,5.94762060546875,-0.1271218205690384,-6.990849067425727,-0.4855554656304419
1782661530884691500,5.95769140625,0.6011918694585562,-5.14198821016848,0.7122543164346367
1782661530894762500,5.967762451171875,0.6405038891494274,-2.6999422642976043,1.927147919769585
