time,seconds_elapsed,z,y,x
1782810962635912700,0.07291259765625,-0.13565584015846252,-0.15136742322705685,0.08146481576561927
1782810962645984800,0.08298486328125,0.0405816012352705,-0.1725196629796177,0.08173924879282712
1782810962656056600,0.093056640625,0.21838497677147387,-0.20076149566695092,0.08771481607109308
1782810962666127600,0.103127685546875,0.3750456110358238,-0.2198285997085273,0.13579378732442854
1782810962676199700,0.11319970703125,0.3586474339425564,-0.21547880700118838,0.16515198375582693
1782810962686271700,0.123271728515625,0.3408165936976671,-0.20382775136977432,0.18148849378973245
1782810962696342500,0.133342529296875,0.401854707506299,-0.20909991961903868,0.17967384558320043
1782810962706414300,0.143414306640625,0.3494137416511774,-0.2140497240461409,0.16570917924717068
1782810962716486700,0.153486572265625,0.20839432863295076,-0.18480529018752276,0.12733517105877398
1782810962726557400,0.163557373046875,0.09366729473471641,-0.18180033621788025,0.08076514306366443
1782810962736629500,0.17362939453125,0.01848082858622074,-0.21200798908546567,0.044971068365871905
1782810962746700500,0.183700439453125,0.0093371526658535,-0.2577015995722264,0.0025251345634460447
1782810962756772600,0.193772705078125,0.05734510450959205,-0.26517441967092453,-0.014798925203084946
1782810962766844400,0.203844482421875,0.10348141726255417,-0.2570681970395148,0.011117314080893993
1782810962776915500,0.21391552734375,0.1230558863043785,-0.22338263892829416,0.029842034425586462
1782810962786987500,0.223987548828125,0.13424538883864878,-0.12194792506247758,0.10460998290106653
1782810962797059600,0.2340595703125,0.10441899037361145,-0.1148616200633347,0.17382877281680703
1782810962807130600,0.244130615234375,-0.04241641544699669,-0.1409005358789116,0.16667422488704323
1782810962817202700,0.25420263671875,-0.17190145801603793,-0.17039477978013454,0.05280000842586159
1782810962827274500,0.2642744140625,-0.18509060993492601,-0.2213245373547077,-0.02735387087166309
1782810962837345500,0.274345458984375,-0.2063976018577814,-0.2691335325602442,-0.126611532959342
1782810962847417600,0.28441748046875,-0.1525923619121313,-0.2876150187335908,-0.16873408002629875
1782810962857488400,0.29448828125,-0.0439016855686903,-0.294520852599293,-0.16982275204584002
1782810962867560400,0.304560546875,0.0829056622236967,-0.2877930056490004,-0.18628654172122477
1782810962877632300,0.31463232421875,0.15340893899202346,-0.29776290326043964,-0.19871873779296872
1782810962887703300,0.324703369140625,0.1511672975450754,-0.2939766627199948,-0.21015826956555245
1782810962897775400,0.334775390625,0.1608440574288368,-0.28211474081687626,-0.17173749962598084
1782810962907846400,0.344846435546875,0.27931495403051376,-0.23780060198977587,-0.08488061555847524
1782810962917918500,0.35491845703125,0.2834989617168903,-0.15116780900172888,0.0721568891942501
1782810962927990500,0.364990478515625,0.11419628802239894,-0.09684738607555628,0.13209303311035037
1782810962938061600,0.3750615234375,-0.07689151650071144,-0.10730842820480466,0.0649604018189013
1782810962948133400,0.38513330078125,-0.20281097554266453,-0.15586290801540018,-0.028682781387865543
1782810962958205400,0.395205322265625,-0.2722837402194738,-0.19367796714678406,-0.03001271481737494
1782810962968276500,0.4052763671875,-0.26362521746754647,-0.24537279080972074,0.002989683335274458
1782810962978348500,0.4153486328125,-0.21881693844795225,-0.25638708290755746,-0.009340075275301932
1782810962988420600,0.425420654296875,-0.34098961217701435,-0.27943573086597023,-0.05924728486910462
1782810962998491600,0.43549169921875,-0.4891746790409088,-0.26947357816956935,-0.1058566219612956
1782810963008563500,0.4455634765625,-0.7663643114805221,-0.2614141172893345,-0.021117095373943448
1782810963018634500,0.455634521484375,-1.156018293583393,-0.27903073026165365,0.1281441493541002
1782810963028706600,0.46570654296875,-1.346450264546275,-0.1498421133559197,0.09372969244644046
1782810963038778600,0.475778564453125,-1.1061246741235256,-0.027097850283980367,-0.04435629746839404
1782810963048849700,0.485849609375,-0.6662947484880686,-0.07425788006149232,-0.1520582550354302
1782810963058921500,0.49592138671875,-0.39039749394655227,-0.0935490751825273,-0.288092646182701
1782810963068993500,0.50599365234375,-0.01894084731340408,-0.0781138248372823,-0.15287285935394465
1782810963079064600,0.516064697265625,0.39528818859755993,-0.038505817874521016,0.3808518130965531
1782810963089136600,0.52613671875,0.7598655971109867,0.0640733898513019,0.7617310987219214
1782810963099208700,0.536208740234375,0.8919161062538623,0.20324805178567765,0.9252275703556835
1782810963109279500,0.546279541015625,0.7920096248686314,0.21984774280041455,0.9025373804461211
1782810963119351300,0.556351318359375,0.5428396337330341,0.13644392179623246,0.7677689906466751
1782810963129422300,0.56642236328125,0.15687866092920302,0.0349291284315288,0.5390957710295915
1782810963139494400,0.576494384765625,-0.1559036784172058,-0.03729439625814557,0.3298732479441911
1782810963149566500,0.58656640625,-0.28257950878441335,0.02888575661405921,0.16696049448251724
1782810963159637500,0.596637451171875,-0.09876607917845248,0.1370659992173314,0.10282273415811359
1782810963169709600,0.60670947265625,0.2054179431706667,0.10409984142184257,0.134040294720605
1782810963179781400,0.616781494140625,0.43598669421076774,0.08729176835343241,0.13918204152323305
1782810963189852400,0.626852294921875,0.6259983939349651,0.04487199190557003,0.05593772192969918
1782810963199924500,0.636924560546875,0.9012158495187759,-0.07600655035972595,-0.08763480963744223
1782810963209995500,0.64699560546875,1.0361644181907177,-0.2626855985298753,-0.19777086248360573
1782810963220067600,0.657067626953125,0.9176198718309402,-0.33157018805518745,-0.22019626397714018
1782810963230139400,0.667139404296875,0.6723480571776628,-0.3013813860185444,-0.25359979027658697
1782810963240210400,0.67721044921875,0.435749378323555,-0.16128844019547103,-0.238184998197481
1782810963250282500,0.687282470703125,0.3313654592633247,0.06579305325075983,-0.12916574748679996
1782810963260354600,0.6973544921875,0.2762152344495058,0.2197860757410526,0.015570055706053972
1782810963270425600,0.707425537109375,0.10191840572953223,0.21896686831265685,0.12440043278113007
1782810963280497700,0.71749755859375,-0.2992804682165384,0.06773264301121235,0.17323767505586146
1782810963290568700,0.727568603515625,-0.7382704358965158,-0.10822495852783322,0.03157163469716907
1782810963300640500,0.737640625,-0.8465800039678811,-0.1391958508528769,-0.3156830292239785
1782810963310712600,0.747712646484375,-0.5362725303024053,-0.20020868408977985,-0.5297356758795678
1782810963320783400,0.757783447265625,-0.1970785693705082,-0.26118074692487714,-0.5653465029649436
1782810963330855700,0.767855712890625,-0.11211305200755596,-0.21632015319615602,-0.4014287371791899
1782810963340927500,0.777927490234375,-0.07191197452247142,0.0026668811216950415,-0.20915771422088145
1782810963350998500,0.78799853515625,0.16408815391659737,0.1770968347020447,-0.04001271530613303
1782810963361070300,0.7980703125,0.2209019280284643,0.053799102465808386,0.19367694423347712
1782810963371142400,0.808142333984375,0.17701660907268524,0.10780921733379363,0.45507352586612104
1782810963381213400,0.81821337890625,0.2840349682897329,0.24443784804716706,0.6450529307559132
1782810963391285500,0.828285400390625,0.39677930393815036,0.18184183727204797,0.7459628900952637
1782810963401356500,0.8383564453125,0.7986632375389338,0.027707652745395897,0.8101423706695436
1782810963411428400,0.848428466796875,0.9626444239497184,0.018588672874867915,0.8784193496905267
1782810963421500400,0.85850048828125,0.6181213769495487,0.030311259372532366,0.6627814796701074
1782810963431571500,0.868571533203125,0.25332477272748943,-0.20034107829779385,0.3199471164092421
1782810963441643500,0.8786435546875,-0.31941900088191033,-0.5487529494300485,0.11998305473029613
1782810963451715600,0.888715576171875,-0.6879226429283618,-0.796652189977467,-0.05823284712955355
1782810963461786600,0.89878662109375,-0.7311807698965073,-0.740280606675148,-0.28156960108950735
1782810963471858400,0.9088583984375,-0.6175654966324567,-0.5348343141928315,-0.37873350576832887
1782810963481929500,0.918929443359375,-0.425635396066308,-0.28467005132287737,-0.28019465947449207
1782810963492001500,0.92900146484375,-0.1979799021244049,-0.06825973562523723,-0.09010127281621098
1782810963502073600,0.939073486328125,-0.12833470349013804,0.07263780457898975,0.15970511652678251
1782810963512144600,0.94914453125,-0.058465632972121234,0.07262523735836147,0.20090806453078985
1782810963522216400,0.959216552734375,0.03367372154295444,0.03994403398409486,0.17517185798883436
1782810963532288500,0.96928857421875,0.09507248535752295,-0.07363529118373989,0.13470000073835253
1782810963542359600,0.979359619140625,0.09732581724226474,-0.24758842103257775,0.060163961322605604
1782810963552431600,0.989431640625,0.06804243961274624,-0.35647608125284314,-0.008203034069389104
1782810963562502400,0.99950244140625,0.024141338565945625,-0.3932373935475945,-0.10823401861712335
1782810963572574500,1.009574462890625,0.1819938129633665,-0.3226433697558939,-0.04798384031578898
1782810963582646500,1.019646484375,0.46025838115811346,-0.15519450723454356,0.07753112957850099
1782810963592717300,1.02971728515625,0.669026219278574,0.04227379210591316,0.2026988934703171
1782810963602789400,1.039789306640625,0.8126637058407068,0.12659955026060343,0.326777985342592
1782810963612861400,1.049861328125,0.8275748592466116,0.08488982177823781,0.34511633671820163
1782810963622932500,1.059932373046875,0.5314613306283951,-0.040498599126935,0.2621262110814452
1782810963633004500,1.070004638671875,0.21311960358917711,-0.1682233540251851,0.0671314622476697
1782810963643075600,1.08007568359375,0.1556599327892065,-0.25990079011693595,0.009937018255144358
1782810963653147400,1.0901474609375,0.17807050203979014,-0.2913203029923141,-0.02459375850856304
1782810963663219500,1.100219482421875,0.01869534811973572,-0.3212022310368717,-0.08965659778863191
1782810963673290500,1.11029052734375,-0.34727906771004197,-0.31079028874635695,-0.05826192709356546
1782810963683362600,1.120362548828125,-0.6008265432775021,-0.26988603142797946,0.014142799381911753
1782810963693434400,1.130434326171875,-0.5876894138067961,-0.1815834785968065,0.09974266912564635
1782810963703505400,1.14050537109375,-0.5102350027263164,-0.1201839841298759,0.1796694616690278
1782810963713577500,1.150577392578125,-0.30558219870924946,-0.0906475085221231,0.22059768438488245
1782810963723648500,1.1606484375,-0.013638064730167388,-0.018469576539844275,0.26261735559925437
1782810963733720600,1.170720458984375,0.20637714359164236,0.04163754002898931,0.3236355956636369
1782810963743792600,1.180792724609375,0.24047931967973707,0.0832465846158564,0.2972780423529446
1782810963753863700,1.19086376953125,0.23454992963075635,0.026029490400105715,0.23495281134322285
1782810963763935000,1.20093505859375,0.2272767237573862,-0.06876096314564346,0.15244900791868565
1782810963774007300,1.21100732421875,0.03296411196887493,-0.15609320963993667,0.02357902850806713
1782810963784078000,1.221078125,-0.1484229672729969,-0.2277748825378716,-0.06793064980134368
1782810963794150100,1.231150146484375,-0.1947901661723852,-0.2078787803262472,-0.1305129243120551
1782810963804222200,1.24122216796875,-0.3262847949981689,-0.14257497189715504,-0.1341523037277162
1782810963814293200,1.251293212890625,-0.4652846848875284,-0.056105479712039226,-0.15301044119372964
1782810963824365000,1.261364990234375,-0.44089083286523817,-0.025514818876236675,-0.17915610531941056
1782810963834436000,1.27143603515625,-0.17415186729133128,-0.0598952273838222,-0.1300876846373081
1782810963844508200,1.281508056640625,0.21011633011996744,-0.11873846149668096,-0.07831351212784647
1782810963854580200,1.291580322265625,0.46909167595505713,-0.14943784340396524,0.005066489609330893
1782810963864651300,1.3016513671875,0.5100426950246095,-0.0966072937093675,0.06528773407712578
1782810963874723000,1.31172314453125,0.32448096044659613,-0.019677052633464334,0.12135785021483897
1782810963884794000,1.321794189453125,0.03615560148656368,0.008891746985912323,0.1292889354750514
1782810963894866200,1.3318662109375,-0.14554185887873172,-0.019463263752311468,0.10905483348071575
1782810963904938200,1.341938232421875,-0.13058803537487984,-0.08054492444172501,0.10214169309139251
1782810963915009300,1.35200927734375,-0.05982639993131161,-0.12333441098481417,0.07328589322417974
1782810963925081300,1.362081298828125,-0.0009773205995559692,-0.1461487387306988,0.043672260726988314
1782810963935153200,1.372153076171875,-0.050959787386655804,-0.1262672495663166,0.040215982793271536
1782810963945224200,1.38222412109375,-0.14083938027620316,-0.10769888882711529,0.01454027426689863
1782810963955296300,1.392296142578125,-0.035140286964178084,-0.09968202497959136,0.023485212744772433
1782810963965368300,1.402368408203125,0.14769406847655772,-0.12839637054949998,0.041454876938462254
1782810963975439400,1.412439453125,0.27018238402605055,-0.12711962861195206,0.03025119974836707
1782810963985511400,1.422511474609375,0.2675654795259237,-0.09722776369526982,0.048047991593182085
1782810963995582200,1.432582275390625,0.1798936258137226,-0.06975947266370057,0.0671801236949861
1782810964005654000,1.442654052734375,0.00175415019094944,-0.0233189162671566,0.048278731609135865
1782810964015726000,1.45272607421875,-0.12159341253638267,-0.00855506237745285,0.04299816085770726
1782810964025797000,1.462797119140625,-0.13460954597592353,-0.03826484872549772,0.06920958369597792
1782810964035869200,1.472869140625,-0.07724281415641307,-0.10133870614543557,0.020468787533044815
1782810964045940200,1.482940185546875,-0.05343874472081661,-0.1337627198882401,0.052477206212282176
1782810964056012000,1.493011962890625,-0.011381810235977173,-0.12028788289576768,0.083924337746948
1782810964066084000,1.503083984375,0.05810264487862587,-0.10405044932216405,0.10688815696612
1782810964076155100,1.513155029296875,0.09764204358458518,-0.06997282315343618,0.11887699318453669
1782810964086227200,1.523227294921875,0.14387597149312495,-0.05384834843501448,0.1021004842981696
1782810964096299300,1.53329931640625,0.10326748225092887,-0.09295330124646425,0.0887998348288238
1782810964106370300,1.543370361328125,0.11417816784381865,-0.1019870870515704,0.03947363999336958
1782810964116442000,1.553442138671875,0.12989713050127027,-0.03257408973798156,0.04722352346777916
1782810964126513200,1.56351318359375,0.018157003459334374,0.004251958356052637,0.07825579059123992
1782810964136585200,1.573585205078125,-0.2794242596238851,-0.0009428338080644607,0.02696209507510066
1782810964146657300,1.5836572265625,-0.5707084683895111,0.0009749825119972228,-0.08472133334353565
1782810964156728300,1.593728271484375,-0.7068816104203463,-0.02716550869271159,-0.1466077345445752
1782810964166800400,1.60380029296875,-0.6045651452839375,-0.0783339703939855,-0.17813041553348302
1782810964176872200,1.6138720703125,-0.42204701618552204,-0.09678454997241497,-0.13453487330451608
1782810964186943200,1.623943115234375,-0.20286533607840537,-0.10175313216522336,-0.06069514558985829
1782810964197015300,1.634015380859375,0.08300970712006092,-0.09269581935405731,-0.010321925919502973
1782810964207086000,1.644086181640625,0.24051556003689764,-0.07432298118695617,0.04273015757128596
1782810964217158400,1.654158447265625,0.3115022364079952,-0.02348828148469329,0.1089370523199439
1782810964227230200,1.664230224609375,0.43799978759884833,-0.04424173117801547,0.16454714973047374
1782810964237301000,1.674301025390625,0.4761036005437374,-0.11585399210155009,0.2047280612103641
1782810964247373000,1.684373046875,0.3794342013835907,-0.12820157862976192,0.18001082245260475
1782810964257445000,1.694445068359375,0.23003157542347907,-0.1586978391803801,0.12363017906099558
1782810964267516200,1.70451611328125,0.050509705531597136,-0.20016133781671522,0.09661065471023321
1782810964277588200,1.714588134765625,-0.13372984053194523,-0.18640271544679998,0.09572320435121655
1782810964287659300,1.7246591796875,-0.2128758579611778,-0.15782880126088858,0.07852204031199217
1782810964297731000,1.73473095703125,-0.19957973853647706,-0.11398629853352904,0.13932970636561512
1782810964307803100,1.74480322265625,-0.19372575181126594,-0.039208705446869135,0.24030980833172796
1782810964317874200,1.754874267578125,-0.16472878990769385,0.014979980858415363,0.2684679813235998
1782810964327946200,1.7649462890625,-0.06810732154250144,0.007275982352346181,0.2582050921149552
1782810964338018300,1.775018310546875,0.09089783002138137,-0.07010960127562284,0.2178774656407535
1782810964348089300,1.78508935546875,0.1347580145359039,-0.1291011578179896,0.1842332624532282
1782810964358161200,1.7951611328125,0.07268237437307834,-0.1312283791050315,0.15025003656968475
1782810964368232200,1.805232177734375,0.08075403714776039,-0.09942541987001895,0.1294077395491302
1782810964378304300,1.81530419921875,0.0983867244720459,-0.07050459194257855,0.1507224763870239
1782810964388376300,1.825376220703125,0.08975392068326472,-0.012750175979733467,0.17860943122208117
1782810964398447400,1.835447265625,0.0676432111620903,0.029410365010052918,0.1866885466508567
1782810964408519200,1.845519287109375,0.08349252220094204,0.0023266893818974493,0.21262378289625047
1782810964418591200,1.85559130859375,0.12558920417428016,-0.008345072888582944,0.2364101705446839
1782810964428662300,1.865662353515625,0.13502864817082882,-0.036034020933508874,0.24636545510888097
1782810964438734300,1.875734375,0.10845043784677982,-0.030269758318364617,0.2214157227694988
1782810964448805000,1.88580517578125,-0.006575871258974075,-0.0469753939256072,0.15492387359961868
1782810964458877200,1.895877197265625,-0.21459493683874606,-0.06822700239941477,0.04537015068605542
1782810964468949200,1.90594921875,-0.3998813616067171,-0.10618789974227547,-0.019039923773705957
1782810964479020000,1.91602001953125,-0.35466976248323917,-0.09336948083192109,-0.020023235722631216
1782810964489092000,1.926092041015625,-0.2272030739992857,-0.02196443291828036,0.009136953918635844
1782810964499164200,1.9361640625,-0.07379004335403443,0.00300853416621685,-0.025113544598966836
1782810964509235200,1.946235107421875,0.005932312658429146,-0.02957651535719633,-0.007069207733869552
1782810964519307300,1.956307373046875,0.10593582467734813,-0.0415847869284451,-0.0371568874835968
1782810964529378000,1.9663779296875,0.2814940516352653,-0.09856266556084156,-0.09461188210844992
1782810964539450000,1.9764501953125,0.38462358672022817,-0.14451120065674186,-0.08013546685799956
1782810964549522200,1.986522216796875,0.3927151232391596,-0.1453223709091544,-0.057306233803927895
1782810964559593200,1.99659326171875,0.3312462167978287,-0.14090674642398954,-0.03049728346392512
1782810964569665300,2.006665283203125,0.1426665957033634,-0.15513225565329194,-0.06335486631840467
1782810964579736300,2.016736328125,-0.07541910586059093,-0.15941665497422217,-0.06250321792513132
1782810964589808000,2.02680810546875,-0.16816753218472003,-0.1597457407981157,-0.09178922590315342
1782810964599880200,2.036880126953125,-0.1821539719611406,-0.1702994296468794,-0.08647942905724049
1782810964609951200,2.046951171875,-0.12446692214608192,-0.17071926249414682,-0.03549202301129699
1782810964620023300,2.057023193359375,-0.054615387284755706,-0.15057459234893322,-0.0036016777537763115
1782810964630095400,2.067095458984375,-0.020331424888968466,-0.1408437641903758,0.05320610500872135
1782810964640166400,2.07716650390625,0.03614975626766682,-0.1365609723046422,0.09533566633835434
1782810964650238200,2.08723828125,0.1293652155816555,-0.13317717508524657,0.1639073905222118
1782810964660309200,2.097309326171875,0.21422493448257446,-0.12385492772758007,0.1962868344709277
1782810964670381300,2.10738134765625,0.23991350249052046,-0.1405034263201058,0.24731720287576317
1782810964680453400,2.117453369140625,0.1737415329247713,-0.13711480679512023,0.2299298686146736
1782810964690524200,2.127524169921875,0.06314765330851077,-0.13654387503936885,0.21923735581710935
1782810964700596000,2.137595947265625,-0.045617257314920424,-0.1339808926835656,0.19645400773137806
1782810964710668000,2.14766796875,-0.15223580355942248,-0.14381678865179418,0.18963146823495625
1782810964720739000,2.157739013671875,-0.20197043306529522,-0.12459551696181297,0.17615356250256298
1782810964730811100,2.16781103515625,-0.24434067128300666,-0.10342077311649918,0.1700149136170745
1782810964740882200,2.177882080078125,-0.240056125831604,-0.07714432221800088,0.13884791419804096
1782810964750954200,2.187954345703125,-0.18149404674768446,-0.08173954105377197,0.12426321626752614
1782810964761026800,2.19802685546875,-0.0876502264022827,-0.10074936195015907,0.14530439686104654
1782810964771097900,2.208097900390625,-0.0004249474138021469,-0.09479147645905614,0.11678645064607263
1782810964781170000,2.218169921875,0.0719698421895504,-0.08614479027539491,0.08203121747672558
1782810964791242000,2.228241943359375,0.16333938137590884,-0.04891790629550814,0.08744213660955429
1782810964801313000,2.23831298828125,0.17317688477933404,-0.030103607971221205,0.084376611559093
1782810964811384800,2.248384765625,0.060977323532104485,-0.035317835488170385,0.04963058460950851
1782810964821455600,2.25845556640625,-0.04057634053826332,-0.02228840417563915,0.02495236268788576
1782810964831527700,2.268527587890625,-0.016806757894158364,-0.023708207845687865,0.025021774662286042
1782810964841600000,2.27860009765625,0.09747896197736262,-0.06052388067618012,0.018113456578552723
1782810964851670800,2.2886708984375,0.1730313388288021,-0.08298881046250461,-0.00039528292790055273
1782810964861742800,2.298742919921875,0.23749475091099737,-0.09761734753474592,-0.023852000230550764
1782810964871814000,2.30881396484375,0.2687514744400978,-0.06790960701331496,-0.03463526005148888
1782810964881885700,2.3188857421875,0.18296762643158435,-0.02850143347159028,-0.03981821564733982
1782810964891957800,2.328957763671875,0.10845160689055919,-0.025098639290779826,0.0010373802237212658
1782810964902028800,2.33902880859375,0.023709376889467237,-0.016470803938061,0.027789485809952018
1782810964912100900,2.349100830078125,0.03511164539158344,-0.04994593416899443,0.025003654483705756
1782810964922172700,2.359172607421875,0.0034112697482109066,-0.040556320663541555,0.07620397262796759
1782810964932243700,2.36924365234375,-0.013770166677236555,-0.058254036048054694,0.055354953605681656
1782810964942315800,2.379315673828125,0.011467150431871414,-0.08129311246052384,0.030724808609485624
1782810964952386800,2.38938671875,0.047152211797237394,-0.0994919092349708,0.018448533751815557
1782810964962459000,2.399458984375,0.10441197611093521,-0.1461008079357445,-0.006084434480220079
1782810964972531000,2.409531005859375,0.0978945570409298,-0.13620499847382306,-0.02913797780945897
1782810964982602000,2.41960205078125,0.07829436903595924,-0.1785433802485466,0.024243629896640775
1782810964992673800,2.429673828125,0.1394827049702406,-0.1674523696526885,0.07169891629368066
1782810965002744800,2.439744873046875,0.15079904875457287,-0.16106778318211434,0.11918664365559815
1782810965012817000,2.44981689453125,0.08583996210992335,-0.15783873813301325,0.17013444834351538
1782810965022889000,2.459888916015625,0.030967969715595244,-0.14068535875827073,0.22815555241852997
1782810965032960000,2.4699599609375,0.005030979904532432,-0.12631883362308144,0.21796441327184438
1782810965043031800,2.48003173828125,-0.05661152953803539,-0.14890928948521615,0.1634720678448677
1782810965053103900,2.490103759765625,-0.06838555396199227,-0.1440869838953018,0.1735214604333043
1782810965063174700,2.500174560546875,-0.05589958187639713,-0.08700871362835168,0.20545009187459945
1782810965073246700,2.510246826171875,0.007566051340103149,-0.0740315970249474,0.1979892544746399
1782810965083317800,2.52031787109375,0.07066811194121837,-0.0929934871263802,0.17273732431828975
1782810965093389800,2.530389892578125,0.07128010635972022,-0.09465995903387665,0.14715075538009403
1782810965103461600,2.540461669921875,0.008167524364590645,-0.15057824561074376,0.09246303351148963
1782810965113532700,2.55053271484375,-0.06507189936935902,-0.14763868502750993,0.022805559917539357
1782810965123604700,2.560604736328125,-0.13796411710083484,-0.1731454667277634,0.018704408209025858
1782810965133675800,2.57067578125,-0.10634323643445968,-0.14551511700227857,0.024113866037130356
1782810965143747800,2.580747802734375,0.03997895916700363,-0.1463585820890963,0.046858489547669885
1782810965153820000,2.59081982421875,0.05848667576014995,-0.11945552372485399,0.018432751660794017
1782810965163891000,2.600890869140625,0.014374562311172484,-0.12804112737104295,0.014490736036747694
1782810965173962800,2.610962646484375,0.029139000722765922,-0.10266089465990662,0.011911094807088374
1782810965184034800,2.621034912109375,0.046963995748758314,-0.06995368006154895,0.055865241215378045
1782810965194105900,2.63110595703125,0.010919453421235084,-0.04951251118779182,0.06599836656451225
1782810965204178000,2.641177978515625,0.04062602489888668,-0.08088146291971206,0.090574004894495
1782810965214249000,2.6512490234375,0.0017056348741054533,-0.06029971653148532,0.13483721725195646
1782810965224320800,2.66132080078125,-0.08976853373050689,-0.0692189360462129,0.11112930166721344
1782810965234392800,2.671392822265625,-0.12519815903007983,-0.10624912841022013,0.10815101650878786
1782810965244463900,2.6814638671875,-0.0625847587287426,-0.10466390504539012,0.11352058071792125
1782810965254536000,2.691535888671875,0.014802432334423065,-0.10704027878791093,0.14127864847630262
1782810965264606700,2.701606689453125,0.058849079331755635,-0.13388050104901195,0.15944953433051703
1782810965274679000,2.711678955078125,0.09576163666546345,-0.13607757270187137,0.16552330128625034
1782810965284750800,2.721750732421875,0.1547229442000389,-0.14220438501909374,0.16600319375768302
1782810965294821600,2.731821533203125,0.16192659196853637,-0.13723843317478895,0.183713330232352
1782810965304893700,2.741893798828125,0.14508300919532774,-0.13442147605791688,0.13700740089789032
1782810965314964700,2.75196484375,0.13286007196009159,-0.1486699277713895,0.1251513972789049
1782810965325036800,2.762036865234375,0.09481471120417118,-0.14545023507252336,0.11131839449852704
1782810965335108900,2.77210888671875,0.05519406395554542,-0.15350801545232534,0.1223591362118721
1782810965345180000,2.782179931640625,0.027962358158826826,-0.14533347682505846,0.1142871811762452
1782810965355251700,2.792251708984375,-0.07131050149798393,-0.13867562637105582,0.10379092160314321
1782810965365323800,2.80232373046875,-0.18173896141946314,-0.11360562865287065,0.11304083437696098
1782810965375394800,2.812394775390625,-0.17402268795371054,-0.08784954836666584,0.12637830872535705
1782810965385467000,2.822466796875,-0.18095804017484188,-0.05845788805708289,0.15833368204310536
1782810965395538000,2.832537841796875,-0.16988661106228828,-0.08071618935540319,0.1116077328339219
1782810965405609700,2.842609619140625,-0.10216039779186248,-0.13907090929895638,0.06477247803136706
1782810965415681800,2.852681884765625,-0.036167876446247096,-0.14754823026508093,0.059261897916346784
1782810965425752800,2.8627529296875,0.029383330872654913,-0.14195552482455967,0.05195800464376807
1782810965435825000,2.872824951171875,0.03372632851302623,-0.12311506914570927,0.05775938439890742
1782810965445896000,2.88289599609375,0.06110124217271804,-0.0977947499282658,0.08379720423594117
1782810965455968000,2.892968017578125,0.038970074385404584,-0.09868526902720332,0.07939955379888415
1782810965466039800,2.903039794921875,-0.02495850016772747,-0.08403656594976783,0.08664835588335991
1782810965476110800,2.91311083984375,-0.07506079394221306,-0.06832359464168548,0.08800678475499153
1782810965486183000,2.923182861328125,-0.059300914752483364,-0.04700198967158794,0.0741983318939805
1782810965496255000,2.9332548828125,-0.002304185289144516,-0.08828238682597875,0.05495806324258446
1782810965506325800,2.94332568359375,0.0372007266253233,-0.1465793852329254,0.033673867673426866
1782810965516397800,2.953397705078125,0.09490005140006541,-0.10037833668068051,0.04946180391386151
1782810965526468900,2.96346875,0.2051601690173149,-0.10089768437966704,0.047007396499067544
1782810965536540700,2.973540771484375,0.26205285358428954,-0.08417334407195448,0.05654708599969745
1782810965546612700,2.98361279296875,0.2516501175135374,-0.1141008648239076,0.05888765777647495
1782810965556683800,2.993683837890625,0.17845687100887297,-0.0705177436850965,0.045012131028622386
1782810965566755800,3.003755859375,0.060418520605564116,-0.03898307999745011,0.06747530724927783
1782810965576827000,3.013826904296875,-0.0516004233777523,-0.04765110123008489,0.03841360954642296
1782810965586898700,3.023898681640625,-0.14407412441372872,-0.06382160704731941,0.01990209356099367
1782810965596970800,3.033970703125,-0.14136544997692108,-0.12121186587288975,-0.013253010935336351
1782810965607041800,3.044041748046875,-0.0648415977448225,-0.16839768767878413,-0.018589549657702445
1782810965617113900,3.05411376953125,-0.05192892467975616,-0.19351269358247516,-0.006727846950292587
1782810965627185000,3.064184814453125,-0.047128246399760244,-0.1796256225273013,-0.02825388845130801
1782810965637257000,3.074257080078125,0.05932604919373989,-0.15218772663399577,0.01768719399049878
1782810965647328800,3.084328857421875,0.1285071374475956,-0.1156029399499297,0.09458718605861068
1782810965657399800,3.09439990234375,0.12332418185174464,-0.09834639246165752,0.10831365972459316
1782810965667472000,3.104471923828125,0.14073650442361832,-0.09077098877131938,0.16487024420499802
1782810965677544000,3.1145439453125,0.10320844554007053,-0.07331964936330915,0.18405439875498414
1782810965687615000,3.124614990234375,0.018004443246126173,-0.06804185509085654,0.16132380376979708
1782810965697686800,3.134686767578125,-0.024317279654741286,-0.06542436606884003,0.0966403191961348
1782810965707757800,3.1447578125,-0.09455576800704002,-0.08364566693603992,0.06269055719077586
1782810965717830000,3.154829833984375,-0.19161971944272518,-0.1247293724745512,0.019423808524757624
1782810965727902000,3.16490185546875,-0.24058453361988066,-0.150705525252223,-0.0238994926340878
1782810965737972700,3.17497265625,-0.19816461104154587,-0.13435600960627198,-0.0007524258024990558
1782810965748044800,3.185044921875,-0.072183192679286,-0.12153744456544517,0.01464051977097988
1782810965758116000,3.1951162109375,-0.02106324629485607,-0.11065203954428433,0.013756868804246187
1782810965768188000,3.20518798828125,-0.04602934524714947,-0.11497633248418569,-0.0137846335940063
1782810965778260000,3.215260009765625,-0.018041268125176427,-0.10091624294966459,-0.023964666824787855
1782810965788331000,3.2253310546875,0.05837912373244762,-0.12326806775033473,-0.04846840896233916
1782810965798403000,3.235403076171875,0.1604793157696724,-0.1124164188683033,-0.03828501473069191
1782810965808474000,3.24547412109375,0.16008417897224425,-0.09523965861797332,-0.01675254348888993
1782810965818546200,3.255546142578125,0.1758721152126789,-0.06460033633485436,0.030685645642876624
1782810965828618000,3.265617919921875,0.11754793653786182,-0.028981325943022964,0.07427855752333998
1782810965838689000,3.27568896484375,0.07245733344554901,0.004607493795454502,0.09410977780520915
1782810965848761000,3.285760986328125,0.09474573762118815,-0.0009343582406640053,0.10411430833861231
1782810965858832100,3.29583203125,0.14343991816341875,-0.006890197905153036,0.13390958101302383
1782810965868904200,3.305904296875,0.1074228483647108,-0.05413038024678826,0.12823884190022944
1782810965878976000,3.31597607421875,0.06538052692711353,-0.0709498514920473,0.13404650526568293
1782810965889047000,3.326047119140625,0.042756022664904594,-0.037041006018966434,0.16417860867902637
1782810965899119000,3.336119140625,0.022222353202104566,-0.03291910378336906,0.15088321990668774
1782810965909191200,3.346191162109375,0.03696048812866211,-0.03564692131206393,0.1642458286963403
1782810965919262200,3.35626220703125,0.045379356905817986,-0.053352966133505104,0.15880860607847572
1782810965929334300,3.366334228515625,-0.025996611043810843,-0.05780278514921665,0.1048318089582026
1782810965939405000,3.376405029296875,-0.0905436097562313,-0.07428878665640949,0.035067660119384524
1782810965949477000,3.38647705078125,-0.019527707290649413,-0.10863967680856584,0.03567673192843795
1782810965959549200,3.396549072265625,0.1392068106383085,-0.128046680328995,0.048128655613958835
1782810965969620000,3.406619873046875,0.250356570571661,-0.11615882026702165,0.07764701104313135
1782810965979692000,3.416692138671875,0.28252982442379,-0.14135843571424483,0.06172726511657237
1782810965989763000,3.42676318359375,0.22691256662011144,-0.19382716635912656,0.03992503702268004
1782810965999835100,3.436835205078125,0.06048924775421619,-0.17613909558579324,-0.006843290023505687
1782810966009907000,3.446906982421875,-0.14906126517653465,-0.14488456401377917,0.021996143230795857
1782810966019978000,3.45697802734375,-0.25667992837429043,-0.09211261263862251,0.05353665213733911
1782810966030050000,3.467050048828125,-0.2723813553750515,-0.08092603271380067,0.09537848256677389
1782810966040121000,3.47712109375,-0.2044067203015089,-0.0720502139493823,0.15985256217345595
1782810966050193200,3.487193115234375,-0.08782207583785057,-0.11751228070259094,0.1522318580366671
1782810966060265000,3.497264892578125,-0.03066401833295822,-0.1331174077220261,0.09214885299578308
1782810966070336000,3.5073359375,0.012044658058881759,-0.1829335780315101,0.01126709781512618
1782810966080408000,3.517407958984375,0.03147884184718132,-0.187840639295429,-0.04618248998224735
1782810966090479000,3.52747900390625,-0.009532967498898506,-0.19193477674126624,-0.043350773687660694
1782810966100551200,3.53755126953125,-0.026156185519695282,-0.18061448743417857,-0.03725742524862289
1782810966110623200,3.547623291015625,-0.02791208927631378,-0.14618161808699368,-0.008398702771961688
1782810966120694300,3.5576943359375,-0.03044482262432575,-0.10055150129050015,0.05548413294330239
1782810966130766000,3.56776611328125,-0.05896598370969295,-0.055282034499943254,0.10157193037942051
1782810966140837000,3.577837158203125,-0.04804243863523006,-0.04238865065723657,0.11930135607644915
1782810966150909200,3.5879091796875,-0.05011223064661026,-0.07461977217644453,0.1281122929111123
1782810966160981200,3.597981201171875,-0.072584174695611,-0.10271437841281295,0.0951307914160192
1782810966171052000,3.608052001953125,-0.032274960660934444,-0.15832885973751545,0.120404787273705
1782810966181124000,3.6181240234375,0.04041968867182731,-0.18226561564207075,0.13832958941236137
1782810966191195100,3.628195068359375,0.06855798791944981,-0.16683920619040726,0.17991349955797195
1782810966201267000,3.638266845703125,0.03077157036066055,-0.09619096799343824,0.23338614654839038
1782810966211339000,3.648339111328125,-0.012581249153614044,-0.036596330991387364,0.2785584365747869
1782810966221410000,3.65841015625,-0.01116144548356533,-0.022731471768021583,0.28947511351704597
1782810966231482000,3.668482177734375,0.02845627915561199,-0.0475276209808886,0.2458382163643837
1782810966241553200,3.67855322265625,-0.08025310188829898,-0.04438683873713016,0.1740615586593747
1782810966251625000,3.688625,-0.3474783896744251,-0.05862696101367473,0.08303601060509681
1782810966261697000,3.698697021484375,-0.5119020591557025,-0.09791384626328944,-0.05626607710123062
1782810966271768000,3.70876806640625,-0.5279214660644531,-0.1006881332822144,-0.13369827634990214
1782810966281840000,3.718840087890625,-0.382721552491188,-0.08450988254994153,-0.10598521677702664
1782810966291912200,3.728912109375,-0.11591244429051875,-0.10685600826218723,-0.060221828989684575
1782810966301983200,3.738983154296875,0.14728782576322555,-0.06829509919956327,-0.006490969454497099
1782810966312055000,3.749054931640625,0.4219944092154503,-0.08662088335454464,0.003508154251426458
1782810966322126000,3.7591259765625,0.546982140365243,-0.14158537633791565,-0.04937178754284978
1782810966332198100,3.7691982421875,0.5597784935742617,-0.19159239304438233,-0.14271160388886928
1782810966342270200,3.779270263671875,0.44518706875443453,-0.1908982733003795,-0.2130694808371365
1782810966352341200,3.78934130859375,0.1578425375252962,-0.16898454765602947,-0.2510648649714887
1782810966362413000,3.7994130859375,-0.10284545744657515,-0.08766235523149371,-0.22745061901956795
1782810966372484000,3.809484130859375,-0.1433113233476877,-0.024611001904308795,-0.18348463604301213
1782810966382556000,3.819555908203125,-0.08213993854820728,-0.05499298842549324,-0.1299741412602365
1782810966392627000,3.829626953125,0.07349193719029426,-0.08227262501716613,-0.009449526999145745
1782810966402699000,3.839698974609375,0.31639000844955445,-0.0812530727110803,0.09934314841404557
1782810966412771000,3.84977099609375,0.5011515325605869,-0.07661050760224461,0.20909049420356748
1782810966422842000,3.859842041015625,0.4833271220564842,-0.049222149939090014,0.25307094409689307
1782810966432914000,3.869913818359375,0.48671325736343857,-0.028797639939188956,0.24042437462210653
1782810966442986000,3.879986083984375,0.43571956770718095,-0.04522007469087839,0.1965089527890086
1782810966453057000,3.89005712890625,0.26065467722415925,-0.09965776732116938,0.18330854882374406
1782810966463129000,3.900129150390625,0.11757891619801521,-0.16065847172886133,0.09680456984713673
1782810966473200000,3.9102001953125,-0.032771804267168046,-0.19525281524807214,0.008048574160039424
1782810966483272200,3.920272216796875,-0.19829437490105628,-0.20023586435765026,0.0034781975045800207
1782810966493343200,3.93034326171875,-0.26518121473789213,-0.12744433052167295,0.022505261796712875
1782810966503415000,3.9404150390625,-0.21292963397502898,-0.0820117821238935,0.028821751467138525
1782810966513487000,3.950487060546875,-0.13323708857893943,-0.06346607160791755,0.025820231563597917
1782810966523558100,3.96055810546875,-0.1123030216217041,-0.05046572025939822,0.019811346537619828
1782810966533630200,3.970630126953125,0.061627896395325656,-0.02266483627259731,0.057140229587256904
1782810966543702000,3.980701904296875,0.2311409979701042,0.006930383785068988,0.09045198595002293
1782810966553773000,3.99077294921875,0.30466449934244155,0.011834230178594588,0.1466340380296111
1782810966563845000,4.00084521484375,0.36893794181048867,-0.0025350714355707165,0.1831523353487253
1782810966573916000,4.010916015625,0.4110048131674528,0.015231617531925439,0.18564649025201796
1782810966583988200,4.02098828125,0.223769007897377,0.010810001697391271,0.15506474337503312
1782810966594060300,4.031060302734375,-0.05725684170424938,-0.046311523189395666,0.07688508675992488
1782810966604131000,4.041131103515625,-0.1871703388184309,-0.07501900062710046,0.057282852928340434
1782810966614203000,4.051202880859375,-0.23289514816105364,-0.0638417730525136,0.053025926136225456
1782810966624274000,4.06127392578125,-0.11742284885346889,-0.041322774991393085,0.11399492023140191
1782810966634346000,4.071345947265625,0.08664426423013209,-0.03512771974354982,0.20534677763059733
1782810966644418000,4.08141796875,0.20180325980484484,-0.05384191869422793,0.2142116366095841
1782810966654489000,4.091489013671875,0.16805004328489304,-0.06909764775410294,0.16483590354397892
1782810966664561200,4.10156103515625,0.04331365654766559,-0.09737564773336052,0.08112725437432527
1782810966674632200,4.111632080078125,-0.07438391759395599,-0.12593597178533672,0.05026946703493595
1782810966684704000,4.1217041015625,-0.14596739081442356,-0.14747808763831852,0.062067310725897544
1782810966694776000,4.131776123046875,-0.14636720378696919,-0.12848609465956687,0.07951543526351451
1782810966704847000,4.14184716796875,-0.18535130669772623,-0.11155863299518823,0.08820333024039864
1782810966714919200,4.151919189453125,-0.1730839457988739,-0.1316065647676587,0.08469035368338226
1782810966724990200,4.161990234375,-0.06509820285439491,-0.16266367407143115,0.10015694901496171
1782810966735062000,4.17206201171875,0.13554653456509114,-0.17514657741710543,0.13162877659946678
1782810966745134000,4.182134033203125,0.18956980117559433,-0.16607976612523198,0.16584741867408156
1782810966755205000,4.192205078125,0.19028233335912226,-0.15640402915477752,0.1305836514607072
1782810966765277200,4.202277099609375,0.21319559143483638,-0.1818722324103117,0.12384469859451054
1782810966775348200,4.21234814453125,0.20555004511773586,-0.18231705356836317,0.09845277544558048
1782810966785420300,4.222420166015625,0.1255956339150667,-0.18811244197413324,0.10920198686644435
1782810966795491000,4.232490966796875,0.07008125196397304,-0.1766324320606887,0.10757219370752573
1782810966805563000,4.24256298828125,0.04527998818457126,-0.16318828246742487,0.12050371760353445
1782810966815635000,4.252635009765625,0.02228548156619072,-0.16395225257724522,0.08138137526586652
1782810966825706000,4.2627060546875,-0.0684796619862318,-0.17168664622157812,0.056541825302690266
1782810966835778000,4.272778076171875,-0.13470949921905995,-0.16063026854768395,0.0647356531523168
1782810966845849000,4.28284912109375,-0.07151800676882267,-0.13687822156026958,0.06271569163203239
1782810966855921200,4.292921142578125,-0.013169862696528435,-0.1305062023103237,0.05601064103543758
1782810966865993000,4.302992919921875,-0.10214695378839969,-0.2008010970249772,0.025329525437206027
1782810966876064000,4.31306396484375,-0.1646568937152624,-0.2526175012409687,-0.008854337584972382
1782810966886136000,4.323135986328125,-0.06257949803173542,-0.2471075056478381,0.0162365567907691
1782810966896207000,4.33320703125,0.1012970589607954,-0.1844835839524865,0.10463906286507844
1782810966906279200,4.343279052734375,0.21670798346996306,-0.15955533279255033,0.15126549722254276
1782810966916351000,4.35335107421875,0.20528116504848,-0.09847805601730943,0.16386881207749246
1782810966926422000,4.363422119140625,0.12257774739861488,-0.08953545562699437,0.13181611586511136
1782810966936494000,4.373494140625,-0.019392098212242127,-0.09133899791762232,0.10132979218661785
1782810966946565000,4.383565185546875,-0.18040683603286742,-0.10182853548899293,0.05658449540063738
1782810966956637200,4.39363720703125,-0.1786784048050642,-0.15013400897458196,0.023557401198148725
1782810966966709200,4.403709228515625,-0.044838674157857895,-0.15760609842091797,0.02271174415424466
1782810966976780300,4.4137802734375,-0.017389526218175886,-0.12548515927791595,0.04458630683198571
1782810966986852000,4.42385205078125,0.032413492348790165,-0.09683584176823497,0.08873962907418609
1782810966996923000,4.4339228515625,0.07580605935156345,-0.0848775468185544,0.10771189443916082
1782810967006995000,4.443994873046875,0.14696926133334637,-0.07651493827328086,0.15088614251613616
1782810967017067300,4.4540673828125,0.20452946989834309,-0.07592135629430413,0.1917597124353051
1782810967027138000,4.464137939453125,0.19220950202941894,-0.11045973184257746,0.18691110336035488
1782810967037210000,4.474210205078125,0.16871522919535636,-0.11119739846736192,0.1687647674255073
1782810967047281200,4.48428125,0.1308370416998863,-0.09916019306257366,0.19529899247735738
1782810967057353000,4.49435302734375,0.04228840515315532,-0.10022826068550347,0.15631094404384493
1782810967067424000,4.504424072265625,-0.12298574367761611,-0.11793649746403097,0.11823621106296776
1782810967077496000,4.51449609375,-0.2674164264440536,-0.11798676634654402,0.05891249995678663
1782810967087568100,4.524568115234375,-0.2673264100730419,-0.1593554263062775,0.03313829949200153
1782810967097639200,4.53463916015625,-0.2021662478983402,-0.16524243851825593,0.04732245379760861
1782810967107711000,4.5447109375,-0.19751111556887627,-0.1509497092716396,0.031161884852498767
1782810967117782000,4.554781982421875,-0.14064239639937876,-0.1423221661798656,0.08758695190772414
1782810967127854000,4.56485400390625,-0.043915129572153086,-0.14797215476557612,0.11121449573263525
1782810967137926100,4.574926025390625,0.06202595580220222,-0.13356778183802961,0.09198752495422959
1782810967147997200,4.5849970703125,0.1399520760476589,-0.13016411087438465,0.14764979094341396
1782810967158069200,4.5950693359375,0.12170330265164375,-0.11713920960649847,0.12143442258238792
1782810967168140300,4.605140380859375,-0.005629530319571495,-0.1333766431801021,0.11833075747862458
1782810967178212000,4.615212158203125,-0.140619600045681,-0.1388265791490674,0.10862667119652032
1782810967188284200,4.6252841796875,-0.26718495577573775,-0.1890080756396055,0.06809402366951108
1782810967198355000,4.63535498046875,-0.3418792544931173,-0.20847937656790017,0.017737170612066984
1782810967208427300,4.64542724609375,-0.19174772973656654,-0.19528920173570513,-0.09401683882474898
1782810967218498000,4.655498046875,0.044297991409897805,-0.16555296577215195,-0.3731817168600857
1782810967228570000,4.665570068359375,0.5239391184300184,-0.20069953634664414,-0.6783573805950581
1782810967238642000,4.675641845703125,1.5709832425534724,-0.41182723546624184,-0.14982275106832385
1782810967248713000,4.685712890625,1.9376058931589126,-0.2959121608272195,0.5267250958867371
1782810967258785000,4.695784912109375,1.2809563403725623,-0.06585954261571168,0.41537732916325326
1782810967268856000,4.70585595703125,0.7530617623150349,0.04422726426124572,0.1837410950221121
1782810967278928100,4.71592822265625,0.6082166535288095,0.1782173631645739,0.27613866208195686
1782810967288999200,4.725999267578125,0.34652211186289783,0.10235986588671803,0.47438203744813795
1782810967299071000,4.736071044921875,-0.17533786220550537,0.003938946884125471,0.5479705668807029
1782810967309143000,4.74614306640625,-0.6945476140260696,0.014531944829970597,0.42423678131476045
1782810967319214000,4.756214111328125,-0.9839297885626553,-0.018565876521170137,0.17579715028032658
1782810967329286100,4.7662861328125,-0.7377613173305988,-0.2092236190639436,-0.1157034777149558
1782810967339357200,4.776357177734375,-0.1391997963756323,-0.38958340108469125,-0.3068495882965624
1782810967349429200,4.78642919921875,0.11553250506222247,-0.37580052105635403,-0.27240619755536316
1782810967359501000,4.7965009765625,-0.06021627603173255,-0.23405440119877458,-0.22225524233356117
1782810967369572000,4.806572021484375,-0.35775311545133587,-0.12919190484136342,-0.18486469222456214
1782810967379644200,4.81664404296875,-0.635730098876357,-0.03111936088502407,-0.1603140422053635
1782810967389715200,4.826715087890625,-0.6999485962867736,-0.030163813725858926,-0.07685600679591298
1782810967399787300,4.836787353515625,-0.651411067610979,-0.130108435164392,-0.09423647292479873
1782810967409859000,4.846859130859375,-0.6402572209119797,-0.13853446433469652,-0.13096695168986916
1782810967419929900,4.856929931640625,-0.5798129813432693,-0.09823694073781371,-0.11057429813295602
1782810967430002000,4.867001953125,-0.3553904779732227,-0.0684763009853661,-0.07103124616518616
1782810967440073000,4.877072998046875,-0.028984102421998975,-0.11269114415645598,-0.034149960752576584
1782810967450145000,4.88714501953125,0.18894553179740906,-0.13355769883543253,-0.003652677288651466
1782810967460216000,4.897216064453125,0.2308446453720331,-0.10079437013566493,0.058592620352655646
1782810967470288100,4.9072880859375,0.32826573968231676,-0.09243117706850171,0.04495937792807817
1782810967480360000,4.91735986328125,0.44566696122586724,-0.11402633828297257,0.05263371194824576
1782810967490431000,4.927430908203125,0.5221767849326133,-0.0809101044923067,0.09827522692158817
1782810967500503000,4.9375029296875,0.40393502091169353,-0.0822130037844181,0.1073215799473226
1782810967510574000,4.947573974609375,0.1571504636079073,-0.09424962466731666,0.041859950608015055
1782810967520646100,4.957646240234375,-0.07315700614750385,-0.12512056374922395,-0.047238721036911006
1782810967530718200,4.96771826171875,-0.28770693480074405,-0.11504340637102722,-0.10668605852276086
1782810967540789200,4.977789306640625,-0.3324848186820745,-0.1106977783821523,-0.07437661107033491
1782810967550861000,4.987861083984375,-0.19957213975191115,-0.07071969599798321,0.03962883055508137
1782810967560932000,4.99793212890625,-0.032116555228829384,-0.06402779714390636,0.10352964031845331
1782810967571004200,5.008004150390625,0.01764905393719673,-0.11381211101040244,0.11467851858139037
1782810967581075200,5.0180751953125,-0.07721124997437,-0.11286387037485837,0.036243864291906354
1782810967591147300,5.028147216796875,-0.1350719027906656,-0.10178002017214893,-0.008969926788657902
1782810967601219000,5.038218994140625,-0.07668751836121082,-0.14496756612211464,-0.00010565233156085014
1782810967611289900,5.048289794921875,-0.01977496004998684,-0.19147446575313806,0.030353929470479487
1782810967621362000,5.05836181640625,0.012917933762073517,-0.11865545938834547,0.10385171187967061
1782810967631433000,5.068432861328125,0.13125731293857096,-0.06476356407254934,0.15930354998856783
1782810967641505000,5.078505126953125,0.19513561860919,-0.054702919437736267,0.16555106607601044
1782810967651577000,5.0885771484375,0.193169871494174,-0.07027838197126984,0.17885566106811165
1782810967661648100,5.098648193359375,0.18084639649391174,-0.13757394873946904,0.08422872752100229
1782810967671720000,5.108719970703125,0.15513795474171638,-0.1989176213659346,-0.015049977354705334
1782810967681791000,5.118791015625,0.08699380832016468,-0.20574030699282883,-0.019555179819464683
1782810967691863000,5.128863037109375,-0.06704232265949249,-0.13045797925442457,-0.018680881202965974
1782810967701934000,5.13893408203125,-0.1803331862747669,-0.02908902410119772,0.03289513838589191
1782810967712006100,5.149006103515625,-0.22982699276208876,0.01731704550385475,0.05849968137219548
1782810967722078200,5.159078125,-0.17957213877439498,-0.0426926020398736,0.02231222344264388
1782810967732149200,5.169149169921875,-0.07081248884797096,-0.12012304772287606,-0.014754793800413607
1782810967742221000,5.179220947265625,0.03305003668665886,-0.11518690649494528,-0.02015709123536944
1782810967752292000,5.1892919921875,0.08142682184278964,-0.12423881247863172,0.00937353915348649
1782810967762363600,5.19936376953125,0.14366612813472748,-0.14619433143809438,0.057456894320994614
1782810967772435700,5.209435791015625,0.2210936512082815,-0.1707414743259549,0.022552169678360223
1782810967782506500,5.219506591796875,0.17225801636874674,-0.18148308696225285,-0.07267652915418148
1782810967792578600,5.22957861328125,0.015721300745010373,-0.12657470808029175,-0.07064093167334795
1782810967802649600,5.239649658203125,-0.15499883853197097,-0.011673194397985934,0.031215806996822356
1782810967812721400,5.249721435546875,-0.17966624679863452,0.04359641901180148,0.19282325001358985
1782810967822792400,5.25979248046875,-0.13585048594772814,-0.007305500707775354,0.2268641974337399
1782810967832864500,5.269864501953125,-0.1495610313922167,-0.11005553495585918,0.13125336741581559
1782810967842936600,5.2799365234375,-0.28688158989250656,-0.13830577014535664,0.02027384948283434
1782810967853007600,5.290007568359375,-0.3562058860093355,-0.12086568278372287,-0.006516980678588151
1782810967863079400,5.300079345703125,-0.2386953588724136,-0.12356427421793341,0.0005839373677968978
1782810967873150500,5.310150390625,-0.08244622801840305,-0.10495324338078499,0.0438787430845201
1782810967883219500,5.320219482421875,0.11613573165237903,-0.12153203773796557,0.06463131599500775
1782810967893291500,5.33029150390625,0.30596564506888385,-0.10637523900792002,0.10691241462454198
1782810967903362600,5.340362548828125,0.44690731667578215,-0.10653247539624572,0.14111542073860764
1782810967913434600,5.3504345703125,0.47999651632905005,-0.11483429366499184,0.16080577124506235
1782810967923505700,5.360505615234375,0.2769686831653118,-0.10607318732142448,0.11257964660599827
1782810967933577500,5.370577392578125,-0.08072071940004825,-0.05205430462509393,-0.024117957690358162
1782810967943649500,5.3806494140625,-0.2591828511059284,-0.009023118280619382,-0.05026201438084244
1782810967953720600,5.390720458984375,-0.20998130556344985,0.021079759038239717,0.08887567654401063
1782810967963792600,5.400792724609375,-0.026238018584251403,-0.006945142962783575,0.16557926925718783
1782810967973863700,5.41086376953125,0.1563186889588833,-0.07427052034735679,0.1464043209269643
1782810967983935500,5.420935546875,0.2874643582165241,-0.13772592443078754,0.09832549580410123
1782810967994006500,5.431006591796875,0.19910686032772063,-0.14877894110381604,0.03829407481998205
1782810968004078600,5.44107861328125,0.04954524441361427,-0.10046294622421265,0.012814765648543834
1782810968014150700,5.451150634765625,0.08758183734118938,-0.10265855657234788,0.0338509778060019
1782810968024221700,5.4612216796875,0.126885673725605,-0.10300824679285288,0.09043123542293906
1782810968034293800,5.471293701171875,0.21808862417340277,-0.07903042822554707,0.1623129609376192
1782810968044364800,5.48136474609375,0.3190367235660553,-0.09556976735517382,0.22022169067934155
1782810968054436600,5.4914365234375,0.2841986344188452,-0.09143179076761007,0.22736498656272885
1782810968064507400,5.50150732421875,0.19737492196857928,-0.059566141559928655,0.19394290169328451
1782810968074579500,5.511579345703125,-0.022353286105394363,-0.045876346642524005,0.13687529895082115
1782810968084651500,5.521651611328125,-0.208772514295578,-0.06538315727561712,0.07811199820637703
1782810968094722600,5.53172265625,-0.33767771115005013,-0.11035773277282714,-0.0022121230915188787
1782810968104794600,5.541794677734375,-0.35213878270089627,-0.1502706409662962,-0.11891104158461094
1782810968114865700,5.55186572265625,-0.35763738011717794,-0.16645298335179687,-0.10850494451299308
1782810968124937500,5.5619375,-0.3256400673538446,-0.0855034236319363,0.005839958199858665
1782810968135008500,5.572008544921875,-0.29900398936271666,-0.05137859732061624,0.039122196207195516
1782810968145080600,5.58208056640625,-0.31843992671668525,-0.044335254680365324,-0.004287468060851097
1782810968155152600,5.592152587890625,-0.19605273345410823,-0.04470657221078873,-0.06474938941672444
1782810968165223700,5.6022236328125,0.2716056948274374,-0.09681289928406477,0.06485927953198552
1782810968175295500,5.61229541015625,0.12373217813074588,-0.08700491423606872,0.16515534475669263
1782810968185366500,5.622366455078125,0.06517769783139228,-0.13312149937525392,0.032503947111219164
1782810968195438600,5.6324384765625,0.04359890322983265,-0.14242372685819862,-0.0760555040679872
1782810968205509600,5.642509521484375,-0.04878010526001453,-0.14751695834398268,-0.09104249918907881
1782810968215581700,5.652581787109375,-0.00037993922829627987,-0.17184096000045537,-0.07424334007948637
1782810968225653800,5.66265380859375,-0.022842530927062035,-0.19213234513998032,-0.0004851531684398651
1782810968235724800,5.672724853515625,-0.0000789104551076889,-0.13000029861479998,0.057228200131654736
1782810968245796600,5.682796630859375,0.20684943727850913,-0.08235314290747046,0.07586874932423233
1782810968255867400,5.692867431640625,0.35270518441200255,-0.10752090191170573,0.08790785442516207
1782810968265939500,5.702939453125,0.33576398648321626,-0.031790976536273954,0.11820508527234196
1782810968276011500,5.713011474609375,0.28351240572035313,-0.052771220722794526,0.12051365447565912
1782810968286082600,5.72308251953125,0.5434995589464903,-0.014040069659799337,0.3100665045164525
