time,seconds_elapsed,z,y,x
1782811732519759400,0.06875927734375,1.938856185480952,0.9610223757058381,0.3022217823654413
1782811732529831400,0.07883154296875,2.1165070008039475,0.4641176869347691,-0.1249427229642868
1782811732539903700,0.08890380859375,2.4791385359466074,0.41138913630992174,-0.4206749971799552
1782811732549974500,0.098974609375,2.667077521049976,0.5304410476699472,-0.48064475110471244
1782811732560046300,0.10904638671875,2.597965990900993,0.5083122179701924,-0.4683833815552294
1782811732570117400,0.119117431640625,2.4122516961097715,0.2593894795939326,-0.7057536293037235
1782811732580189400,0.129189453125,2.2096996637642383,-0.04914572370201349,-1.0855760993525385
1782811732590260500,0.139260498046875,2.0334639759361743,-0.327564021153748,-1.4630688112795351
1782811732600332500,0.14933251953125,1.932190882372856,-0.4525207726433873,-1.720581683346629
1782811732610403600,0.159403564453125,2.039746417206526,-0.4302428898617625,-1.7425382252193986
1782811732620475600,0.1694755859375,2.097550371399522,-0.3547679621607065,-1.616887207855284
1782811732630547500,0.17954736328125,1.9992367121636867,-0.29809184295386076,-1.5164640091195702
1782811732640618500,0.189618408203125,1.3846417557746171,-0.31571400888413187,-1.4374648528151213
1782811732650690600,0.199690673828125,0.05548164872527122,0.04359744192510843,-1.3742512946635483
1782811732660761600,0.20976171875,-1.427371474954486,0.5233326769694686,-1.3185896131962538
1782811732670833700,0.219833740234375,-2.4797353327959772,0.7093817566730082,-1.306074707277119
1782811732680904700,0.22990478515625,-2.9527900671631095,0.7908188076488674,-1.2139318456307053
1782811732690976500,0.2399765625,-3.0817800196915863,0.7833934799537062,-1.004104634650424
1782811732701048600,0.250048583984375,-3.348073579585552,0.8834016681477427,-0.7172175648652017
1782811732711119400,0.260119384765625,-3.9739907249778508,1.125538691906631,-0.3062781085515395
1782811732721191400,0.27019140625,-5.3157659834504125,1.0735156592026351,0.18175773918516933
1782811732731262500,0.280262451171875,-6.985829193437099,0.8928237226180732,0.5819087845787405
1782811732741334500,0.29033447265625,-8.708710970419645,0.9095921943284571,0.6435422339320183
1782811732751405600,0.300405517578125,-10.303601158261298,0.8390947627790272,0.30725181242190297
1782811732761477400,0.310477294921875,-11.46020046660304,0.37441359674260016,-0.19861103963479398
1782811732771549400,0.320549560546875,-11.961728431260585,-0.5926381222553551,-0.6924792102541774
1782811732781620500,0.330620361328125,-11.163630426388979,-1.6847640816427767,-1.0938746296856552
1782811732791692500,0.340692626953125,-9.574838555422424,-2.8635779982715843,-1.4601552619203924
1782811732801763600,0.350763671875,-7.997968008396029,-4.100351205785572,-1.7571058258846401
1782811732811835600,0.360835693359375,-6.670093264982104,-5.049863468700647,-1.751693737708032
1782811732821907500,0.370907470703125,-5.684035816740989,-4.956349318701029,-1.193663549105823
1782811732831978500,0.380978515625,-4.682271680802106,-4.0460248645752666,-0.11673000775109976
1782811732842050600,0.391050537109375,-3.1291771461606026,-3.4307109462618826,0.976275985873863
1782811732852121600,0.40112158203125,-1.949423756724596,-3.013676205280423,1.830210517323017
1782811732862193700,0.411193603515625,-2.187991105303168,-2.0168102166466415,2.31138630656451
1782811732872264700,0.4212646484375,-3.492549855059385,-0.17156963224578647,2.499487204231322
1782811732882336500,0.43133642578125,-5.17880490591228,1.6025160065449773,2.608097508814931
1782811732892407300,0.4414072265625,-5.8987044033378355,2.679532221214473,2.8064915446981784
1782811732902479400,0.451479248046875,-5.496320703521371,2.738458457435667,2.851991605374217
1782811732912551700,0.4615517578125,-4.811302549862861,2.2488107540555298,2.4467343959480523
1782811732922622500,0.47162255859375,-3.4165187547802924,1.7758184174001215,2.0380831601694225
1782811732932694500,0.481694580078125,-0.8785966059535741,0.8841758673906326,1.6491991395257413
1782811732942765600,0.491765625,1.8256869024187325,-0.14265691455956547,0.9285659940633922
1782811732952837400,0.50183740234375,3.8265439092606304,-0.8494152273938059,0.1183390138503164
1782811732962908400,0.511908447265625,5.336973022130131,-1.182098491257429,-0.3833201029062271
1782811732972980500,0.52198046875,6.217305073574185,-1.31564040800184,-0.4574740842018276
1782811732983052500,0.532052490234375,6.717535984158515,-1.5038469580002127,-0.42544484193027016
1782811732993123600,0.54212353515625,7.397026898828148,-1.5616110185742378,-0.4086345038395375
1782811733003195600,0.552195556640625,8.303663604351877,-1.2981332467533648,-0.3526270776744932
1782811733013266700,0.5622666015625,9.258917918050289,-0.8724830915093421,-0.27243659269362686
1782811733023338500,0.57233837890625,9.967119963419437,-0.44551600844785566,-0.18271365167051554
1782811733033410600,0.58241064453125,10.448795226615667,0.04110781706646085,-0.07960026400275529
1782811733043481600,0.592481689453125,10.791517946195603,0.3289864551723003,0.16533888463005422
1782811733053553700,0.6025537109375,11.215282287693023,0.5280301871359347,0.36881336558274924
1782811733063624700,0.612624755859375,11.58952125852108,0.6163168117456138,0.4323978028733283
1782811733073696500,0.622696533203125,11.635559371596575,0.7165405423864721,0.4403500405194238
1782811733083767300,0.632767333984375,11.477971101093292,0.8984818945102393,0.512606809891574
1782811733093839000,0.642839111328125,11.1297199734807,1.1151444314032792,0.7010594070728868
1782811733103911200,0.6529111328125,10.587557216095924,1.2898656230151653,0.8863637328237295
1782811733113982200,0.662982177734375,9.945690221899747,1.5213995658256112,1.0033620726548134
1782811733124054300,0.67305419921875,9.186590932986139,1.8504890429809688,1.0743830896869302
1782811733134125300,0.683125244140625,8.385110299938917,2.200752825590223,1.286101740437001
1782811733144197000,0.693197021484375,7.034208316680789,2.4375531644962725,1.4323537934117019
1782811733154268200,0.70326806640625,4.345476597705483,2.4986150975719092,0.9813683405768125
1782811733164340200,0.71334033203125,2.6358067689955234,2.5594828232496973,0.7921738024543971
1782811733174412300,0.723412353515625,1.5559423252880573,2.6886142300754785,0.9810258838146925
1782811733184483300,0.7334833984375,-0.058520578029751774,2.831611080646515,0.8794191013175994
1782811733194555400,0.743555419921875,-1.8041051852077246,2.880287141010165,0.36473749444596465
1782811733204626200,0.753626220703125,-2.779429642510414,3.085043989923596,-0.23594368554409592
1782811733214698000,0.763697998046875,-3.808183492183685,3.609057342633605,-0.42831371189747003
1782811733224769000,0.77376904296875,-5.132727629870176,3.812478559029102,-0.3819200268499553
1782811733234841000,0.783841064453125,-6.136992350453138,3.481751982191205,-0.04936155840978026
1782811733244913200,0.7939130859375,-6.1139680332183834,2.304686516664922,0.272960306040477
1782811733254984200,0.803984130859375,-5.145885802128911,0.48641193632930513,-0.047014776087924835
1782811733265056300,0.81405615234375,-3.866812206763029,-1.2143535781741142,-1.1619986831672489
1782811733275127300,0.824127197265625,-3.2537522048562764,-2.722733065037429,-2.0822423276305195
1782811733285199000,0.83419921875,-3.2904140022993085,-3.9651808110564946,-2.0407260758936405
1782811733295270100,0.844270263671875,-3.3978573089301585,-4.567805928188562,-1.3147753156051039
1782811733305342200,0.85434228515625,-3.454603278502822,-4.670080307748914,-0.4454453543644398
1782811733315414300,0.864414306640625,-4.409213449078798,-4.846563832858204,-0.0072655705561861395
1782811733325485300,0.8744853515625,-7.152534251853823,-4.202696897016465,-0.19468524449318647
1782811733335557000,0.88455712890625,-11.110163040095568,-1.8078347271248698,-0.29791540867472066
1782811733345628200,0.894628173828125,-14.188198028039931,1.2501692801818252,0.4470485152447596
1782811733355700200,0.9047001953125,-14.644682735878229,3.25190833055526,1.4064695567011833
1782811733365771300,0.914771240234375,-12.625742959856986,3.5977497666776177,1.4996302170880138
1782811733375843300,0.92484326171875,-9.000319004312157,2.7688407362177965,0.8778172190789133
1782811733385915400,0.934915283203125,-5.004434427434206,1.7814913484700023,0.517351008743979
1782811733395986200,0.944986083984375,-1.697823323571682,0.09778168038413859,0.32961583911702036
1782811733406058000,0.95505810546875,0.38695173740684985,-1.9099794889561832,-0.08478327439753339
1782811733416129000,0.96512890625,0.8134002034217118,-2.610594878588617,-0.3026932175357826
1782811733426201000,0.975201171875,-0.4950771810829639,-2.0609762522399424,0.13385920253265648
1782811733436272000,0.985272216796875,-2.1066706664443013,-1.3740281534321606,0.8347060263007878
1782811733446344200,0.99534423828125,-3.5342227586627004,-0.7887289226975291,1.3888861153461038
1782811733456416300,1.005416259765625,-3.9589346101433036,-0.42766237184926864,1.9950076962918042
1782811733466487300,1.0154873046875,-4.028016914197802,-1.4321684999726711,1.936863696489483
1782811733476559000,1.02555908203125,-3.429143258553743,-3.502121401003003,0.4966027832150459
1782811733486630100,1.035630126953125,-1.9139333411484956,-4.520520445400476,-0.40756771485824134
1782811733496702200,1.0457021484375,-0.8479290804892778,-4.997112706243992,-0.3788331302179023
1782811733506774300,1.055774169921875,0.6276905848056078,-4.187855593976378,0.4577293376045301
1782811733516845300,1.06584521484375,2.7676234693825243,-2.674140591304004,1.4855600445508956
1782811733526917000,1.075917236328125,5.03928362249732,-1.5934376509457826,2.423967414475232
1782811733536988200,1.08598828125,6.86941230675578,-0.8419068975903093,3.103896282170713
1782811733547060200,1.096060302734375,7.8033280643492935,-0.5031126765657216,3.3720465758472677
1782811733557131300,1.10613134765625,7.87927733156383,-0.683215195889771,3.1137913609802723
1782811733567203300,1.116203369140625,7.3065242056041955,-0.9948911814294755,2.5272774206936357
1782811733577275400,1.126275390625,6.802005242437124,-1.4667089213475584,1.790639700565487
1782811733587346200,1.13634619140625,6.310129487743973,-1.9316528299733995,0.9882589038081466
1782811733597418200,1.146418212890625,6.086999946793913,-2.273972521710396,0.28662476558722555
1782811733607489000,1.156489013671875,6.363983827528357,-2.3800660211674867,-0.01108947622589767
1782811733617561000,1.16656103515625,6.744001966279745,-2.1163694920293987,0.08144410177115351
1782811733627632000,1.176632080078125,6.617446547421813,-1.4672402517452836,0.3251216329703107
1782811733637704200,1.1867041015625,6.253021699121594,-0.8872747832540422,0.42278647290859367
1782811733647776000,1.19677587890625,5.996363398057222,-0.6437821801677346,0.2595772207183763
1782811733657847000,1.206846923828125,5.597902424642443,-0.5502359545294195,0.11539311485784128
1782811733667919000,1.216919189453125,4.594547804641723,-0.4239376157050952,-0.07270380075359717
1782811733677990100,1.226990234375,2.7613100484520197,-0.18059965519122778,-0.4792043430380523
1782811733688062200,1.237062255859375,0.44230362227261066,0.20786029482148585,-1.0461462985008954
1782811733698133200,1.24713330078125,-1.868767919254303,0.8153153163280338,-1.6832761811725794
1782811733708205300,1.257205322265625,-3.5622201881349085,1.5766067815236746,-2.172956763909012
1782811733718277000,1.267277099609375,-4.876779522901773,2.548494980767369,-2.274744821257144
1782811733728348200,1.27734814453125,-5.636107944396138,3.4034085133165117,-1.883546824582666
1782811733738420200,1.287420166015625,-6.121598966488242,3.9162855549842117,-1.4678133754581213
1782811733748491300,1.2974912109375,-6.065985800337791,4.013805433493852,-0.9875545549310744
1782811733758563300,1.307563232421875,-4.810456162166595,2.815614177830517,-0.24708704738169907
1782811733768635400,1.317635498046875,-2.8758845221370457,1.0250317604102193,-0.22441059373654423
1782811733778706200,1.3277060546875,-0.92834409494102,-0.7713130199290812,-1.3156158580824733
1782811733788778200,1.3377783203125,-0.5686228942871093,-2.7223949191242456,-1.9951555803298948
1782811733798849000,1.34784912109375,-2.158643430265784,-4.639217844234406,-1.5233979000359772
1782811733808921000,1.357921142578125,-4.303846948722005,-5.811621747690439,-0.9863509512949734
1782811733818992000,1.3679921875,-5.822414359861612,-5.538720167833566,-0.6297613266650587
1782811733829064200,1.378064208984375,-7.3255924786895505,-4.352144238901138,-0.18619590429570526
1782811733839135200,1.38813525390625,-9.70045347855985,-2.5335914261460304,0.5733765550876035
1782811733849207000,1.39820703125,-12.78491294659376,-0.14197306048125027,1.1349871959924698
1782811733859279000,1.408279052734375,-14.56185481506586,1.6779783670254051,1.4379748481638728
1782811733869350100,1.41835009765625,-13.777797025984524,2.047384657000005,1.2489708641774953
1782811733879422200,1.428422119140625,-11.078158128547669,1.381989049308747,0.35619463396295903
1782811733889493200,1.4384931640625,-7.200424130275845,0.43341465176567434,-0.7280185064733028
1782811733899565300,1.4485654296875,-2.9475872378230092,-0.21233181421235203,-1.3345008835554122
1782811733909637000,1.45863720703125,1.1172037020206451,-0.31173151511922476,-1.3249702541440724
1782811733919708200,1.468708251953125,4.706421787196398,-0.16844532621279357,-0.8987116846781223
1782811733929780200,1.4787802734375,6.451949695751071,-0.41281083967611193,-0.8503533119615166
1782811733939851300,1.488851318359375,5.7965603721588845,-0.4415979582212865,-1.2563693038657306
1782811733949923300,1.49892333984375,4.5507010641306636,0.0074212360419332974,-1.3161147475153208
1782811733959994000,1.508994140625,3.933916488742828,0.576016511669755,-0.7946934571251273
1782811733970066400,1.51906640625,3.846322376441955,0.9212697726406156,0.09266798149906098
1782811733980138200,1.52913818359375,4.01496629396677,1.1511908003617077,1.0017688121140003
1782811733990209000,1.539208984375,4.011397787830234,1.3062383734062313,1.6889898826442657
1782811734000281000,1.549281005859375,3.4427591114521023,1.227953648981452,1.8503489038579164
1782811734010352000,1.55935205078125,3.008205664914846,0.9194664495456963,1.557831353905052
1782811734020424200,1.569424072265625,3.1164930211544033,0.4461218653865158,1.0562957904629409
1782811734030496000,1.57949609375,3.763397424995899,0.20901976705491543,0.6995774248868226
1782811734040567000,1.589567138671875,4.777851531159878,0.3612242986932397,0.8087477014407515
1782811734050639000,1.59963916015625,5.698197613084316,0.6806601045794785,1.1818493388019502
1782811734060710100,1.609710205078125,6.591095131590962,0.900627382106334,1.5916421458311378
1782811734070782200,1.6197822265625,7.432597978425026,0.9336913011878728,1.9039004613034427
1782811734080853200,1.629853271484375,7.958731392028928,0.7259490067228674,1.91213958959952
1782811734090925000,1.639925048828125,7.8893416294604535,0.5820518463112414,1.6945985163062809
1782811734100996900,1.649996826171875,7.604136448347568,0.5598194101065397,1.5000234541893005
1782811734111068000,1.66006787109375,7.535596580606699,0.4442186621136963,1.3763956132158637
1782811734121140000,1.670139892578125,7.515182153609395,0.3797828686907887,1.3647064905963837
1782811734131211000,1.6802109375,7.461582665368915,0.2445395548559725,1.3748419540330767
1782811734141283000,1.690282958984375,6.997227370285987,0.09784750302881001,1.2515851383291183
1782811734151354000,1.70035400390625,6.239051625958084,-0.07766922287493944,0.9715376322403549
1782811734161426200,1.71042626953125,5.3418140324205154,-0.16363924110531805,0.701376583263278
1782811734171498000,1.720498046875,4.034637209120392,-0.33647286540493365,0.4299135117769241
1782811734181569000,1.730569091796875,2.469564651915431,-0.6694900373980402,0.1785919686306268
1782811734191641000,1.74064111328125,0.7296563368082046,-0.8730939168840646,-0.19936660724245012
1782811734201712000,1.750712158203125,-0.809323163241148,-0.8462848204135894,-0.71435567262806
1782811734211784200,1.7607841796875,-2.0052309841424227,-0.7785530541852116,-1.091020847689733
1782811734221856000,1.77085595703125,-3.0591496702104806,-0.5571880386896431,-1.1466722269587217
1782811734231927000,1.780927001953125,-4.3676895985573525,-0.3881133285321295,-0.9630360536158085
1782811734241998800,1.790998779296875,-5.460105480802059,-0.9087517979815601,-0.6983093777123838
1782811734252070000,1.80106982421875,-6.289790464070439,-2.1439073411658405,-0.4683247832357883
1782811734262142000,1.811141845703125,-7.059422252914309,-3.486721879558265,-0.2749414151214063
1782811734272213000,1.821212890625,-7.409694657221436,-4.59171988773942,0.04661810492053628
1782811734282285000,1.83128515625,-7.486691387662291,-5.059740719592571,0.2638321382164955
1782811734292356900,1.84135693359375,-7.375251704871654,-4.20951359129399,-0.20081012058164924
1782811734302428000,1.851427978515625,-7.678102432790398,-2.3561767576664683,-0.3746033471610397
1782811734312500000,1.8615,-8.677279474845529,-0.9829778946653008,0.5788544385094195
1782811734322571000,1.871571044921875,-9.934414794647694,-0.11376958704292774,1.5184630739822982
1782811734332643000,1.88164306640625,-11.155444781845807,0.9288578896820545,1.416958071359247
1782811734342714000,1.891714111328125,-12.012107203888892,2.013057732245326,0.3702814653739333
1782811734352786200,1.9017861328125,-12.35141280850172,2.3433201987028123,-1.0773615940410644
1782811734362858000,1.91185791015625,-11.833806984746456,1.7710165700763463,-2.3897695229277014
1782811734372929000,1.921928955078125,-10.085042578488588,0.8722466524049639,-3.2258789862856267
1782811734383001000,1.9320009765625,-7.198164368650317,-0.025006138701736926,-3.6018741531312464
1782811734393072000,1.942072021484375,-3.9296822121739385,-0.6298977394610643,-3.7075811374887824
1782811734403144200,1.952144287109375,-1.0438690012186764,-0.6289864698350429,-3.4350334856361147
1782811734413216000,1.962216064453125,1.284983696192503,0.010759002162516117,-2.7804584010362623
1782811734423287000,1.972287109375,3.1418086641967293,1.083132213331759,-1.8134462833963334
1782811734433358800,1.98235888671875,4.499795052757859,2.133740167416632,-0.707999946925789
1782811734443430000,1.992429931640625,5.155737334057688,2.945914628435671,0.21673560212925075
1782811734453502000,2.002501953125,5.295531589195132,3.2718107163771983,0.761254786447063
1782811734463573000,2.012572998046875,5.116134222465753,3.0651544635832306,0.8061154532410204
1782811734473645000,2.02264501953125,4.690224101111292,2.4727690009146928,0.6276002761736512
1782811734483716900,2.032716796875,4.042971906745434,1.6942537945218383,0.30598237700797615
1782811734493788000,2.042787841796875,3.458443002796173,1.0417730518527328,-0.017352993600070477
1782811734503860000,2.05285986328125,3.1928374251663683,0.5951280393749475,-0.1092016946054995
1782811734513931000,2.062930908203125,3.267585499897599,0.2260482048757374,0.11839476262554526
1782811734524003000,2.073003173828125,3.687722883069515,0.002634878548234701,0.5154793331205845
1782811734534074000,2.08307421875,4.226691812849045,-0.0739816204033792,0.872656694510579
1782811734544146200,2.093146240234375,4.716987604874372,-0.2943650775156915,1.0600690253913403
1782811734554218000,2.103218017578125,5.068693256855011,-0.6591439999505877,1.0399240629851818
1782811734564289000,2.1132890625,5.336654457700252,-0.8860862310566008,0.9758394210875033
1782811734574361000,2.123361083984375,5.609880447205901,-0.8637012346386909,0.9692446989975869
1782811734584432000,2.13343212890625,5.915804006698727,-0.6779075179357081,1.1540578071653842
1782811734594504200,2.143504150390625,6.25461452127099,-0.5603755096193402,1.3832976476892829
1782811734604576000,2.153575927734375,6.547987226748466,-0.5149889192551375,1.5709323891490696
1782811734614646800,2.163646728515625,6.653080170860886,-0.46853141172379253,1.5480683770425616
1782811734624719000,2.173718994140625,6.7136506671577685,-0.47570254546217616,1.4184670146174727
1782811734634790000,2.183789794921875,6.76872139699459,-0.6437612104449421,1.2396823729589581
1782811734644862000,2.193862060546875,6.823598650085926,-0.9236113673307002,1.111541438475251
1782811734654933000,2.20393310546875,6.870527574521303,-1.1460419662311672,0.9257456028804183
1782811734665005000,2.214005126953125,6.93843791218698,-1.2421923099532723,0.8102179201237857
1782811734675076900,2.224076904296875,6.865552124196291,-1.2246353912789374,0.7755107638798654
1782811734685148000,2.23414794921875,6.550881779146194,-1.1654163095910102,0.8162551544614136
1782811734695220000,2.244219970703125,5.547779088079929,-1.0014813004095107,0.8484387835770845
1782811734705291000,2.254291015625,3.86235230474472,-0.589245849468559,0.8096507877603173
1782811734715363000,2.264363037109375,1.9296289229303598,-0.15193601689524946,0.6104775841981173
1782811734725435100,2.27443505859375,-0.1503261705458164,0.16493804874420165,0.09546031563133
1782811734735506200,2.284506103515625,-2.852162870287895,0.4481279445119202,-0.4220823797598481
1782811734745578000,2.294577880859375,-6.312014570838213,0.3781311559610069,-0.6811829594098031
1782811734755649000,2.30464892578125,-9.57164180520773,-0.11714973100051283,-0.6324385099850595
1782811734765721000,2.31472119140625,-11.078443375229835,-0.7404909614901989,-0.14947422989159823
1782811734775792000,2.324792236328125,-11.223332323157786,-1.6116295795880258,0.5743545698069036
1782811734785864200,2.3348642578125,-11.679271087551117,-2.4297670406647027,1.1014297943055629
1782811734795936000,2.34493603515625,-12.519757450819014,-2.626594119492173,0.5525605250194668
1782811734806006800,2.3550068359375,-12.962792309975624,-2.152740928223729,-1.2472395103402436
1782811734816079000,2.3650791015625,-12.851914352720975,-2.064052298684418,-2.173448492948711
1782811734826150000,2.37514990234375,-12.288819866466522,-2.3425458533294496,-1.4660859671436248
1782811734836222000,2.385221923828125,-11.784985378432273,-2.205818584547192,-0.5491270434394478
1782811734846294000,2.3952939453125,-11.665393368846177,-1.2803212573394178,-0.3800890120305121
1782811734856365000,2.405364990234375,-12.270552388370037,0.010121727172285318,-0.6089608960248529
1782811734866436900,2.415436767578125,-12.770426156079768,0.5261668774820863,-0.6171352885216475
1782811734876508000,2.4255078125,-11.741489935576915,0.26016740516386927,-0.6207822667218744
1782811734886580000,2.435580078125,-9.173869983100891,-0.035145036204531785,-0.817271784158051
1782811734896651000,2.445651123046875,-6.007357085758447,-0.40393239056318997,-0.7834455024018884
1782811734906723000,2.45572314453125,-2.6630986805468795,-0.7926371091172099,-0.47618294939026234
1782811734916795100,2.465795166015625,0.8052472921043634,-1.0858115155436099,-0.08958806259706616
1782811734926866200,2.4758662109375,3.684498075804114,-1.1053086085002868,0.29301848521232604
1782811734936938000,2.48593798828125,5.481159959268569,-0.9336351870864629,0.5194188645265996
1782811734947009000,2.496009033203125,6.074615096995234,-0.6465403928346931,0.665120005620271
1782811734957081000,2.5060810546875,5.336971853086352,-0.17263948996700346,0.9257483793593942
1782811734967152000,2.516152099609375,4.423408563169836,-0.08803155387006699,1.1740529858373105
1782811734977224200,2.52622412109375,4.2401305556148285,-0.3413771501898765,1.340485803183913
1782811734987296000,2.5362958984375,4.305982207185029,-0.5923655889242887,1.4406719782933592
1782811734997366800,2.54636669921875,4.214576427641511,-0.9661263477813452,1.4052882379621265
1782811735007439000,2.556439208984375,4.48448116376996,-1.2801980693511663,1.3662518203422427
1782811735017510000,2.566510009765625,5.193151411172748,-1.5769040109045802,1.4166107192263007
1782811735027582000,2.57658203125,6.017307401886582,-1.8126771987199781,1.487643426696211
1782811735037654000,2.586654052734375,6.655745006155968,-1.795346416951716,1.553076122201979
1782811735047725000,2.59672509765625,7.15365887196958,-1.578328636880219,1.7081072555683552
1782811735057796900,2.606796875,7.449240485668182,-1.172259672679752,1.9048530858531594
1782811735067868000,2.616867919921875,7.502829452514648,-0.7339050072286277,2.118650734834373
1782811735077940000,2.62693994140625,7.422152572256326,-0.3040087388474494,2.248491312842816
1782811735088011000,2.637010986328125,7.418669990837573,-0.030662849289178847,2.25803728595376
1782811735098083800,2.647083740234375,7.484464359262585,0.03480740174800157,2.1316282898291945
1782811735108155600,2.65715576171875,7.490278598499297,-0.007244564300775528,1.9194386605665086
1782811735118226700,2.667226806640625,7.398160871294141,-0.16336773068755864,1.7059031696528195
1782811735128298800,2.677298828125,7.1731100068926805,-0.3350998234860599,1.3949476073421536
1782811735138369500,2.68736962890625,6.9257841823190445,-0.4636490465097129,1.0333647044695913
1782811735148441600,2.697441650390625,6.766201523128151,-0.46704468029737467,0.8211172806050628
1782811735158513700,2.707513671875,6.673778090974688,-0.2311072418309748,0.8426954176194965
1782811735168584700,2.717584716796875,6.428029306459426,-0.020775953786075115,0.9704493255469947
1782811735178656500,2.727656494140625,5.535592975723743,0.03534676932170987,0.891193710263446
1782811735188727600,2.7377275390625,4.1873178338378665,0.2322887067005038,0.5771294413477182
1782811735198799600,2.747799560546875,2.5882079824745654,0.780703656347841,0.39544520579017695
1782811735208870700,2.75787060546875,0.5961860239952802,1.3632526385262607,0.3669738751959055
1782811735218942700,2.767942626953125,-1.219262393003702,1.8539440057404337,0.3739365538153797
1782811735229014500,2.7780146484375,-2.5676667142271996,1.9483229558758437,0.19347009654976427
1782811735239085600,2.78808544921875,-4.037462203413248,1.549579512257874,-0.2778929584033787
1782811735249157600,2.79815771484375,-5.983225684064626,0.819879044046998,-0.8117008521579205
1782811735259228700,2.808228759765625,-7.790068769803643,-0.11208879434913396,-0.7668024837020784
1782811735269300700,2.81830078125,-8.391524258634448,-1.2442600561380386,-0.04958005999866873
1782811735279372800,2.828372802734375,-7.664126514407992,-2.0520535255938768,0.4408192654663697
1782811735289443800,2.83844384765625,-6.590487813347577,-2.288458727702498,-0.5672419978553429
1782811735299515600,2.848515625,-6.4471864268720145,-2.2369313695609567,-2.1670050158977507
1782811735309586700,2.858586669921875,-7.3094912387162445,-2.650529414092004,-1.8300317997552453
1782811735319658800,2.86865869140625,-8.401902444785833,-2.690524447610974,0.08209588934392668
1782811735329729500,2.8787294921875,-9.684178051063418,-1.7138076591670512,1.1464287735916674
1782811735339801600,2.888801513671875,-11.553781252098084,-0.2592664377361536,0.445817987069115
1782811735349873700,2.898873779296875,-13.896540309786795,0.8679704363904893,-0.6684858287915587
1782811735359944700,2.90894482421875,-14.908420181548594,1.4414036535687744,-1.2675059071689843
1782811735370016500,2.9190166015625,-13.419791397076844,1.2261956993982195,-1.5889460386149585
1782811735380087600,2.929087646484375,-10.107487050008773,0.731431237526238,-1.846702510179579
1782811735390159600,2.93915966796875,-6.060066347160935,0.2269284948416054,-2.2822844229817387
1782811735400231700,2.949231689453125,-1.7348019318789243,-0.2739509427793324,-2.6069322644278405
1782811735410302700,2.959302734375,2.2556582818627358,-0.6129236621759832,-2.532142980903387
1782811735420374500,2.96937451171875,5.120552038908005,-0.7267334350988268,-2.1015125530287624
1782811735430445600,2.979445556640625,6.375285558265447,-0.5558391082987189,-1.525850846146047
1782811735440517600,2.989517578125,5.654726720148324,-0.09386471700295805,-0.9569412438720464
1782811735450588700,2.999588623046875,3.6622125942379236,0.200593080297485,-0.5612859755277634
1782811735460660700,3.00966064453125,2.0951281126886605,0.3251774182781577,-0.2249585099428892
1782811735470732800,3.01973291015625,1.0311369454175234,0.5589123782642186,0.213247102426365
1782811735480803800,3.029803955078125,0.6456079342901706,0.581405730427429,0.9173146783392876
1782811735490875600,3.039875732421875,0.8528057466149329,0.33806214389037337,1.6372195095270872
1782811735500946700,3.04994677734375,1.7179273694455623,0.07748389290329069,2.0168460186123847
1782811735511018800,3.060018798828125,2.850466003242135,-0.3419081883266568,2.0976725364744664
1782811735521090800,3.0700908203125,4.025902114000917,-0.9539902851119637,1.9567609677448867
1782811735531161600,3.08016162109375,5.1400423367977135,-1.5129204912938177,1.7363737112402915
1782811735541233700,3.090233642578125,6.114675889226794,-1.7260522237122058,1.4938639086462557
1782811735551304700,3.1003046875,6.7436372246205805,-1.6736439910829066,1.5028322279997168
1782811735561376500,3.11037646484375,7.0511489300876855,-1.4461086163893342,1.7322409953497349
1782811735571447600,3.120447509765625,6.980706443595886,-1.163477523548156,2.0294206918947397
1782811735581519600,3.13051953125,6.6435688306719065,-0.9935921545948833,2.1787259949602187
1782811735591591700,3.140591796875,6.329971083289385,-0.9688519733529537,2.05143159430325
1782811735601662700,3.150662841796875,6.219380126282572,-1.0730883737012744,1.7413512073919175
1782811735611734500,3.160734619140625,6.337527197757363,-1.2766101278617978,1.4200517995908855
1782811735621805600,3.1708056640625,6.372566362434625,-1.4939615238018333,1.153765619285777
1782811735631877600,3.180877685546875,6.176145380190015,-1.513512173576653,0.9242379747964441
1782811735641949700,3.19094970703125,5.971173427221179,-1.2976136067934334,0.740772408780083
1782811735652020700,3.201020751953125,5.933101762980223,-1.0672217466901988,0.7659311076950281
1782811735662092800,3.2110927734375,5.924907935130596,-0.6838828660182654,1.0075257682055234
1782811735672163800,3.221163818359375,5.469172584354877,-0.15279840587824584,1.2254027954548596
1782811735682235600,3.231235595703125,4.375108350381255,0.25796850688010453,1.1703976051349192
1782811735692306700,3.241306640625,2.88590965706706,0.6786079943552613,0.8505142016116529
1782811735702378800,3.251378662109375,1.5710685827493667,1.044551868916303,0.48538836543522773
1782811735712450800,3.261450927734375,0.16102876634597776,1.2547335193574427,0.43083457214459775
1782811735722521600,3.271521484375,-1.5589233869254588,1.528336087090522,0.47087337174005806
1782811735732593700,3.28159375,-3.4425445919185873,1.9328277189716696,-0.053599926631897686
1782811735742664400,3.29166455078125,-5.444312283864617,1.9337310975521802,-0.9282426073279231
1782811735752736500,3.301736572265625,-7.112560553383827,0.9173957076862453,-1.7950332593493163
1782811735762808600,3.31180859375,-8.051464036262034,-0.6855766643241048,-2.6623306187838316
1782811735772879600,3.321879638671875,-8.288659511965513,-2.1481214517295357,-2.8369579946324226
1782811735782951700,3.33195166015625,-8.176700189214944,-3.141580408398807,-1.7770022203572093
1782811735793022700,3.342022705078125,-8.056030321264267,-3.6115175952672955,-0.6113531249236315
1782811735803094500,3.352094482421875,-7.928056852301955,-2.8134985008507964,-1.4988468116253613
1782811735813165600,3.36216552734375,-8.179891678732632,-1.5465642560899258,-2.6114722459450364
1782811735823237600,3.372237548828125,-9.547762916970253,-1.6042270482465624,-1.5973955947913228
1782811735833309700,3.382309814453125,-11.182345648252964,-1.5967004521340131,-0.6950050754699856
1782811735843380700,3.392380615234375,-12.291839506548643,-0.9388213575527071,-1.0664435288593173
1782811735853452800,3.402452880859375,-13.254854517376423,-0.45792233942598104,-1.533980376587808
1782811735863523800,3.41252392578125,-13.611613945615291,-0.361551923212409,-1.780674332998693
1782811735873595600,3.422595703125,-12.122455584311485,-0.7971922882035374,-1.9549847518526016
1782811735883667700,3.432667724609375,-8.729770709583162,-1.4888669771417975,-2.0918846007227896
1782811735893738800,3.44273876953125,-4.857977207276225,-2.2521347839117047,-1.9889526340365409
1782811735903810800,3.452810791015625,-1.6007061806440352,-2.5529665732234714,-1.5414568499483168
1782811735913881600,3.462881591796875,0.8179530444204807,-2.2221575787991283,-0.9337292951107025
1782811735923953400,3.472953369140625,2.292961884340644,-1.564766267734766,-0.3168658092677593
1782811735934024400,3.4830244140625,3.350572995185852,-0.887522839730978,0.21999686894752085
1782811735944096500,3.493096435546875,4.327041946348547,-0.3298606076583266,0.5159180898640304
1782811735954168600,3.50316845703125,4.719425061154365,-0.04067921639084816,0.4490609875783324
1782811735964239600,3.513239501953125,4.064832440897822,0.39831864233464,0.18889540904536842
1782811735974311700,3.523311767578125,2.973924040606618,1.0074851439341903,0.12784998871311545
1782811735984382700,3.5333828125,2.3201234475106,1.4944140898749232,0.4823834114655852
1782811735994454500,3.54345458984375,2.5479718336760997,1.7633681011497973,1.0262874595597387
1782811736004526600,3.553526611328125,3.550428043532371,1.7523937026709318,1.4750097167029976
1782811736014597600,3.56359765625,4.738935232788324,1.3742749678000807,1.5289029271930454
1782811736024669700,3.573669677734375,5.664388866984844,0.9133283121168613,1.3589990727350114
1782811736034740700,3.58374072265625,6.539030597832799,0.5608091517962515,1.2168565009057521
1782811736044812800,3.593812744140625,7.490285612761974,0.2821509081088006,1.1758527287356555
1782811736054884600,3.603884521484375,8.30459357867837,0.11075462313592434,1.1875298686563969
1782811736064955600,3.61395556640625,8.409712241753935,0.2137270679630339,1.3917400434724985
1782811736075027700,3.62402783203125,7.8804136421173805,0.5145584188833833,1.717579286660254
1782811736085098800,3.6340986328125,7.4004597958862774,0.8048542011335492,1.9590027553223073
1782811736095170000,3.644170166015625,7.030980586805939,0.946455944084376,2.025200443851203
1782811736105241000,3.654240966796875,6.694183165621757,1.0166991086117922,2.0205575864814223
1782811736115313200,3.664313232421875,6.539664219561219,0.9287729878775774,1.9627527555055915
1782811736125385000,3.674385009765625,6.609900369825959,0.8155982979878783,1.8637647041395307
1782811736135456000,3.6844560546875,6.554247456187009,0.7699070986539125,1.7437867639757691
1782811736145528000,3.694528076171875,6.299604002076387,0.6758521197758615,1.5811391642563044
1782811736155599000,3.70459912109375,6.07096768040359,0.4762503155380487,1.4656013984970748
1782811736165671200,3.714671142578125,5.901911674946546,0.26802871312350035,1.361658501202613
1782811736175743000,3.724742919921875,5.807366428333521,0.24240502704530953,1.2207513163872064
1782811736185814000,3.73481396484375,5.52248799495697,0.4412114431217313,1.2272864172443747
1782811736195886000,3.744885986328125,5.002116798141598,0.7584545612692832,1.3078219893358647
1782811736205956900,3.754956787109375,4.127976002553105,0.8923585893243551,1.3257410923860966
1782811736216029000,3.76502880859375,2.6698703666388988,0.7576534740194678,1.0965287243910133
1782811736226100000,3.775099853515625,0.6577268266290426,0.5051069921880961,0.5129131358943879
1782811736236172000,3.785172119140625,-1.6779735447198152,0.4811316578388214,-0.25647936430089174
1782811736246243800,3.795243896484375,-3.841223591998219,0.6756617117702961,-0.7885530546739697
1782811736256315000,3.80531494140625,-5.528270670011639,0.7607689756914973,-0.8270865642730146
1782811736266387000,3.815386962890625,-6.477842261898517,0.370990782687068,-0.7161572421573102
1782811736276458000,3.8254580078125,-6.869410553190112,-0.48101329215615984,-0.3624637773603201
1782811736286530000,3.835530029296875,-6.524370204317569,-1.7930992225468159,0.5510490244779735
1782811736296602000,3.84560205078125,-6.002661621418595,-3.4483146997526286,1.678519049773365
1782811736306673200,3.855673095703125,-6.257012814584374,-3.9381940199315544,1.4797437594875693
1782811736316745000,3.865744873046875,-7.224051089578866,-3.068207129152119,-0.7417606891650707
1782811736326816000,3.87581591796875,-9.039605305039881,-2.6999738284796475,-2.11625916352272
1782811736336888000,3.88588818359375,-10.572669443565607,-3.1353035200864077,-1.8563909605011344
1782811736346959000,3.895958984375,-12.02540975305438,-2.749022229287028,-1.732447185446322
1782811736357031200,3.90603125,-13.71422793239355,-1.5316168623268602,-2.093131970435381
1782811736367103000,3.91610302734375,-14.742874230039119,-0.9142992029756307,-2.436227614980936
1782811736377174000,3.926174072265625,-13.923007460951805,-1.1577198368042707,-2.632133341179788
1782811736387246000,3.93624609375,-11.354952624189853,-1.6644959312483667,-2.8514187739223242
1782811736397316900,3.94631689453125,-8.106295696645974,-2.0073931306123733,-2.947763178911805
1782811736407389000,3.956388916015625,-4.711308974716067,-2.3751155591532584,-2.854904277950525
1782811736417461000,3.9664609375,-1.5693191087335348,-2.3970202247083185,-2.326362780291587
1782811736427532000,3.976531982421875,0.7290437578678131,-1.6522855612337588,-1.3766690233297645
1782811736437603800,3.986603759765625,1.426196001434326,-0.479123825147748,-0.40398426688089967
1782811736447675000,3.9966748046875,0.6086071141511201,0.6087833475008606,0.1697489561572671
1782811736457747000,4.006746826171875,-0.6418067884415388,1.1000723883472383,0.3440978073254227
1782811736467818000,4.01681787109375,-1.3681342730879782,0.9385057157322764,0.5178231197677552
1782811736477890000,4.02689013671875,-1.0241372957885264,0.5241191511720419,0.7544529244124889
1782811736487962000,4.036962158203125,0.25299919403493404,0.004004705596715212,0.8248289215393364
1782811736498033200,4.047033203125,2.0431845749616624,-0.5079151814766227,0.8216660735942423
1782811736508105000,4.05710498046875,3.9800060397446155,-0.8211091703638433,1.013780883077532
1782811736518176000,4.067176025390625,5.71262419784367,-0.9448242512293159,1.3972849642485379
1782811736528248000,4.077248046875,7.021386244508624,-0.9207952869966626,1.966717713613808
1782811736538320100,4.087320068359375,7.792326193341612,-0.6100502986967563,2.459151978972554
1782811736548391200,4.09739111328125,8.12396462432742,-0.21865108036175368,2.7539135084599256
1782811736558463000,4.107462890625,7.915181004115938,0.05236833901032805,2.8244892659425735
1782811736568534000,4.117533935546875,7.28068599999249,0.22427418094053864,2.6757670234620567
1782811736578606000,4.127606201171875,6.782806620970368,0.2341160682581365,2.3493578714318573
1782811736588676900,4.1376767578125,6.457995405656099,0.21576938744559881,2.016304312951118
1782811736598749000,4.1477490234375,6.323408071511984,0.24121625565215943,1.6954148011252284
1782811736608821000,4.157821044921875,6.6158782751917835,0.10655454109758138,1.2721500797130167
1782811736618892000,4.16789208984375,7.208720833978057,-0.18040683603286742,0.7794121552325785
1782811736628963800,4.1779638671875,7.692056723862886,-0.5102623291246593,0.2604408883430064
1782811736639035000,4.188034912109375,7.863759444436431,-0.6115946055293083,-0.16394567670598625
1782811736649107000,4.19810693359375,7.67966544432342,-0.4422419552132487,-0.45158831409886474
1782811736659179000,4.208178955078125,7.177544774469733,0.03705488841384649,-0.62364408589378
1782811736669250000,4.21825,6.201583188307285,0.6954577146083116,-0.5572290282871574
1782811736679322000,4.228322021484375,5.120186712726951,1.416912040260434,-0.4261611004408449
1782811736689393200,4.23839306640625,4.754692773890495,2.0662141528934237,-0.4340063340485096
1782811736699465000,4.24846484375,5.0399587452799075,2.5157374972864983,-0.5939414599388837
1782811736709537000,4.258537109375,5.421151188507676,3.01369111058861,-0.6502374937869608
1782811736719608000,4.268608154296875,5.744226958331465,3.432034011559188,-0.2724890352669172
1782811736729680100,4.27868017578125,6.038542497617006,3.490645775003731,0.46375192236229773
1782811736739751200,4.288751220703125,6.237292215070128,3.0036130764275786,1.175880274329707
1782811736749823000,4.298822998046875,5.80026156476438,2.166089362357557,1.556843365781009
1782811736759894000,4.30889404296875,3.859799697652459,1.4579618435293435,1.1987003742292524
1782811736769966000,4.318966064453125,0.3948679173588753,1.1530489223837852,0.31994729907233266
1782811736780038100,4.3290380859375,-3.471150508677959,0.7508148601710796,-0.1272877699867822
1782811736790109000,4.33910888671875,-6.748071992197632,-0.4728355386584997,0.34700624211803077
1782811736800181000,4.349180908203125,-8.63402543953061,-2.1765859141916035,1.2047326401308178
1782811736810252000,4.359251953125,-8.943631486928462,-3.316896643294394,1.3277533089913427
1782811736820323800,4.36932373046875,-8.751360610100626,-3.6575013478070497,-0.06591741028279066
1782811736830396000,4.37939599609375,-8.969170417332649,-3.858482769834995,-1.7603776871621608
1782811736840467000,4.389467041015625,-9.88041198630333,-4.525118586845696,-1.8063485802203416
1782811736850539000,4.3995390625,-10.982934836542606,-4.919047469788789,-0.4643003134926781
1782811736860610000,4.409610107421875,-11.950807224273682,-4.194880378046632,0.8462826284565031
1782811736870682000,4.41968212890625,-13.522806365871428,-2.6778347696468234,1.2281371888548136
1782811736880753200,4.429753173828125,-15.15504048820138,-1.2707745535761117,0.9430161788940429
1782811736890825000,4.439824951171875,-15.473401504462956,-0.9250780788823961,0.4203951573252678
1782811736900897000,4.44989697265625,-14.318085806190966,-1.623504580168426,-0.43019656650200483
1782811736910968000,4.459968017578125,-12.083279758220911,-2.800440574096143,-1.4253282786890864
1782811736921040100,4.4700400390625,-8.617486977183818,-3.7992400150105357,-2.2492549906916914
1782811736931111200,4.480111083984375,-4.526928558877111,-4.13435459767431,-2.3404028499513863
1782811736941183000,4.490182861328125,-1.0931056180745362,-3.5433091514378785,-1.7132507559366523
1782811736951255000,4.500255126953125,1.2074398532629012,-2.2166779783442614,-0.6007842750383541
1782811736961326000,4.510326171875,2.2424036634922024,-0.7367538938537239,0.4434781094120815
1782811736971398100,4.520398193359375,1.3435977977246045,0.7435409236453473,0.8547240743916481
1782811736981469000,4.530468994140625,-0.4056839104056358,1.976967889471352,1.15220560342744
1782811736991541000,4.540541015625,-1.5382617071688174,2.6299618423596023,1.3018214337468146
1782811737001613000,4.550613037109375,-1.2692962977170943,2.5520021121054888,1.2192888426192103
1782811737011683800,4.560683837890625,0.11860767472386359,1.9028597200788557,1.0566103363048285
1782811737021756000,4.570755859375,2.083219063708186,0.9731183255605399,0.830525379615277
1782811737031827000,4.580826904296875,4.218314445126056,0.24308964830860494,0.6727918554224074
1782811737041899000,4.59089892578125,6.013448388370871,-0.17778876248896122,0.7215688919425011
1782811737051970000,4.600969970703125,7.0441948731660835,-0.30399639082252977,1.0297663877166807
1782811737062042000,4.6110419921875,7.502273572197556,-0.3149982618302107,1.3041031149432063
1782811737072114000,4.621114013671875,7.577373529106378,-0.3735045190736651,1.362204298517108
1782811737082185000,4.63118505859375,7.020398402515053,-0.1624533923216164,1.332222855620831
1782811737092257300,4.64125732421875,6.204959971264004,0.32006065978631376,1.4572631937406957
1782811737102328300,4.651328369140625,5.702947437959909,0.7547437240526079,1.6642114152185619
1782811737112400400,4.661400390625,5.721987069472671,0.9406856901198625,1.7578604436442256
1782811737122472200,4.67147216796875,6.178180685409903,0.9441447445325553,1.766467674600333
1782811737132543200,4.681543212890625,6.6397092326343055,0.8700023806095123,1.7672439196698366
1782811737142615300,4.691615234375,6.888010624241828,0.8734456529311835,1.747652061101794
1782811737152686300,4.701686279296875,6.9584794142186635,0.9678865623869002,1.8128674605950712
1782811737162758400,4.71175830078125,6.864088481384515,1.0705658694863318,1.8801814398027956
1782811737172830500,4.72183056640625,6.813525584360956,1.1295841679051517,1.9194030047312378
1782811737182901500,4.731901611328125,7.018004785376787,1.0930264153584837,1.9994414409555494
1782811737192973300,4.741973388671875,6.916384485810995,1.0390531253695487,2.1356350412525233
1782811737203044000,4.752044189453125,6.075957159253955,0.8322472349718213,1.9189703124023973
1782811737213116200,4.7621162109375,5.187480379799008,0.2068763252854347,1.2135603089045732
1782811737223187200,4.772187255859375,4.112466298732161,-0.2562871296644211,0.4363566965669393
1782811737233259300,4.78225927734375,2.6232021389663216,-0.17053133870661258,-0.22456074279695748
1782811737243331000,4.7923310546875,0.941197731295228,0.19322890820503233,-0.6053400751791894
1782811737253402000,4.802402099609375,-0.932357422235608,0.6508750610381364,-0.8946649665705859
1782811737263474200,4.81247412109375,-2.8213538905262947,0.8153475380972027,-1.14028778661862
1782811737273545200,4.822545166015625,-4.065872889861464,0.6102630646646022,-1.3897664053119718
1782811737283617300,4.8326171875,-4.080107166919112,0.1542673093870282,-1.4316031211748719
1782811737293688300,4.842688232421875,-3.9824540174186227,-0.5098138547047972,-1.044286422913149
1782811737303760400,4.852760498046875,-4.746988190862536,-0.7096352930426597,-0.4234061026442796
1782811737313832200,4.862832275390625,-5.849188385018706,-0.9238625656127929,0.03235043704994023
1782811737323903200,4.8729033203125,-6.508153229010105,-1.525334421056509,0.008172565865889192
1782811737333975300,4.882975341796875,-6.134119425365329,-2.31325034687072,-0.5859078641522676
1782811737344046300,4.89304638671875,-5.036144739949703,-3.0958181896552444,-1.5346610523283482
1782811737354118400,4.903118408203125,-4.04027375370264,-3.759346396039426,-2.0496040866151453
1782811737364190500,4.9131904296875,-3.70386445505321,-4.330136112971604,-1.7294385051496326
1782811737374261500,4.923261474609375,-4.645217084649205,-4.340694039604068,-0.9068494714915752
1782811737384333300,4.933333251953125,-6.350617565476894,-3.8536183786690232,-0.44174277351945634
1782811737394404000,4.943404052734375,-8.203537927258013,-3.2780130781486627,-0.32686142584234473
1782811737404476200,4.95347607421875,-9.899799408340453,-2.929482841333747,-0.5069947056308388
1782811737414548200,4.96354833984375,-10.739647473704814,-2.864315664896369,-0.9740312026217579
1782811737424619300,4.973619384765625,-10.08589714949131,-3.2737615581840274,-1.329476917913556
1782811737434691000,4.983691162109375,-8.161002269345522,-3.9897281000748275,-1.446951496954262
1782811737444762000,4.99376220703125,-6.37572862585783,-4.382633192928135,-1.1743715502671896
1782811737454834200,5.003834228515625,-4.916939683854579,-4.200472498965263,-0.8638361130647361
1782811737464905200,5.0139052734375,-3.9978351264238356,-3.669198215341568,-0.504541028868407
1782811737474977300,5.023977294921875,-4.111661996611953,-2.591955352309346,-0.3214442230992019
1782811737485049300,5.03404931640625,-4.588496834039688,-1.1517349171757698,-0.3303412307821214
1782811737495120400,5.044120361328125,-4.451895821985602,0.14759966819137335,-0.27665917882472274
1782811737505192200,5.054192138671875,-3.8076048155128954,1.0565469887450336,-0.16137509556561708
1782811737515263200,5.06426318359375,-2.666530993083119,1.572627210368216,-0.1196649286918342
1782811737525335300,5.074335205078125,-0.8082903130620718,1.5977242422237992,-0.23804537053108213
1782811737535407400,5.084407470703125,1.6593103453040121,1.2098372697934507,-0.4773167757257819
1782811737545478400,5.094478515625,3.920865283989906,0.8218164418503642,-0.7365995800748467
1782811737555550500,5.104550537109375,5.224755340704322,0.6495385517373681,-0.7649320867203175
1782811737565621500,5.11462158203125,5.531656805318594,0.6159136377722024,-0.5361600098386406
1782811737575693300,5.124693359375,5.453662880533933,0.665805211405456,-0.319865283344686
1782811737585764000,5.13476416015625,5.126445188599825,1.009941597175598,-0.08700900588929653
1782811737595836200,5.144836181640625,4.730646712392568,1.535010304157436,0.32571532454714175
1782811737605908200,5.154908203125,4.489136880621314,1.967644473069906,0.7664300701931118
1782811737615979300,5.164979248046875,4.277171707764268,2.1839953136652706,1.1059677299961448
1782811737626051000,5.175051025390625,4.069253764471411,2.3773987016543745,1.3088584927767515
1782811737636122000,5.1851220703125,4.258002896913886,2.5011943004101513,1.3614984883353114
1782811737646194200,5.195194091796875,4.816429391357302,2.4338448114976283,1.3501082025319338
1782811737656266200,5.205266357421875,5.6447693897575135,2.3018676598519083,1.3795321576759219
1782811737666337300,5.215337158203125,6.390600616297125,2.248164126715064,1.5364341994807122
1782811737676409300,5.225409423828125,6.8946221513360735,2.191320541986823,1.7441819007731973
1782811737686480400,5.23548046875,7.027575162276626,2.182182126763463,1.7433048256777226
1782811737696552200,5.24555224609375,6.934270855635404,2.1670801269605753,1.462544056753069
1782811737706624300,5.255624267578125,6.541148320639133,2.209450657439232,1.1241355471104382
1782811737716695300,5.2656953125,6.27153000023663,2.2215976068288086,0.8769381712220609
1782811737726767400,5.275767333984375,6.32947657777071,2.0376547056242824,0.7254273940015584
1782811737736838400,5.28583837890625,6.120990479201078,1.748594018127024,0.5199168041113764
1782811737746910200,5.29591015625,5.6227545418262475,1.6035180231943726,0.24894166227243839
1782811737756981200,5.305981201171875,5.403316841131448,1.7270540942311285,0.09998488038368522
1782811737767053300,5.31605322265625,6.044416942608356,1.7345502952054141,-0.10337481508292257
1782811737777124000,5.3261240234375,7.347493929374218,1.9924036512732504,-0.04077792752496898
1782811737787195100,5.336195068359375,4.882872579079866,2.2522227544561026,-0.08047090935744344
1782811737797267200,5.34626708984375,3.138014532610774,1.2985706152573226,-0.5883632214151322
1782811737807338200,5.356338134765625,3.1229701082140204,0.4078796668842435,-1.031150681681931
1782811737817410300,5.366410400390625,3.3240514834851025,-0.2951926143810153,-1.0630326975025235
1782811737827482000,5.376482177734375,3.107922761207819,-0.8840238916993141,-0.8488725718844682
1782811737837553200,5.38655322265625,1.7139637265115975,-0.802299548214674,-0.6589910744111984
1782811737847625200,5.396625244140625,-0.14266075048446655,-0.7695569700419902,-0.3356272083610296
