time,seconds_elapsed,z,y,x
1782661193164468200,0.08046826171875,-0.2651940742194652,0.03146839351840317,0.12445501251257955
1782661193174538200,0.090538330078125,-0.06919336321353912,0.012590528438612818,0.1553958750255406
1782661193184609300,0.100609375,0.10485387465953826,0.02018967833071947,0.21231194046810267
1782661193194680300,0.110680419921875,0.29460663118660446,0.054658861100301145,0.3120879273414612
1782661193204750000,0.12075,0.49923663884997366,0.1205276099357754,0.4095545412939042
1782661193214821000,0.130821044921875,0.657278498339653,0.1668245931431651,0.4862644176173955
1782661193224892200,0.14089208984375,0.7333341485381126,0.1761528318502009,0.510829899879545
1782661193234963200,0.150963134765625,0.7324509359627962,0.22556429381631313,0.5660988557022064
1782661193245033200,0.161033203125,0.5710094971626997,0.28641550675071775,0.6472246487718075
1782661193255104000,0.17110400390625,0.3524275365144014,0.350060295926407,0.7039725180406123
1782661193265175000,0.181175048828125,0.1917927379220724,0.4044423128467053,0.7200318916335702
1782661193275245300,0.191245361328125,0.08211246601939201,0.4071145277306437,0.665475614124909
1782661193285316400,0.20131640625,-0.06580781242847442,0.4296832101523876,0.5961749180793762
1782661193295387400,0.211387451171875,-0.11297463727295398,0.4926726041592657,0.5937972291626036
1782661193305457200,0.22145703125,-0.05166004461050033,0.5306151621278375,0.6375221699248999
1782661193315528200,0.231528076171875,0.0020049100816249845,0.48015704065300524,0.6693521632973104
1782661193325599200,0.24159912109375,-0.08951602027416229,0.3456158106729388,0.6285000014923513
1782661193335669200,0.251669189453125,-0.28436054698228835,0.2764445131607354,0.49553259670026595
1782661193345740000,0.261739990234375,-0.28372283360064027,0.1967892310351133,0.336649391015619
1782661193355811000,0.27181103515625,-0.07318155606687068,-0.016179346710816025,0.1840798254571855
1782661193365882000,0.281882080078125,0.1487888779759407,-0.37211554893329735,-0.031718349691480394
1782661193375952100,0.2919521484375,0.3112158206820488,-0.8642572610862552,-0.49036863806582986
1782661193386023200,0.302023193359375,0.42177287541925906,-1.3161995031893252,-1.1040599966786802
1782661193396094200,0.31209423828125,0.47346273064613337,-1.5574933541223406,-1.639774746967852
1782661193406164200,0.322164306640625,0.4450941297739744,-1.568798299729824,-1.9087763967767357
1782661193416235300,0.3322353515625,0.41425650843977924,-1.34491180293262,-1.9105814003720878
1782661193426306300,0.342306396484375,0.24625848760306834,-1.0097251048807054,-1.6941078101798892
1782661193436376000,0.3523759765625,-0.08657295255959034,-0.7140405422642827,-1.3711920532234012
1782661193446447000,0.362447021484375,-0.4224053281038999,-0.47794078937564044,-1.0433207196861505
1782661193456518100,0.37251806640625,-0.681637279048562,-0.2854884185010567,-0.7520013665419072
1782661193466588200,0.382588134765625,-0.8404688276112079,-0.11991188919022679,-0.4948462949365377
1782661193476659200,0.3926591796875,-0.8489385497927665,-0.044843131137266755,-0.32108138113617896
1782661193486730000,0.40272998046875,-0.6494207705765962,-0.04570511826146394,-0.1558646615810692
1782661193496800300,0.41280029296875,-0.3252227187246084,-0.01640519135594368,0.0037738925155252215
1782661193506871300,0.422871337890625,-0.06774199536144733,-0.08363046936690807,0.07568411347232759
1782661193516942300,0.4329423828125,0.14383096330761908,-0.13840148560479282,0.0918843568406999
1782661193527013000,0.44301318359375,0.21756430803835392,-0.14225962233766912,0.08964271539375185
1782661193537083100,0.453083251953125,0.16247779611051083,-0.17139321623295545,0.04366444274671376
1782661193547154200,0.463154296875,0.15011632718741894,-0.19833404932431875,-0.020800869031623006
1782661193557225200,0.47322509765625,0.16164777502715585,-0.33059272132515904,-0.08441497080810367
1782661193567295200,0.483295166015625,0.09209960702657699,-0.4506535905320197,-0.17586086316630242
1782661193577366300,0.4933662109375,-0.06156126089990139,-0.519246065242961,-0.2569799342341721
1782661193587437300,0.503437255859375,-0.2633388017416,-0.5368974572677165,-0.3767742614593357
1782661193597507300,0.51350732421875,-0.39486382570564743,-0.47757506133578714,-0.3921902956474572
1782661193607578400,0.523578369140625,-0.38629415028095243,-0.3821799929603934,-0.27851087110601364
1782661193617649400,0.5336494140625,-0.22744331249594688,-0.3594139613356441,-0.1506926657706499
1782661193627720400,0.543720458984375,-0.05435001434683799,-0.3066802230790257,-0.02325958729535341
1782661193637790200,0.553790283203125,0.05237082322835922,-0.2676247354324907,0.019232450671121476
1782661193647861200,0.563861328125,0.20173311717808246,-0.2996017360601574,-0.035935090603679415
1782661193657932300,0.573932373046875,0.36322190225124357,-0.27525340368002654,-0.049979398047178984
1782661193668002300,0.584002197265625,0.4804384148776531,-0.2412774112548679,-0.021299977660179138
1782661193678073300,0.5940732421875,0.6369277842283249,-0.24198709389418363,0.014203151267021893
1782661193688144100,0.60414404296875,0.7499801629126072,-0.2685680806972086,0.08072941416315733
1782661193698214400,0.61421435546875,0.8138163830071687,-0.30532025983743366,0.13931896577589212
1782661193708285400,0.624285400390625,0.7479734992653131,-0.3316311975274235,0.1516978242252022
1782661193718356500,0.6343564453125,0.5136643926531076,-0.315277005706355,0.09929865168519318
1782661193728426200,0.64442626953125,0.26740181339681146,-0.2953863103222102,0.026348420156165956
1782661193738497300,0.654497314453125,0.08667524389028548,-0.24502879967764019,-0.018849808029085396
1782661193748568300,0.664568359375,-0.1150870993822813,-0.205363290373981,-0.03503193121887743
1782661193758639400,0.674639404296875,-0.21804770764112472,-0.19019867366366086,-0.0592133825995028
1782661193768709400,0.68470947265625,-0.15585282501280306,-0.17793993446268142,-0.06406900593712926
1782661193778780200,0.6947802734375,-0.08658990369439125,-0.2271497363768518,-0.07403707691766322
1782661193788851200,0.704851318359375,-0.07251286302506924,-0.33038609283715487,-0.09860402048453688
1782661193798921500,0.71492138671875,-0.14653379252552987,-0.4202111059952527,-0.19256240712031722
1782661193808992500,0.724992431640625,-0.24366671754419802,-0.43556218518838286,-0.31357524328976866
1782661193819063300,0.735063232421875,-0.24785189427435397,-0.40625133503004907,-0.4216421617116779
1782661193829133300,0.74513330078125,-0.21600012746155262,-0.35611718481257554,-0.416093587673828
1782661193839204400,0.755204345703125,-0.12770575793683528,-0.260227976244688,-0.3059804773118347
1782661193849275400,0.765275390625,0.02994330284297466,-0.17510843736380338,-0.18740312466099857
1782661193859345200,0.77534521484375,0.11997954759895801,-0.16700995964743195,-0.10097206479012966
1782661193869416200,0.785416259765625,0.10208733255565165,-0.17377711569480597,-0.08306107198111712
1782661193879487200,0.7954873046875,0.05130348625779152,-0.2421401655640453,-0.12328392290659249
1782661193889558300,0.805558349609375,0.022296002960205077,-0.33559520578756924,-0.22953648538291452
1782661193899628300,0.815628173828125,0.06974164474606513,-0.3756517602354288,-0.3144631320402026
1782661193909699300,0.82569921875,0.15360884547829626,-0.36323330042809243,-0.30952728307321664
1782661193919770400,0.835770263671875,0.2312456273883581,-0.34646614389196034,-0.2942601558364928
1782661193929840400,0.84584033203125,0.33974691863954065,-0.3189376471057534,-0.28383133547641337
1782661193939911400,0.855911376953125,0.43005905772745606,-0.3603199702646583,-0.26441234925724566
1782661193949982500,0.865982421875,0.502484826990962,-0.31281836050786077,-0.24139935713410376
1782661193960052200,0.87605224609375,0.5216717580199242,-0.2953958088029176,-0.2395546060502529
1782661193970123300,0.886123291015625,0.5046943197339773,-0.2536437755487859,-0.1794412789363414
1782661193980194300,0.8961943359375,0.44970893009304996,-0.19327508543431757,-0.12295023397281765
1782661193990264300,0.906264404296875,0.31787118691802024,-0.23673509165011344,-0.08562398127168416
1782661194000335000,0.916335205078125,0.13328092772066594,-0.3696733434129506,-0.18202596166729926
1782661194010406100,0.92640625,0.015776245802640913,-0.5605617529064416,-0.34198943686932326
1782661194020477200,0.936477294921875,-0.1095271271675825,-0.7459925545811653,-0.5953260461650789
1782661194030547500,0.94654736328125,-0.26410043376386166,-0.8746233914736657,-0.7695747979596257
1782661194040618500,0.956618408203125,-0.33748189631700515,-0.9568428980641066,-0.8922627277344465
1782661194050689300,0.966689208984375,-0.24997370873391628,-0.9794012052223086,-0.9678153968468308
1782661194060759300,0.97675927734375,-0.02716448577940464,-0.9803311064835637,-0.95738679568246
1782661194070830300,0.986830322265625,0.16109540184140203,-0.9084639940161258,-0.9279629866689443
1782661194080901400,0.9969013671875,0.2029337251394987,-0.7969168322630226,-0.7523067061640322
1782661194090971100,1.00697119140625,0.1693330688327551,-0.6040701283086091,-0.45054275056868787
1782661194101042200,1.017042236328125,0.19719839635789393,-0.37705446664020414,-0.1243925417356193
1782661194111113200,1.02711328125,0.28920097275078294,-0.15499788868390021,0.07862053225040436
1782661194121183500,1.03718359375,0.4133054913252592,0.06844948604367673,0.2360096269197762
1782661194131254300,1.047254150390625,0.4111433448553085,0.2759984498936683,0.41781551609560846
1782661194141325300,1.0573251953125,0.31753976300656794,0.44091560198031365,0.617237725982815
1782661194151396400,1.067396240234375,0.15740356158614158,0.4946881087001413,0.7145593054413795
1782661194161466400,1.07746630859375,-0.08567571145892143,0.45705227859318254,0.6394605175763368
1782661194171537400,1.087537353515625,-0.3157569712430239,0.38814861904121933,0.5261423275627195
1782661194181608200,1.097608154296875,-0.5025514624863863,0.2839451711144298,0.36803909327462314
1782661194191678200,1.10767822265625,-0.6221259364157915,0.20822079869695007,0.24346125809997318
1782661194201749200,1.117749267578125,-0.5193979678690434,0.19948314629420638,0.1494667772375047
1782661194211820300,1.1278203125,-0.22336627231538295,0.07604184086881577,0.04260039371177554
1782661194221890300,1.137890380859375,0.1517600027412176,-0.07379420807249844,-0.03848857447877526
1782661194231961300,1.14796142578125,0.5672036751389503,-0.20948482728339732,-0.08084478417113423
1782661194242032400,1.158032470703125,0.8697574659377336,-0.28364374048244206,-0.045629386144131416
1782661194252102400,1.168102294921875,0.8962024052709341,-0.3560297622574493,0.0849801304101944
1782661194262173400,1.17817333984375,0.5537701930701733,-0.23941446692720053,0.19569924384132026
1782661194272244200,1.188244140625,0.14171908572018146,-0.16483897228389977,0.17555895761027931
1782661194282314200,1.198314208984375,-0.20339315934479235,-0.2258103775318712,0.116543289539963
1782661194292385300,1.20838525390625,-0.38219898992180823,-0.3700963180653751,0.018757453570514917
1782661194302456300,1.218456298828125,-0.4193564619272947,-0.6535390926156193,-0.16681027235686777
1782661194312527400,1.22852734375,-0.2934820110708475,-1.144399094394967,-0.48207098451554775
1782661194322597400,1.238597412109375,-0.09257248523533344,-1.6090188125677405,-0.7713939762108027
1782661194332668400,1.24866845703125,-0.01849427258968353,-1.7884284542568027,-0.811213360901922
1782661194342739500,1.258739501953125,-0.10088146389722824,-1.711939234946668,-0.5984858253702521
1782661194352809200,1.268809326171875,-0.3092717008769512,-1.4339642973482607,-0.29877573356479403
1782661194362880300,1.27888037109375,-0.547649664363265,-1.1017480664744972,0.038107904598116873
1782661194372951300,1.288951416015625,-0.5393956307590008,-0.7914290485017001,0.3699804366007447
1782661194383021300,1.299021240234375,-0.332254517057538,-0.5682244695540517,0.6701518623076379
1782661194393092400,1.30909228515625,-0.04410860631763935,-0.5131894686177373,0.865787977784872
1782661194403163100,1.3191630859375,0.13277122463285923,-0.540541841652058,1.0019495755083858
1782661194413233400,1.3292333984375,0.25316928990483284,-0.6705098088998347,1.021846992894262
1782661194423304200,1.33930419921875,0.3360305284649133,-0.8399871085088699,0.9668538583382964
1782661194433375200,1.349375244140625,0.37752632193565366,-0.9897533070843666,0.8460136022567748
1782661194443445200,1.3594453125,0.31483401117920873,-1.161243188624829,0.7111996197499334
1782661194453516300,1.369516357421875,0.2288093401521444,-1.2332464946925639,0.576858369321376
1782661194463587300,1.37958740234375,0.27248247766196726,-1.2075290659163147,0.5410267390921711
1782661194473657300,1.3896572265625,0.40095512831807134,-1.1357017740026116,0.5826821070387959
1782661194483728400,1.399728271484375,0.6029314066022634,-1.0143664278805256,0.6660857819125056
1782661194493799200,1.409799072265625,0.7867980277001857,-0.891954465502873,0.8250088081508874
1782661194503870200,1.4198701171875,0.9159820414960383,-0.7502518925260752,0.9825928408704697
1782661194513940200,1.429940185546875,0.9450462234169245,-0.6856940070934593,1.0453696150399745
1782661194524011300,1.44001123046875,0.8318833700954914,-0.635064693770185,1.0211538960635662
1782661194534082300,1.450082275390625,0.6393067883193493,-0.6351398048330098,0.9893597046568989
1782661194544152300,1.46015234375,0.43668753595650195,-0.6655561320152134,0.8947625817261635
1782661194554223400,1.470223388671875,0.22590718896985051,-0.6640871554411948,0.8101100758351385
1782661194564294400,1.48029443359375,0.03280103036165237,-0.6701255588226019,0.7153941488303244
1782661194574364200,1.4903642578125,-0.069864978864789,-0.6799420194379985,0.6105382283441722
1782661194584435200,1.500435302734375,-0.08431611354351043,-0.7029498239293694,0.49937093275412914
1782661194594506200,1.51050634765625,-0.09201777396202086,-0.7771504939109086,0.45823111311420794
1782661194604576000,1.520575927734375,-0.05194762938022613,-0.8452599343452603,0.4373502376489341
1782661194614647000,1.53064697265625,-0.08513736679852009,-0.8441951546579599,0.42474400018453595
1782661194624718000,1.540718017578125,-0.23021979147195815,-0.8417309565015136,0.3771327925734222
1782661194634788400,1.550788330078125,-0.3690542616665363,-0.9251325855486094,0.28693229716643687
1782661194644859100,1.560859130859375,-0.5268249029994011,-1.0060168249472976,0.17903657059296965
1782661194654930200,1.57093017578125,-0.5907756893843412,-1.0350419169668108,0.128501730620116
1782661194665000200,1.581000244140625,-0.4603536582261324,-1.107126398511976,0.12874036168158054
1782661194675071200,1.5910712890625,-0.2757739204227924,-1.1924329843975603,0.0987330536916852
1782661194685142300,1.601142333984375,-0.22739713526666164,-1.2273105287723243,0.09043678838089107
1782661194695212000,1.6112119140625,-0.22312194216549394,-1.2557619856223463,0.06764364955350756
1782661194705283000,1.621282958984375,-0.23123393695056438,-1.322708738952875,0.018036299689114094
1782661194715354000,1.63135400390625,-0.31885961343348024,-1.3779846359729766,-0.03414630749076605
1782661194725425200,1.641425048828125,-0.5052963772803545,-1.3628890659108757,-0.09435600765123962
1782661194735495200,1.6514951171875,-0.5993371815025806,-1.4106466962553559,-0.14606953601464628
1782661194745566200,1.661566162109375,-0.6030909810781478,-1.5093664520740508,-0.2758314958289265
1782661194755637200,1.67163720703125,-0.5924088435441255,-1.5447829256311059,-0.4204753829546273
1782661194765707300,1.681707275390625,-0.6218816062659025,-1.491507700908929,-0.5112229908503592
1782661194775778300,1.6917783203125,-0.8198761214375495,-1.4071405878305434,-0.5195753702625632
1782661194785849000,1.70184912109375,-1.1418465603679417,-1.2795534878373145,-0.45707945886105295
1782661194795919000,1.711919189453125,-1.4447329441219567,-1.1523526837479323,-0.39488209201470015
1782661194805990100,1.721990234375,-1.671796901911497,-1.0046803156465292,-0.357379898224771
1782661194816061200,1.732061279296875,-1.794227349793911,-0.8260353747196495,-0.3441090593717992
1782661194826131200,1.742131103515625,-1.867715779852867,-0.6323710707720369,-0.3404750867836177
1782661194836202200,1.7522021484375,-1.8887533071845768,-0.5520165543358773,-0.39356092641353607
1782661194846273300,1.762273193359375,-1.7753315106660126,-0.5047937980530783,-0.4145132596798241
1782661194856343300,1.77234326171875,-1.5296458545148373,-0.4093971587751061,-0.38739348982498045
1782661194866414000,1.7824140625,-1.2624375178635119,-0.27967618855834003,-0.2981301291376352
1782661194876485000,1.792485107421875,-1.0336655871123075,-0.10069436209360137,-0.23187910298630593
1782661194886555100,1.80255517578125,-0.8083715616047382,0.08181110845264047,-0.14806290178894996
1782661194896626200,1.812626220703125,-0.6620534576565027,0.2112413520945236,-0.07568404040709137
1782661194906697200,1.822697265625,-0.5442804801911115,0.2778893416741863,-0.09842252643778919
1782661194916767200,1.832767333984375,-0.44090895304381844,0.3002383534632623,-0.15645736677721142
1782661194926838300,1.84283837890625,-0.2874859855264425,0.34577005138657985,-0.20981661652103065
1782661194936909300,1.852909423828125,-0.08246902437210082,0.45811632762812077,-0.24203254047110676
1782661194946979300,1.862979248046875,0.1395873343884945,0.5293254145782441,-0.24683044227212667
1782661194957050000,1.873050048828125,0.35869945639073847,0.5298726001322269,-0.22753815117254853
1782661194967121200,1.88312109375,0.6579232259839772,0.5238712408255786,-0.249017430922389
1782661194977191200,1.893191162109375,0.9834037188619374,0.5275053595442325,-0.2564279994398355
1782661194987262200,1.90326220703125,1.3119862694084643,0.5949860005557537,-0.2739350145578384
1782661194997333200,1.913333251953125,1.6022066483348607,0.5959793224420398,-0.2808005164131522
1782661195007404000,1.923404052734375,1.8253291750222445,0.6059767656475306,-0.260642110003531
1782661195017474000,1.93347412109375,1.9119401215046643,0.6259327082876116,-0.2587241475529969
1782661195027545000,1.943545166015625,1.8620342270851133,0.532596326007694,-0.305847863908112
1782661195037615000,1.953614990234375,1.7181635162889957,0.3746038586176932,-0.4009995519816875
1782661195047686100,1.96368603515625,1.5408078845202922,0.2569187055662274,-0.5210210390262305
1782661195057757200,1.973757080078125,1.3267723351299763,0.19582403926476835,-0.5942644082829356
1782661195067828200,1.983828125,1.085938795185089,0.13679017795063556,-0.644115357644856
1782661195077898200,1.993898193359375,0.7742787378668785,0.08191679731681943,-0.663713645953685
1782661195087969000,2.003968994140625,0.33202187734544275,-0.028868367087841032,-0.6615548604846
1782661195098040000,2.0140400390625,-0.13594693205952643,-0.18553338526636362,-0.6745164872579276
1782661195108110000,2.024110107421875,-0.6266431215792894,-0.3704294224772602,-0.7594831736646592
1782661195118181000,2.03418115234375,-1.1039484991282225,-0.52572176406309,-0.8245408983781933
1782661195128252200,2.044252197265625,-1.5075374830812216,-0.6052182023651898,-0.8177154362723231
1782661195138322200,2.054322265625,-1.5888661052465438,-0.5940598256215452,-0.7215272447578609
1782661195148393200,2.064393310546875,-1.2286398776799439,-0.5410776655618101,-0.5095006971023976
1782661195158464300,2.07446435546875,-0.6288198810964822,-0.4184990413803607,-0.20627324482575057
1782661195168534300,2.0845341796875,-0.057798693495988845,-0.3561707416307181,0.05238587466701865
1782661195178605000,2.09460498046875,0.36061318105757234,-0.3088041564304381,0.21556378187090158
1782661195188676000,2.104676025390625,0.6828390560537576,-0.2273882943730801,0.3273410260528326
1782661195198746000,2.11474609375,1.0378601161926984,-0.14561360894069075,0.478469160631299
1782661195208817200,2.124817138671875,1.3856278442025183,-0.10030768259726464,0.676341656858474
1782661195218888200,2.13488818359375,1.6102432397961615,-0.07907645932435989,0.8567135677084327
1782661195228958200,2.144958251953125,1.6799597501009702,-0.04109137738831341,0.9614566754698752
1782661195239029200,2.155029296875,1.7408482263058422,-0.05018807236179709,1.033846277441457
1782661195249100300,2.165100341796875,1.785513881984353,-0.10562997359856963,1.071890103827417
1782661195259170300,2.17517041015625,1.719804269233346,-0.18068813719227908,1.0386180218879133
1782661195269241000,2.185240966796875,1.619690282577276,-0.3207812291458249,0.9230315946813672
1782661195279312100,2.19531201171875,1.4877157612800598,-0.5025140530854463,0.7866673870578408
1782661195289382100,2.205382080078125,1.3115999004393815,-0.6912304523020982,0.6918319253265858
1782661195299453200,2.215453125,1.0797177287131547,-0.8095362214699388,0.5923503182899207
1782661195309524200,2.225524169921875,0.8476555242449044,-0.9417677862681448,0.5460360916867852
1782661195319594200,2.23559423828125,0.6961626480072737,-1.052356989709288,0.4925605220869183
1782661195329665300,2.245665283203125,0.5284387679368258,-1.1585386058412492,0.4246859133217484
1782661195339736300,2.255736328125,0.43607144988477226,-1.313882896810025,0.376376859639585
1782661195349806000,2.26580615234375,0.34633974103331566,-1.4674591551929712,0.3469602840844542
1782661195359877000,2.275877197265625,0.055284664848446845,-1.4653810337446629,0.3146796243350953
1782661195369948200,2.2859482421875,-0.26696283745765687,-1.582892291533947,0.3379056016217917
1782661195380018200,2.29601806640625,-0.2584726570099592,-1.6891149703286588,0.2500510848190635
1782661195390089200,2.306089111328125,-0.12643150021731853,-1.8035379067137836,0.0863553642861545
1782661195400160000,2.316159912109375,0.04915712187886238,-1.9321241007469594,0.01873728756532073
1782661195410230300,2.326230224609375,0.2769084774106741,-1.9357078044526277,0.07610124290585517
1782661195420301300,2.33630126953125,0.3745020056784153,-1.964903796059638,0.10244155282080172
1782661195430372400,2.346372314453125,0.2456546764910221,-2.0540058287054297,-0.01303980657607317
1782661195440442000,2.356442138671875,-0.11417290714681148,-2.0595064719483256,-0.17023396319523454
1782661195450513200,2.36651318359375,-0.5777846903860568,-2.061878900168091,-0.3606048516206443
1782661195460584200,2.376584228515625,-0.9531664015084504,-2.1714511816516517,-0.6285999547354877
1782661195470654200,2.386654296875,-1.247562020292878,-2.327840597759187,-1.0046829459950328
1782661195480725200,2.396725341796875,-1.381421040162444,-2.5364129133075473,-1.4884300470292566
1782661195490796000,2.406796142578125,-1.2183061151921748,-2.6520751822292805,-1.9920754422321914
1782661195500866000,2.416865966796875,-0.832872381132841,-2.6041870573729273,-2.313468665796518
1782661195510937000,2.42693701171875,-0.33142917214930057,-2.243115318892896,-2.159926017422229
1782661195521008000,2.437008056640625,-0.128588385990262,-1.3717561168469488,-1.324054162212461
1782661195531078100,2.447078125,-0.4649667049795389,-0.4015383350335061,-0.48089741069152947
1782661195541149200,2.457149169921875,-0.7850438775092363,0.3877734290532768,0.028923019884526727
1782661195551220200,2.46722021484375,-0.8832803798556327,1.0745447099894285,0.45624958390817044
1782661195561290200,2.477290283203125,-0.9106932874381541,1.6860013683527708,0.9677855131652205
1782661195571362000,2.487362060546875,-0.9006962095588446,2.065632261352241,1.4113389163032173
1782661195581433000,2.49743310546875,-0.7609878791391849,2.180200159166008,1.442690332378447
1782661195591504000,2.50750390625,-0.6149257957786322,2.0569668704681097,0.9827026579204946
1782661195601574000,2.517573974609375,-0.585516745942831,1.7363379092745481,0.17283391656056046
1782661195611645000,2.52764501953125,-0.5586123724043369,1.2251745396569371,-0.7056552104305476
1782661195621716000,2.537716064453125,-0.5086895268499851,0.7759604073435068,-1.3462244929663836
1782661195631786000,2.547785888671875,-0.3748375212430954,0.45587505150735375,-1.7779814406529069
1782661195641857000,2.55785693359375,-0.2769125690639019,0.4303488344542682,-1.9248358434349297
1782661195651928000,2.567927978515625,-0.14496844290494917,0.5124579394727945,-1.8307228507593274
1782661195661998000,2.577998046875,-0.03852992940247059,0.9267118175640702,-1.331634680469334
1782661195672069000,2.588069091796875,0.013466799816489218,1.4591560217499733,-0.5956959754560143
1782661195682140000,2.598139892578125,0.07712181812524795,1.8794928730167448,-0.023842209488898515
1782661195692210000,2.6082099609375,0.358431745365262,2.2492653659552335,0.5351370965316892
1782661195702281000,2.618281005859375,0.7610363944560289,2.492241178625822,1.0170211801730096
1782661195712352000,2.62835205078125,1.1353180353820322,2.5894886699348687,1.3800706484667955
1782661195722421800,2.638421875,1.4194424355208872,2.5070985560178753,1.6065554911941289
1782661195732492800,2.648492919921875,1.544452378502488,2.2479954921498893,1.5658251291379333
1782661195742563800,2.658563720703125,1.6960785257309674,1.6668725972518323,1.2618803223721682
1782661195752634000,2.668634033203125,1.7597797212690114,0.8580848560616373,0.6610153467804193
1782661195762705200,2.678705078125,1.4692472076535223,0.277024212744832,0.043001302662864324
1782661195772776000,2.68877587890625,0.9622270753204822,-0.12457125930339097,-0.42911030563525854
1782661195782846000,2.698845947265625,0.33561551792323585,-0.4208335487425327,-0.8200906409710645
1782661195792917000,2.7089169921875,-0.28280922588706014,-0.6071203827247024,-1.1086520006440579
1782661195802988000,2.718988037109375,-0.7798118220746517,-0.5602047561623156,-1.2396512471683323
1782661195813057800,2.729057861328125,-0.9644640405923127,-0.3924278307303786,-1.1046052094712853
1782661195823128800,2.73912890625,-0.8890577942132949,-0.0546687249071896,-0.6955979998618363
1782661195833199900,2.749199951171875,-0.9100058896958827,0.32185645716190336,-0.1811892185822129
1782661195843270100,2.759270263671875,-0.8059159851461648,0.5731047158762812,0.34352409909069537
1782661195853341000,2.7693408203125,-0.3649053252935409,0.7287251934379338,0.7853139266222715
1782661195863412000,2.779411865234375,0.26537527600526806,0.7489964125722647,1.154496490843594
1782661195873482000,2.78948193359375,0.8720353477418422,0.6505326773412525,1.3759239040508866
1782661195883553000,2.799552978515625,1.2864777341425417,0.579735239931941,1.4757720793776212
1782661195893624000,2.8096240234375,1.609509664824605,0.581092792020738,1.5162689249388872
1782661195903693800,2.81969384765625,1.8699919080913066,0.5421770781710744,1.5133869397617876
1782661195913764900,2.829764892578125,2.0939397796869277,0.4090222610481083,1.5278610169246791
1782661195923836000,2.8398359375,2.243873151522875,0.15361220647916196,1.45655139220953
1782661195933906200,2.84990625,2.2390707196772097,-0.15870748379155994,1.1909561898432672
1782661195943977000,2.85997705078125,1.9573194784104824,-0.4722450254194438,0.8731513461597263
1782661195954047000,2.870046875,1.5001888738840818,-0.776085933419317,0.5426311055488884
1782661195964118000,2.880117919921875,1.086446160185337,-1.097747525596246,0.17975845512673258
1782661195974189000,2.89018896484375,0.6871358764648438,-1.365054865642637,-0.14013810013905167
1782661195984260000,2.900260009765625,0.324878435331583,-1.582310399992764,-0.3885464592523873
1782661195994329900,2.910329833984375,0.1764472847521305,-1.7167951505452395,-0.555012594346702
1782661196004401000,2.92040087890625,0.14500819039344787,-1.6916864282518624,-0.5718745895594358
1782661196014472000,2.930471923828125,0.029496143597364424,-1.5283698432296513,-0.485383616194874
1782661196024542000,2.9405419921875,-0.1689227344661951,-1.3239002868250012,-0.3587527940131724
1782661196034613000,2.950613037109375,-0.37751404697597024,-1.1643927386969328,-0.2753422510072589
1782661196044683000,2.96068310546875,-0.6102642337083816,-1.1354871814038603,-0.2542857267141342
1782661196054754000,2.970754150390625,-0.8149883493959903,-1.1825203699313103,-0.24991817915439604
1782661196064825000,2.9808251953125,-0.9790917008817195,-1.2700173054680228,-0.24861250338330865
1782661196074894800,2.990894775390625,-1.198570318108797,-1.3442284968435763,-0.22904943251833318
1782661196084966000,3.0009658203125,-1.4370067337840795,-1.3190107612177728,-0.2071995658904314
1782661196095037000,3.011036865234375,-1.5710674137055873,-1.3327768362417816,-0.2484771865658462
1782661196105108000,3.02110791015625,-1.5768892517268658,-1.3526175550043582,-0.40663609656393523
1782661196115178000,3.031177978515625,-1.4447656773477793,-1.3351190154537558,-0.6444679704748094
1782661196125249000,3.0412490234375,-1.3067957150280476,-1.265059683060646,-0.8097415347836912
1782661196135319000,3.051319091796875,-1.2577145809948445,-1.2552714256264268,-0.954098860052973
1782661196145390000,3.06139013671875,-1.2523323034346103,-1.3347713710598648,-1.1671617650188506
1782661196155461000,3.071461181640625,-1.3175100012660026,-1.4394902211628853,-1.3578241837367415
1782661196165531000,3.08153076171875,-1.3102742047935723,-1.3589286378473042,-1.372102446066588
1782661196175602000,3.091601806640625,-1.0342255590826273,-1.022620169223845,-1.2244466637738047
1782661196185673000,3.1016728515625,-0.6156774909287691,-0.6569272737491876,-0.9951381419278681
1782661196195743000,3.111742919921875,-0.3351087374448776,-0.3451695282101631,-0.6396339744471013
1782661196205813800,3.121813720703125,-0.25796120035648346,0.03454838548563421,-0.16267229576930403
1782661196215884800,3.131884765625,-0.3258616011500358,0.382150036213547,0.23581220465153455
1782661196225955000,3.141955078125,-0.39521336979568,0.68908715666309,0.43348654795810576
1782661196236026000,3.152026123046875,-0.4128559939920902,0.8288272704605013,0.5504622375659645
1782661196246097200,3.16209716796875,-0.4246592445105314,0.9339719447601587,0.7353335056617856
1782661196256167000,3.1721669921875,-0.5466232439249754,1.100452108379826,0.8892825428798794
1782661196266238000,3.182238037109375,-0.7960872495710849,1.2215532804198563,0.9983714247606694
1782661196276309000,3.19230908203125,-1.2870119871497154,1.2214834300540387,0.9632404901467263
1782661196286378800,3.202378662109375,-1.7877426639497278,1.1336528055835515,0.7427930278874934
1782661196296449800,3.21244970703125,-1.8586603667378425,1.0765416559603065,0.3847508663617074
1782661196306520800,3.222520751953125,-1.5798679752767084,1.0499559199169277,0.04725362634509801
1782661196316591000,3.232591064453125,-1.3533376859724522,1.0467167918652296,-0.09252396991848945
1782661196326662100,3.242662109375,-1.1730939315468072,1.1339906592357902,-0.16390052239000796
1782661196336733000,3.25273291015625,-0.7748498157531023,1.2076420978367328,-0.24040830027014015
1782661196346803000,3.262802978515625,-0.1680377683252096,1.1698207550950348,-0.38713819988965986
1782661196356874000,3.2728740234375,0.37243396723270417,1.0330066848121582,-0.6134924019746482
1782661196366945000,3.282945068359375,0.6231453425914049,0.7608665177818388,-0.9548843113422393
1782661196377014800,3.293014892578125,0.7300012047231197,0.2730721141181886,-1.4501238433800636
1782661196387085800,3.3030859375,0.9140174634248017,-0.6417847227402032,-2.094937266291678
1782661196397156900,3.313156982421875,0.8472814302355051,-1.3833565382696686,-2.5881770028144118
1782661196407227100,3.32322705078125,0.46553369121253485,-1.467698224645853,-2.649451263466477
1782661196417298200,3.333298095703125,-0.02783668595254421,-1.3000515014648437,-2.3153410355396566
1782661196427369000,3.343368896484375,-0.47590135596990585,-1.1226358831372112,-1.7960102876879274
1782661196437439000,3.35343896484375,-0.8895002772837877,-0.8683565861638635,-1.2112294548042117
1782661196447510000,3.363510009765625,-1.198984159606695,-0.46696518532037734,-0.5552881964176893
1782661196457581000,3.3735810546875,-1.4770669414937496,-0.05247337028738111,0.07580752065628767
1782661196467650800,3.38365087890625,-1.5983300991624594,0.30977172282096,0.571741903090477
1782661196477721900,3.393721923828125,-1.4207324753314257,0.6225516144819557,0.914537395645678
1782661196487793000,3.40379296875,-0.9636989014387131,0.7897915104277432,1.044900243962556
1782661196497863200,3.41386328125,-0.2881213608205318,0.8698904446676373,1.1076930924840271
1782661196507934000,3.423933837890625,0.42035774792432784,0.8220033427245914,1.1683604732841253
1782661196518005000,3.4340048828125,1.0857833123624323,0.6394489732690155,1.2022693187572062
1782661196528075000,3.444074951171875,1.6803636547267435,0.35121319228857756,1.1482961748987435
1782661196538146000,3.45414599609375,2.0178315225183963,0.1115908547643572,1.0257863781698047
1782661196548217000,3.464217041015625,2.273494967326522,-0.08708981604054569,0.8091120047084986
1782661196558286800,3.474286865234375,2.5513164679288862,-0.2892913544479757,0.579594516286999
1782661196568357000,3.484357177734375,2.738475700831413,-0.45215807681083675,0.3311203984610736
1782661196578428200,3.49442822265625,2.8118875585228205,-0.6286231894806027,0.12039514266252517
1782661196588498200,3.504498291015625,2.768839859434962,-0.783602738790214,-0.07996858585849403
1782661196598569200,3.5145693359375,2.703209157139063,-0.796279265011847,-0.13129910625368357
1782661196608640300,3.52464013671875,2.677911634275317,-0.6732935213342308,-0.024364187536388634
1782661196618710300,3.534710205078125,2.58135504783988,-0.5759276643425226,0.1525369784630835
1782661196628781000,3.544781005859375,2.32473006452322,-0.516883500830084,0.3503897470764816
1782661196638852000,3.55485205078125,1.9410253462135791,-0.544704843083024,0.382468892904371
1782661196648922000,3.564922119140625,1.5702777246326207,-0.7506660993501544,0.3012972148664296
1782661196658993200,3.5749931640625,1.2492787610828875,-0.9813659294240176,0.11175035617500544
1782661196669063200,3.585063232421875,1.041747771281004,-1.227741905926913,-0.1218501637764275
1782661196679134200,3.59513427734375,0.9278969356954098,-1.404630212444812,-0.3000681114628911
1782661196689205200,3.605205322265625,0.878878345504403,-1.4786566949032247,-0.35612463746666906
1782661196699275300,3.615275146484375,0.9242577024102211,-1.5163130563415586,-0.2679299289241433
1782661196709346300,3.62534619140625,0.9002192396968602,-1.575941157221794,-0.10798194355219602
1782661196719417000,3.6354169921875,0.634299773812294,-1.602193204331398,-0.01784706072732806
1782661196729487000,3.645487060546875,0.27903555256724355,-1.5057637514069675,0.0012105448335409164
1782661196739558100,3.65555810546875,-0.034898879423737525,-1.419648917878419,0.0023981471829116344
1782661196749629200,3.665629150390625,-0.3092658556580543,-1.5368234910592435,0.012954320249706506
1782661196759699200,3.67569921875,-0.7337894910901784,-1.6630651677928865,-0.018704992730915547
1782661196769770200,3.685770263671875,-1.3213105625927448,-1.639344246596098,-0.18622502079233527
1782661196779841300,3.69584130859375,-1.8686194506943226,-1.5336628350712358,-0.42855040673017497
1782661196789911300,3.705911376953125,-2.2325684981763363,-1.6747523907162247,-0.8586699624732136
1782661196799982000,3.715982177734375,-2.33327109837532,-1.8011887132391333,-1.4104513198137283
1782661196810053000,3.72605322265625,-2.0280513032376764,-1.7704215267926453,-1.901999596118182
1782661196820123100,3.736123046875,-1.410677529785037,-1.8445777731105684,-2.172110376212746
1782661196830194200,3.746194091796875,-0.900958075365424,-1.2783340290449559,-1.8025496263287961
1782661196840265200,3.75626513671875,-0.7632908953845501,-0.037885055627673865,-0.9221580997824669
1782661196850335200,3.766335205078125,-0.870786224463582,0.9397650681436062,-0.13254881405383348
1782661196860406300,3.77640625,-0.9728665427565574,1.4981990152411162,0.4594228071168065
1782661196870477300,3.786477294921875,-1.0898790572434662,1.8417676841259,0.8545432379320264
1782661196880547300,3.79654736328125,-1.2563234188973902,2.0550939162030817,0.9888318813905119
1782661196890618000,3.8066181640625,-1.4466694651424883,2.217390802788734,0.8720243879564106
1782661196900689200,3.816689208984375,-1.6846382633060215,2.5037118361890314,0.5415745822332799
1782661196910759200,3.82675927734375,-1.8774217658311128,2.6621476634323598,0.15581643852517008
1782661196920830200,3.836830322265625,-1.7389198885917663,2.4815888517081737,-0.3555474221006036
1782661196930901200,3.8469013671875,-1.3280144441455601,1.9816326664119959,-0.8971886398293077
1782661196940971300,3.85697119140625,-0.8205944988399744,1.4330917522974311,-1.2988758818142114
1782661196951042000,3.8670419921875,-0.15838848097026348,1.2449291875712574,-1.378168468107283
1782661196961113000,3.877113037109375,0.6174509303420782,1.3591171461567282,-1.0218436318933963
1782661196971183000,3.88718310546875,1.3911241035312414,1.4997759091690182,-0.4188603489734232
1782661196981254100,3.897254150390625,1.959210991245508,1.6148488338954745,0.14302826862260698
1782661196991325200,3.9073251953125,2.2242051589787004,1.807820990860462,0.579647561648488
1782661197001395200,3.917395263671875,2.2819664430737494,1.9752251374572514,0.8924896683581173
1782661197011466200,3.92746630859375,2.2690146070420742,2.077760944432765,1.0358701114192603
1782661197021536000,3.937535888671875,2.2601380576252934,2.111302856289595,1.031322238856554
1782661197031607000,3.94760693359375,2.112889979350567,2.014058725981414,1.0214105011731385
1782661197041678000,3.957677978515625,1.70235862891376,1.7395479573622346,0.9389080129228532
1782661197051748400,3.967748291015625,1.08879067748487,1.3989572813749314,0.7816555502451956
1782661197061819100,3.977819091796875,0.25419161868989465,0.9133649908654391,0.47305327306240796
1782661197071890200,3.98789013671875,-0.6246674375921487,0.2869615232609212,0.01372428170889616
1782661197081960200,3.997960205078125,-1.2485650598555802,-0.10496595673188566,-0.37659663987010716
1782661197092031200,4.00803125,-1.6974597509562968,-0.17584230459630487,-0.5358382305383682
1782661197102102300,4.018102294921875,-2.015825443392992,-0.02079860400930047,-0.42011575586199756
1782661197112172000,4.028172119140625,-1.9713480037629603,0.3551613453924656,-0.08010799432918429
1782661197122243000,4.0382431640625,-1.3848130206882954,0.6667050097893923,0.36665991387590763
1782661197132314000,4.048314208984375,-0.5626145937830209,0.8551365276500582,0.833631675067544
1782661197142384400,4.05838427734375,0.12280512641370296,0.9450103483859449,1.1667531842179595
1782661197152455200,4.068455078125,0.7516542336046695,0.8375124620236456,1.3192362405367195
1782661197162526200,4.078526123046875,1.392870070415735,0.5744389601547271,1.3478990020498633
1782661197172596200,4.08859619140625,1.888853844949603,0.33101481919474895,1.3113869883410632
1782661197182667300,4.098667236328125,2.0358084932357072,0.09510171145200728,1.205059533997625
1782661197192738300,4.10873828125,1.8763287098973989,-0.08179748178608715,1.031699693866819
1782661197202808000,4.11880810546875,1.6147054799020288,-0.2310748739313334,0.8345059736840427
1782661197212879000,4.128879150390625,1.3349369368851185,-0.389500837367773,0.6651834262453019
1782661197222950100,4.1389501953125,1.006343864944577,-0.5245686485052109,0.45939431167468425
1782661197233020200,4.149020263671875,0.7722527849972247,-0.6375484734099358,0.25313933315798637
1782661197243091200,4.15909130859375,0.6293962196797133,-0.7674892969224602,0.09189341692999005
1782661197253161200,4.1691611328125,0.5695557912230491,-0.913580898638442,-0.03399213984236121
1782661197263232300,4.179232177734375,0.5973609129935503,-1.113089836961031,-0.12530746462345121
1782661197273303300,4.18930322265625,0.6341209101140499,-1.280939243107289,-0.19363412800505755
1782661197283373000,4.199373046875,0.5509504594743252,-1.3008967201173305,-0.23161752944067118
1782661197293444000,4.209444091796875,0.27643150754868984,-1.1654453164897858,-0.24860534299015996
1782661197303515100,4.21951513671875,0.021353753674030303,-1.0537934522531927,-0.20083529155552385
1782661197313585400,4.22958544921875,-0.17839724977612495,-0.9739822489134967,-0.08720262876525521
1782661197323656200,4.23965625,-0.4075274924457073,-1.029555740640685,-0.09772913734614848
1782661197333727200,4.249727294921875,-0.7243710898816585,-1.1077362009733915,-0.201655668027699
1782661197343797200,4.25979736328125,-1.081360235223174,-1.1361300093520432,-0.2885074375286698
1782661197353868300,4.269868408203125,-1.4239999526947735,-1.1166207875661551,-0.24663521196097135
1782661197363939300,4.279939208984375,-1.6988403916597365,-1.081701596006751,-0.15219298733100295
1782661197374009000,4.290009033203125,-1.9295599493473767,-1.029470838836208,-0.13338716457411645
1782661197384080100,4.300080078125,-2.1427736609607932,-0.9492565345883369,-0.15822437644973397
1782661197394151200,4.310151123046875,-2.254015775352716,-0.8074529854550957,-0.20911445960104463
1782661197404221200,4.32022119140625,-2.2040689644008875,-0.6838290900044143,-0.3087026688173413
1782661197414292200,4.330292236328125,-1.966751323622465,-0.6522850009012967,-0.4033122128382325
1782661197424363300,4.34036328125,-1.5322136591762303,-0.782746706482768,-0.5585147572487592
1782661197434433300,4.350433349609375,-1.1136942325949668,-0.960700377209857,-0.7634241663753986
1782661197444504300,4.36050439453125,-0.6949632090896367,-1.1855913748744875,-1.1319643410399556
1782661197454575000,4.3705751953125,-0.29851766715049743,-1.4244050263643264,-1.4834411527007818
1782661197464645000,4.38064501953125,0.12754326085150242,-1.5309464157193897,-1.7581795925959944
1782661197474716200,4.390716064453125,0.6455640951484442,-1.4382596564546226,-1.8189385972023009
1782661197484786200,4.4007861328125,1.0120260022342205,-1.2493532876238227,-1.6877917589008806
1782661197494857000,4.41085693359375,0.8859563210666179,-0.9089365799639374,-1.234564883814752
1782661197504928000,4.420927978515625,0.4159229803472757,-0.4217859540965408,-0.4752680265024304
1782661197514998300,4.430998291015625,-0.06104278998374939,0.03708491822592914,0.3560924887627363
1782661197525069300,4.4410693359375,-0.5760422306329012,0.5810478569004685,1.1545429603338242
1782661197535140400,4.451140380859375,-1.2691957599520682,1.2140134594995529,1.8671306734412907
1782661197545210000,4.461210205078125,-1.9891531250447034,1.6520052829876541,2.3852210658431052
1782661197555281200,4.47128125,-2.6220669974565505,1.8198507436111568,2.5044667462095616
1782661197565352200,4.481352294921875,-3.199545982894301,1.9891437726944683,2.384917114460468
1782661197575422000,4.491421875,-3.49873292760849,2.0871330222815274,2.1374539272427557
1782661197585493000,4.501492919921875,-3.4758763681560754,2.043714151793718,1.8163000653922556
1782661197595564000,4.51156396484375,-2.9525241097033024,1.928279846408963,1.5256933174967764
1782661197605634000,4.521634033203125,-2.111949483630061,1.7918778640583157,1.2014885436430573
1782661197615705000,4.531705078125,-1.192443944182992,1.6807181672528384,0.8895265807688235
1782661197625776000,4.541776123046875,-0.27575053954720496,1.63263539660722,0.6219643161132932
1782661197635846100,4.55184619140625,0.5520563748896121,1.7740755192555486,0.46539895891696215
1782661197645917000,4.5619169921875,1.2616793929725885,1.7910984041184186,0.21214491333812474
1782661197655988000,4.571988037109375,1.922054688283801,1.2816915227793155,-0.4023740552052855
1782661197666058000,4.58205810546875,2.44776432351768,0.4199611498221755,-1.2824006939619779
1782661197676129000,4.59212890625,2.719391061133146,-0.5986695113740861,-2.2308099640712142
1782661197686199000,4.602198974609375,2.3975129766613246,-1.7179536729305982,-3.225212923592329
1782661197696270000,4.61227001953125,1.704548247912526,-2.6090415116667747,-4.025803329801559
1782661197706341000,4.622341064453125,0.9269920958101748,-2.8743349546074866,-4.373535986497998
1782661197716411100,4.6324111328125,0.17173019310235976,-2.6597552153378725,-4.1238796731501814
1782661197726482200,4.642482177734375,-0.5245476057171822,-2.1900667425334452,-3.4311621971607207
1782661197736553000,4.652552978515625,-1.2726549604952335,-1.4525363113492726,-2.4696061529695985
1782661197746623000,4.662623046875,-1.886391838750243,-0.6817704769741744,-1.4720634341180323
1782661197756694000,4.672694091796875,-2.174611399248242,0.1671115933910012,-0.4853909227184951
1782661197766765000,4.68276513671875,-2.0899229452610015,0.9809118289809673,0.37624373477920886
1782661197776835000,4.6928349609375,-1.7531582573026419,1.6684984448879956,1.0675433067947626
1782661197786906000,4.702906005859375,-1.244566930130124,2.07709444334805,1.5707222535297274
1782661197796977200,4.71297705078125,-0.5472065967708826,2.1391304821528494,1.8033214874841272
1782661197807047200,4.723047119140625,0.2852911058306694,1.9186990942455826,1.738011103183776
1782661197817118200,4.7331181640625,1.0701070198029279,1.485448985391855,1.50838883921355
1782661197827189000,4.74318896484375,1.7407862669855356,1.0290475719228387,1.2190366214238106
1782661197837259000,4.753259033203125,2.296868828651309,0.5690852511018514,0.9995055433571338
1782661197847330000,4.763330078125,2.6805051578998564,0.2049962106272578,0.7796599925138056
1782661197857400000,4.773400146484375,2.947514757108688,-0.1485337341710925,0.5729090471737086
1782661197867471000,4.78347119140625,3.0683494602322576,-0.31420170462504027,0.4203028028666973
1782661197877542100,4.793542236328125,3.0650878280878064,-0.24680413878709076,0.3753272044561803
1782661197887612200,4.803612060546875,3.00113002744019,-0.03415639049336314,0.3906035379126668
1782661197897683200,4.81368310546875,2.9144062682330607,0.05518968004137277,0.41157326070517297
1782661197907754000,4.82375390625,2.8243302759885784,0.06959536814317106,0.3927434725508094
1782661197917824000,4.833823974609375,2.626116565108299,0.03435278984829783,0.4015272291176021
1782661197927895000,4.84389501953125,2.274684469372034,-0.11001257259696721,0.342055195581913
1782661197937966000,4.853966064453125,1.7208377039343117,-0.3462798275396228,0.13002689436078071
1782661197948035800,4.864035888671875,1.1672539733469485,-0.5614307908259332,-0.14461846042349935
1782661197958107000,4.87410693359375,0.7083826626330614,-0.7516879897437989,-0.37327597101479765
1782661197968178000,4.884177978515625,0.47555590353310107,-0.8619305717043578,-0.4197925152570009
1782661197978248200,4.894248291015625,0.3176023068487644,-0.8836474596023559,-0.27882351725175974
1782661197988319200,4.9043193359375,0.2280120522946119,-0.8031905057050287,0.041565936097502705
1782661197998390000,4.91439013671875,0.039711248141527176,-0.6215693254463375,0.3861358909793198
1782661198008460000,4.9244599609375,-0.18651392073631284,-0.4888359486058354,0.5638580179728567
1782661198018531000,4.934531005859375,-0.37091421031951904,-0.4144922168917954,0.5483388156712055
1782661198028601000,4.94460107421875,-0.4820452655524015,-0.3760587336011231,0.46244288559034463
1782661198038672000,4.954671875,-0.3969336177170276,-0.5820116604313254,0.31360198516622184
1782661198048743000,4.964742919921875,-0.21393267353773116,-0.998962522521615,0.12851707431972026
1782661198058813200,4.974813232421875,-0.2127197906166315,-1.412601337454468,-0.0952029798693955
1782661198068884200,4.98488427734375,-0.35261049186587334,-1.7047005158647894,-0.3063363780774176
1782661198078955000,4.994955078125,-0.6044131695926189,-1.976002697701007,-0.5836440839387476
1782661198089025000,5.00502490234375,-0.9547253213882446,-2.154173006853461,-0.9120816730566322
1782661198099096000,5.015095947265625,-1.2837205443888902,-2.2487756827421483,-1.3443803264044225
1782661198109167000,5.0251669921875,-1.4803823496520518,-2.397980009651184,-1.782420738274604
1782661198119236900,5.03523681640625,-1.5617846215754747,-2.6585069688424467,-2.223634227222949
1782661198129308000,5.045307861328125,-1.4556331083208323,-2.824598279275,-2.64442905139029
1782661198139379000,5.05537890625,-0.9347200597137212,-2.7534271862477064,-2.7534458909481763
1782661198149449200,5.06544921875,-0.322491247934103,-2.2238598526723683,-2.1063234604418275
1782661198159520300,5.075520263671875,-0.19948796859979628,-1.0824319561079143,-0.8381596738860011
1782661198169591000,5.085591064453125,-0.44467268949151034,0.20427125735357402,0.3357670552231371
1782661198179661000,5.0956611328125,-0.7341442958772182,1.1305267094522713,1.1117436830490828
1782661198189732000,5.105732177734375,-0.6909872911959886,1.6636933826938272,1.4633692555308342
1782661198199802000,5.115802001953125,-0.45494098552763457,1.8812208658531306,1.5606303369738161
1782661198209873000,5.125872802734375,-0.3592109130442142,1.7990012861974536,1.4348511631853877
1782661198219944000,5.13594384765625,-0.3132411890298128,1.7485417034178972,1.1541712044119834
1782661198230014200,5.14601416015625,-0.24635902536809443,1.8332668361537157,0.8998787556961179
1782661198240085200,5.156085205078125,-0.03191197256743908,1.8618277447275817,0.6177398302860557
1782661198250156300,5.16615625,0.17506196787357328,1.7649603387773036,0.2949808713264763
1782661198260226000,5.17622607421875,0.2636743173062801,1.5405867891155183,-0.09163914990797638
1782661198270297000,5.186297119140625,0.22406477597355842,1.29097563008368,-0.6052887833833694
1782661198280368000,5.1963681640625,0.1415472362846136,1.2192413502156734,-1.1071131006389856
1782661198290438000,5.20643798828125,0.03696048812866211,1.306363753351569,-1.3467974705487489
1782661198300509000,5.216509033203125,-0.03787468036413193,1.5220266116827725,-1.27953390635401
1782661198310580000,5.226580078125,0.19586919358074664,1.6930498255595563,-0.9115016812115907
1782661198320650000,5.23664990234375,0.7074298919528722,1.6043017209179697,-0.45050665634199977
1782661198330721000,5.246720947265625,0.9012468291789293,1.4090462753213941,-0.12133446933925152
1782661198340791000,5.256791015625,0.83113985825181,1.2414191336236893,0.08223828435614705
1782661198350862000,5.266862060546875,0.8685118497908115,1.1686145941756665,0.15272899390384553
1782661198360933000,5.27693310546875,0.9508283139497041,1.0990889302678406,0.23023308934494852
1782661198371003100,5.287003173828125,0.9639823945552111,0.9408329896360635,0.2925619736164808
1782661198381074000,5.297073974609375,0.8183844215750694,0.8686911518804729,0.35684155356436964
1782661198391145000,5.30714501953125,0.5268763409256935,0.8996595599874854,0.4464337078146636
1782661198401214200,5.317214111328125,0.23837036470174788,0.9523127072885632,0.4447818489544093
1782661198411285200,5.32728515625,-0.10551146178543568,0.947296340431273,0.4002567707903683
1782661198421356000,5.33735595703125,-0.6207400350153446,0.8562946116439998,0.32747473543509836
1782661198431426000,5.347426025390625,-1.0373930832028389,0.6514774108454585,0.17730740871280432
1782661198441497000,5.3574970703125,-1.2292641470581291,0.4330430419743061,-0.02023687847331166
1782661198451568000,5.367568115234375,-1.2167138775646686,0.31188933602944013,-0.1233968086965382
1782661198461638000,5.377637939453125,-1.0254285046428442,0.23810133850201962,-0.11014628197923303
1782661198471709000,5.387708984375,-0.7524655499875545,0.21925284564718603,0.03265036984458566
1782661198481780000,5.397780029296875,-0.4656716383785009,0.2642465642362833,0.2795991777993738
1782661198491850200,5.407850341796875,-0.09784545720219612,0.25762232379093764,0.5253155213497579
1782661198501921000,5.417921142578125,0.38190906706452366,0.1470046249076724,0.6780822169154882
1782661198511992000,5.427991943359375,0.7960439949512481,-0.0224595229588449,0.7275459205254912
1782661198522062000,5.43806201171875,1.010935868909955,-0.2227361577183008,0.7024938968554139
1782661198532133000,5.448133056640625,1.1060393339276313,-0.36417196951769293,0.6529711565345525
1782661198542203000,5.458202880859375,1.0925859781146048,-0.463479242900759,0.5380307721465826
1782661198552274000,5.46827392578125,1.0415373434007167,-0.6526186167698353,0.44518210031837224
1782661198562345000,5.478344970703125,0.90878014729321,-0.8108915085364132,0.33758374925628304
1782661198572415000,5.4884150390625,0.7170645662605762,-0.9458656500410288,0.2688020355835557
1782661198582486000,5.498486083984375,0.5291647441238164,-1.0346234723590313,0.19235738606750963
1782661198592557000,5.50855712890625,0.44742637211382386,-1.1622916016992182,0.11988470892235636
1782661198602627000,5.518626953125,0.4398082983255386,-1.2712835260115563,0.08322334987074136
1782661198612698000,5.528697998046875,0.38440322196781634,-1.370253457199037,0.09685834586098789
1782661198622769000,5.538768798828125,0.26811785271167754,-1.3599945135131477,0.020906302167475223
1782661198632839000,5.5488388671875,0.13415478794574737,-1.265363634443283,-0.05314180760085582
1782661198642910000,5.558909912109375,-0.011735445979237556,-1.1379891542874276,-0.04158507918938994
1782661198652980000,5.56897998046875,-0.10963467919528484,-1.0033017207697033,0.04616349302083254
1782661198663051000,5.579051025390625,-0.2205839481204748,-0.9369036873631179,0.12849997705444693
1782661198673122000,5.5891220703125,-0.3417272788017988,-0.9189811502467841,0.15759513863548635
1782661198683192000,5.599192138671875,-0.34611353106200693,-0.955782136964798,0.11051672272682189
1782661198693263000,5.60926318359375,-0.22604747422337532,-0.9917471843153238,0.02302066397294402
1782661198703334000,5.619333984375,-0.22431962751746176,-1.0055180816449225,-0.0592950695335865
1782661198713404000,5.62940380859375,-0.4265560180425644,-0.9337289297845214,-0.02474924133121967
1782661198723475000,5.639474853515625,-0.8063584682166576,-0.8351414220433682,0.07547171283066273
1782661198733546000,5.6495458984375,-1.1695593276798724,-0.7010140335611998,0.1535239436738193
1782661198743615700,5.65961572265625,-1.412268598368764,-0.5727922889262438,0.09241466432511806
1782661198753686800,5.669686767578125,-1.4508505502194164,-0.5254476963620632,-0.05303747044354677
1782661198763757000,5.679757080078125,-1.4510563019245861,-0.44016712170057,-0.17137582670673726
1782661198773828000,5.689828125,-1.5663696112781762,-0.2902228631444275,-0.2813954135663807
1782661198783899100,5.699899169921875,-1.694285212573409,-0.11469875765182078,-0.29881518879234786
1782661198793971000,5.709970947265625,-1.5444202297985552,-0.02642864578552544,-0.24859087607339023
1782661198804042000,5.7200419921875,-1.040607953596115,-0.10092391479946672,-0.24674510207623243
1782661198814112000,5.730112060546875,-0.4935100778967142,-0.19192849313095212,-0.23304756224378942
1782661198824183000,5.74018310546875,-0.7463122880548239,-0.17233933797664938,-0.2876145803421736
1782661198834254000,5.750254150390625,0.09353577730953692,-0.5197982922982424,-0.34481969185918565
1782661198844323800,5.76032373046875,0.2162964800596237,-0.6268688200939446,-0.28430779388174415
1782661198854395000,5.770394775390625,-0.41558571121692656,-0.2697752645298838,-0.36876024715602396
1782661198864466000,5.7804658203125,-1.0248790540665387,0.15203165928944945,-0.5479623835742473
1782661198874536000,5.790535888671875,-1.7221061164349316,0.3427576447628438,-0.8062351340979337
1782661198884607000,5.80060693359375,-2.2303613435208796,0.3936811187271029,-0.9807054196886718
1782661198894677000,5.810677001953125,-2.2655109828352926,0.5407791940718889,-1.0490047566719352
1782661198904748000,5.820748046875,-1.9359926127433775,0.910140110534802,-0.7806896278224885
1782661198914819000,5.830819091796875,-1.5670289519697427,1.3341773506894707,-0.2343814411960542
1782661198924889000,5.84088916015625,-1.2710843501776456,1.6775383681729434,0.1930782476879656
1782661198934959900,5.8509599609375,-0.11683598887622355,1.719408547914028,0.5143171574734151
