time,seconds_elapsed,z,y,x
1782661193164468200,0.08046826171875,0.11508280038833618,0.07459776848554611,0.13891571760177612
1782661193174538200,0.090538330078125,0.11097460985183716,0.09347851574420929,0.108624666929245
1782661193184609300,0.100609375,0.11635465174913406,0.10437694191932678,0.06592697650194168
1782661193194680300,0.110680419921875,0.1260533481836319,0.08287537842988968,0.015775660052895546
1782661193204750000,0.12075,0.13988986611366272,0.04562775418162346,-0.0514092780649662
1782661193214821000,0.130821044921875,0.15924838185310364,0.0011638812720775604,-0.11783464252948761
1782661193224892200,0.14089208984375,0.178049236536026,-0.04650430381298065,-0.1869545876979828
1782661193234963200,0.150963134765625,0.1966000199317932,-0.08212301880121231,-0.2463630586862564
1782661193245033200,0.161033203125,0.22442112863063812,-0.08453527837991714,-0.2913993299007416
1782661193255104000,0.17110400390625,0.25762274861335754,-0.07303468137979507,-0.3181028366088867
1782661193265175000,0.181175048828125,0.28349313139915466,-0.06296350061893463,-0.33189857006073
1782661193275245300,0.191245361328125,0.30542343854904175,-0.03248042240738869,-0.323752224445343
1782661193285316400,0.20131640625,0.33007699251174927,-0.0033795004710555077,-0.30819839239120483
1782661193295387400,0.211387451171875,0.36076217889785767,0.0027284594252705574,-0.29165562987327576
1782661193305457200,0.22145703125,0.38774535059928894,-0.012161331251263618,-0.2648158371448517
1782661193315528200,0.231528076171875,0.4076274335384369,-0.04491768032312393,-0.21419288218021393
1782661193325599200,0.24159912109375,0.43276143074035645,-0.0350421741604805,-0.14317482709884644
1782661193335669200,0.251669189453125,0.4598684012889862,-0.009488344192504883,-0.07541494816541672
1782661193345740000,0.261739990234375,0.48831385374069214,0.002313307486474514,-0.0392872616648674
1782661193355811000,0.27181103515625,0.5194821357727051,0.0030350240413099527,-0.05026853829622269
1782661193365882000,0.281882080078125,0.5332204699516296,0.0020331700798124075,-0.09149143099784851
1782661193375952100,0.2919521484375,0.5127431154251099,0.0005599092692136765,-0.14246486127376556
1782661193386023200,0.302023193359375,0.43783679604530334,-0.019027229398489,-0.18401511013507843
1782661193396094200,0.31209423828125,0.33076679706573486,-0.05097503960132599,-0.21237298846244812
1782661193406164200,0.322164306640625,0.22071906924247742,-0.10397794842720032,-0.2300264984369278
1782661193416235300,0.3322353515625,0.12555581331253052,-0.16155949234962463,-0.2325647622346878
1782661193426306300,0.342306396484375,0.049144722521305084,-0.1893601417541504,-0.21886268258094788
1782661193436376000,0.3523759765625,-0.00044946151319891214,-0.19377832114696503,-0.18064871430397034
1782661193446447000,0.362447021484375,-0.03496655821800232,-0.18548926711082458,-0.11808112263679504
1782661193456518100,0.37251806640625,-0.04856305941939354,-0.16470782458782196,-0.03335079178214073
1782661193466588200,0.382588134765625,-0.061782192438840866,-0.12566247582435608,0.04897647351026535
1782661193476659200,0.3926591796875,-0.07361780852079391,-0.08839578926563263,0.11563006788492203
1782661193486730000,0.40272998046875,-0.08487439155578613,-0.07257721573114395,0.14787568151950836
1782661193496800300,0.41280029296875,-0.10196816176176071,-0.06135678291320801,0.14757394790649414
1782661193506871300,0.422871337890625,-0.11123203486204147,-0.07551109790802002,0.12594060599803925
1782661193516942300,0.4329423828125,-0.11206293851137161,-0.09882334619760513,0.11110279709100723
1782661193527013000,0.44301318359375,-0.11514994502067566,-0.11500409245491028,0.10151570290327072
1782661193537083100,0.453083251953125,-0.12194287031888962,-0.13239772617816925,0.09270143508911133
1782661193547154200,0.463154296875,-0.13765577971935272,-0.15910327434539795,0.08064500242471695
1782661193557225200,0.47322509765625,-0.15488722920417786,-0.17416132986545563,0.06502556055784225
1782661193567295200,0.483295166015625,-0.1801067739725113,-0.16743811964988708,0.04897015541791916
1782661193577366300,0.4933662109375,-0.21191717684268951,-0.13127665221691132,0.044621746987104416
1782661193587437300,0.503437255859375,-0.2452865093946457,-0.06989161670207977,0.06402439624071121
1782661193597507300,0.51350732421875,-0.2622053027153015,-0.018300596624612808,0.09427018463611603
1782661193607578400,0.523578369140625,-0.2645798325538635,0.0010943147353827953,0.12381836771965027
1782661193617649400,0.5336494140625,-0.2530826926231384,0.006019564811140299,0.15037965774536133
1782661193627720400,0.543720458984375,-0.239252969622612,0.011864734813570976,0.16968858242034912
1782661193637790200,0.553790283203125,-0.22855904698371887,0.010199726559221745,0.17395444214344025
1782661193647861200,0.563861328125,-0.21982376277446747,0.01360407192260027,0.16222579777240753
1782661193657932300,0.573932373046875,-0.2081412672996521,0.014825398102402687,0.12757354974746704
1782661193668002300,0.584002197265625,-0.19586436450481415,0.009638474322855473,0.07692601531744003
1782661193678073300,0.5940732421875,-0.17967873811721802,-0.0017004667315632105,0.008022049441933632
1782661193688144100,0.60414404296875,-0.1602403223514557,-0.02279941737651825,-0.07097034156322479
1782661193698214400,0.61421435546875,-0.14148208498954773,-0.05227635055780411,-0.14175795018672943
1782661193708285400,0.624285400390625,-0.12366306036710739,-0.06090101972222328,-0.18689808249473572
1782661193718356500,0.6343564453125,-0.11248470842838287,-0.056527573615312576,-0.19512085616588593
1782661193728426200,0.64442626953125,-0.09939940273761749,-0.05188160762190819,-0.19027309119701385
1782661193738497300,0.654497314453125,-0.08903864026069641,-0.03385733440518379,-0.16365107893943787
1782661193748568300,0.664568359375,-0.08124763518571854,-0.007999138906598091,-0.13847436010837555
1782661193758639400,0.674639404296875,-0.0743175595998764,0.0094019565731287,-0.11830571293830872
1782661193768709400,0.68470947265625,-0.0657404437661171,0.00544116273522377,-0.10434368252754211
1782661193778780200,0.6947802734375,-0.0587959811091423,-0.0159837007522583,-0.090624138712883
1782661193788851200,0.704851318359375,-0.06447284668684006,-0.024228140711784363,-0.07626848667860031
1782661193798921500,0.71492138671875,-0.0775686725974083,-0.01482878066599369,-0.05743807554244995
1782661193808992500,0.724992431640625,-0.10111528635025024,-0.008607257157564163,-0.029576150700449944
1782661193819063300,0.735063232421875,-0.12030709534883499,-0.004684953019022942,0.00021743105025961995
1782661193829133300,0.74513330078125,-0.1271115392446518,-0.0024160281755030155,0.03096190094947815
1782661193839204400,0.755204345703125,-0.12441828101873398,-0.019651740789413452,0.05407734215259552
1782661193849275400,0.765275390625,-0.11223378032445908,-0.04696091637015343,0.05923844873905182
1782661193859345200,0.77534521484375,-0.0993022695183754,-0.05957924202084541,0.06302812695503235
1782661193869416200,0.785416259765625,-0.08515568822622299,-0.05545813962817192,0.05424250662326813
1782661193879487200,0.7954873046875,-0.07757154107093811,-0.03583916276693344,0.05315593630075455
1782661193889558300,0.805558349609375,-0.07359004020690918,-0.022246990352869034,0.04910692572593689
1782661193899628300,0.815628173828125,-0.06866798549890518,-0.01650175079703331,0.044445060193538666
1782661193909699300,0.82569921875,-0.0599052757024765,-0.015490073710680008,0.03903879597783089
1782661193919770400,0.835770263671875,-0.04498997703194618,-0.019097859039902687,0.027170417830348015
1782661193929840400,0.84584033203125,-0.0293890330940485,-0.029041187837719917,0.0034481948241591454
1782661193939911400,0.855911376953125,-0.011587399058043957,-0.04272744059562683,-0.030027206987142563
1782661193949982500,0.865982421875,0.005986807402223349,-0.05797148495912552,-0.06543626636266708
1782661193960052200,0.87605224609375,0.028591718524694443,-0.07740377634763718,-0.09479787945747375
1782661193970123300,0.886123291015625,0.05635889619588852,-0.10503848642110825,-0.11376018822193146
1782661193980194300,0.8961943359375,0.08884759992361069,-0.1340932995080948,-0.1228727251291275
1782661193990264300,0.906264404296875,0.11263055354356766,-0.15433461964130402,-0.10710076987743378
1782661194000335000,0.916335205078125,0.12110499292612076,-0.1744404286146164,-0.08464580029249191
1782661194010406100,0.92640625,0.11143767088651657,-0.18865995109081268,-0.06437177956104279
1782661194020477200,0.936477294921875,0.08799279481172562,-0.18510089814662933,-0.02810884639620781
1782661194030547500,0.94654736328125,0.05867630988359451,-0.15548209846019745,0.020531881600618362
1782661194040618500,0.956618408203125,0.029155436903238297,-0.1288835108280182,0.060440946370363235
1782661194050689300,0.966689208984375,-0.0030694138258695602,-0.12134632468223572,0.07581498473882675
1782661194060759300,0.97675927734375,-0.03416954353451729,-0.1359071433544159,0.07173927873373032
1782661194070830300,0.986830322265625,-0.06763768196105957,-0.14081400632858276,0.056056488305330276
1782661194080901400,0.9969013671875,-0.08051352947950363,-0.13564613461494446,0.04619293659925461
1782661194090971100,1.00697119140625,-0.05673549324274063,-0.12988927960395813,0.0325927697122097
1782661194101042200,1.017042236328125,-0.010837510228157043,-0.14171478152275085,0.013035312294960022
1782661194111113200,1.02711328125,0.03869493678212166,-0.19510193169116974,-0.014929281547665596
1782661194121183500,1.03718359375,0.0950106754899025,-0.2813279330730438,-0.03795204311609268
1782661194131254300,1.047254150390625,0.16887004673480988,-0.37554752826690674,-0.04477786645293236
1782661194141325300,1.0573251953125,0.24741359055042267,-0.4589446783065796,-0.037056028842926025
1782661194151396400,1.067396240234375,0.30519527196884155,-0.5033080577850342,-0.019976597279310226
1782661194161466400,1.07746630859375,0.34006136655807495,-0.4928216338157654,0.0006916626007296145
1782661194171537400,1.087537353515625,0.3488921523094177,-0.42339229583740234,0.02245052345097065
1782661194181608200,1.097608154296875,0.34103822708129883,-0.30666089057922363,0.04693642631173134
1782661194191678200,1.10767822265625,0.3293054699897766,-0.1686394363641739,0.06031300500035286
1782661194201749200,1.117749267578125,0.30687472224235535,-0.037757329642772675,0.04429861903190613
1782661194211820300,1.1278203125,0.2759089469909668,0.05848502367734909,-0.0013281680876389146
1782661194221890300,1.137890380859375,0.23940713703632355,0.11281324177980423,-0.08188080042600632
1782661194231961300,1.14796142578125,0.21405191719532013,0.11559278517961502,-0.18669553101062775
1782661194242032400,1.158032470703125,0.1956276297569275,0.059114061295986176,-0.2923862636089325
1782661194252102400,1.168102294921875,0.19974614679813385,-0.00045043625868856907,-0.35164445638656616
1782661194262173400,1.17817333984375,0.21838082373142242,-0.034453943371772766,-0.35223060846328735
1782661194272244200,1.188244140625,0.2383708357810974,-0.061675094068050385,-0.2985374331474304
1782661194282314200,1.198314208984375,0.2489989697933197,-0.08163627982139587,-0.21694350242614746
1782661194292385300,1.20838525390625,0.23061858117580414,-0.08756855875253677,-0.1390102207660675
1782661194302456300,1.218456298828125,0.1524132490158081,-0.0759582445025444,-0.10514838993549347
1782661194312527400,1.22852734375,0.03259750455617905,-0.07316494733095169,-0.11014129966497421
1782661194322597400,1.238597412109375,-0.0958574116230011,-0.09103555977344513,-0.13267670571804047
1782661194332668400,1.24866845703125,-0.20472058653831482,-0.11394009739160538,-0.12074683606624603
1782661194342739500,1.258739501953125,-0.28561145067214966,-0.13526880741119385,-0.07675407826900482
1782661194352809200,1.268809326171875,-0.32828885316848755,-0.12291515618562698,-0.01556971576064825
1782661194362880300,1.27888037109375,-0.3313586711883545,-0.09616237133741379,0.04980636015534401
1782661194372951300,1.288951416015625,-0.30404797196388245,-0.06577636301517487,0.07456743717193604
1782661194383021300,1.299021240234375,-0.24932852387428284,-0.04498159885406494,0.04415467008948326
1782661194393092400,1.30909228515625,-0.18719451129436493,-0.01799643784761429,-0.03141629695892334
1782661194403163100,1.3191630859375,-0.13480401039123535,0.019683562219142914,-0.1267758309841156
1782661194413233400,1.3292333984375,-0.10191430151462555,0.04744553565979004,-0.20082712173461914
1782661194423304200,1.33930419921875,-0.09244436770677567,0.06824988126754761,-0.25354519486427307
1782661194433375200,1.349375244140625,-0.1025291159749031,0.0970897451043129,-0.2718296945095062
1782661194443445200,1.3594453125,-0.13305452466011047,0.1331300437450409,-0.26190730929374695
1782661194453516300,1.369516357421875,-0.169256329536438,0.1622975468635559,-0.23869913816452026
1782661194463587300,1.37958740234375,-0.19790342450141907,0.17628048360347748,-0.20940808951854706
1782661194473657300,1.3896572265625,-0.21035295724868774,0.17436133325099945,-0.19941523671150208
1782661194483728400,1.399728271484375,-0.20554116368293762,0.15602333843708038,-0.19884265959262848
1782661194493799200,1.409799072265625,-0.17287009954452515,0.12546133995056152,-0.20858116447925568
1782661194503870200,1.4198701171875,-0.13104648888111115,0.07966881990432739,-0.2208423614501953
1782661194513940200,1.429940185546875,-0.07949715107679367,0.027534741908311844,-0.22482874989509583
1782661194524011300,1.44001123046875,-0.0381997786462307,-0.009894388727843761,-0.211496964097023
1782661194534082300,1.450082275390625,-0.00665197754278779,-0.045523691922426224,-0.1831701695919037
1782661194544152300,1.46015234375,0.023109646514058113,-0.07241789251565933,-0.1472872644662857
1782661194554223400,1.470223388671875,0.04248153045773506,-0.08110164105892181,-0.11227001249790192
1782661194564294400,1.48029443359375,0.05287478491663933,-0.0799918994307518,-0.08418937772512436
1782661194574364200,1.4903642578125,0.05738760158419609,-0.06700410693883896,-0.07124747335910797
1782661194584435200,1.500435302734375,0.05581367388367653,-0.05514158681035042,-0.06987248361110687
1782661194594506200,1.51050634765625,0.04959285259246826,-0.06566532701253891,-0.07052693516016006
1782661194604576000,1.520575927734375,0.0512155145406723,-0.08315856754779816,-0.07138153910636902
1782661194614647000,1.53064697265625,0.05453941226005554,-0.08813101798295975,-0.07155127823352814
1782661194624718000,1.540718017578125,0.04816140979528427,-0.07674308121204376,-0.0700247585773468
1782661194634788400,1.550788330078125,0.03326287120580673,-0.04071510583162308,-0.06295989453792572
1782661194644859100,1.560859130859375,0.01759709231555462,0.0142139233648777,-0.052520036697387695
1782661194654930200,1.57093017578125,0.001475788652896881,0.04121534898877144,-0.034508295357227325
1782661194665000200,1.581000244140625,-0.017030516639351845,0.03152516856789589,-0.022270269691944122
1782661194675071200,1.5910712890625,-0.02610064670443535,0.009157962165772915,-0.004621012136340141
1782661194685142300,1.601142333984375,-0.029270339757204056,-0.020955199375748634,0.020757049322128296
1782661194695212000,1.6112119140625,-0.04561496526002884,-0.07202816754579544,0.05254969745874405
1782661194705283000,1.621282958984375,-0.06811894476413727,-0.12310280650854111,0.08362000435590744
1782661194715354000,1.63135400390625,-0.08038271963596344,-0.14255750179290771,0.1279570311307907
1782661194725425200,1.641425048828125,-0.08881668001413345,-0.1404208540916443,0.17027679085731506
1782661194735495200,1.6514951171875,-0.10817361623048782,-0.15822795033454895,0.20384320616722107
1782661194745566200,1.661566162109375,-0.14597398042678833,-0.19119708240032196,0.21366281807422638
1782661194755637200,1.67163720703125,-0.19598449766635895,-0.23501282930374146,0.19566157460212708
1782661194765707300,1.681707275390625,-0.2451256662607193,-0.2700626850128174,0.15836773812770844
1782661194775778300,1.6917783203125,-0.2883028984069824,-0.26443347334861755,0.10870124399662018
1782661194785849000,1.70184912109375,-0.32394692301750183,-0.22060690820217133,0.050187334418296814
1782661194795919000,1.711919189453125,-0.3528786897659302,-0.16029894351959229,-0.004847885109484196
1782661194805990100,1.721990234375,-0.3753379285335541,-0.0948357954621315,-0.044542569667100906
1782661194816061200,1.732061279296875,-0.39750128984451294,-0.026660805568099022,-0.056362979114055634
1782661194826131200,1.742131103515625,-0.4185464084148407,0.043365418910980225,-0.05145770311355591
1782661194836202200,1.7522021484375,-0.4471628963947296,0.11673511564731598,-0.032247066497802734
1782661194846273300,1.762273193359375,-0.4759516716003418,0.16584885120391846,-0.003810631576925516
1782661194856343300,1.77234326171875,-0.4909260869026184,0.18914778530597687,0.03677354380488396
1782661194866414000,1.7824140625,-0.4900839924812317,0.19594790041446686,0.09579984843730927
1782661194876485000,1.792485107421875,-0.4630601108074188,0.1694643199443817,0.1607908457517624
1782661194886555100,1.80255517578125,-0.4212239980697632,0.14191313087940216,0.2303837686777115
1782661194896626200,1.812626220703125,-0.3777698576450348,0.13394753634929657,0.30091822147369385
1782661194906697200,1.822697265625,-0.346558153629303,0.15028336644172668,0.3622779846191406
1782661194916767200,1.832767333984375,-0.32831859588623047,0.1836126744747162,0.4171821177005768
1782661194926838300,1.84283837890625,-0.31019338965415955,0.21875175833702087,0.4670332968235016
1782661194936909300,1.852909423828125,-0.28599342703819275,0.25461748242378235,0.5158089399337769
1782661194946979300,1.862979248046875,-0.2647097110748291,0.2858062982559204,0.5695014595985413
1782661194957050000,1.873050048828125,-0.2584327757358551,0.29595857858657837,0.6250929832458496
1782661194967121200,1.88312109375,-0.257729172706604,0.28031009435653687,0.67048180103302
1782661194977191200,1.893191162109375,-0.2579936981201172,0.2587100565433502,0.6862128973007202
1782661194987262200,1.90326220703125,-0.2638816833496094,0.21808727085590363,0.6748059988021851
1782661194997333200,1.913333251953125,-0.26849719882011414,0.1560571789741516,0.6274725794792175
1782661195007404000,1.923404052734375,-0.2600709795951843,0.08601684868335724,0.5618240833282471
1782661195017474000,1.93347412109375,-0.25530675053596497,0.006826492957770824,0.4778110384941101
1782661195027545000,1.943545166015625,-0.26423072814941406,-0.062283337116241455,0.38498976826667786
1782661195037615000,1.953614990234375,-0.2953866422176361,-0.1241665855050087,0.2832598090171814
1782661195047686100,1.96368603515625,-0.3338125944137573,-0.18179525434970856,0.17062169313430786
1782661195057757200,1.973757080078125,-0.3654288053512573,-0.24527379870414734,0.048279691487550735
1782661195067828200,1.983828125,-0.3863180875778198,-0.2881472408771515,-0.08603524416685104
1782661195077898200,1.993898193359375,-0.400235116481781,-0.2893158793449402,-0.21385037899017334
1782661195087969000,2.003968994140625,-0.4172484576702118,-0.24435000121593475,-0.32433879375457764
1782661195098040000,2.0140400390625,-0.4442620575428009,-0.1612611711025238,-0.4055995047092438
1782661195108110000,2.024110107421875,-0.48685210943222046,-0.02143934741616249,-0.43492013216018677
1782661195118181000,2.03418115234375,-0.5353518128395081,0.16197198629379272,-0.3963182866573334
1782661195128252200,2.044252197265625,-0.5822284817695618,0.3534279763698578,-0.298469215631485
1782661195138322200,2.054322265625,-0.6065090894699097,0.49382343888282776,-0.17040444910526276
1782661195148393200,2.064393310546875,-0.6030059456825256,0.5474288463592529,-0.03941500559449196
1782661195158464300,2.07446435546875,-0.5841206908226013,0.5351688861846924,0.07403051853179932
1782661195168534300,2.0845341796875,-0.5532701015472412,0.5128211975097656,0.16132520139217377
1782661195178605000,2.09460498046875,-0.5147592425346375,0.5031194686889648,0.21785244345664978
1782661195188676000,2.104676025390625,-0.46352267265319824,0.49262499809265137,0.23808954656124115
1782661195198746000,2.11474609375,-0.3937736749649048,0.45154207944869995,0.23164492845535278
1782661195208817200,2.124817138671875,-0.32015377283096313,0.3942963480949402,0.21182063221931458
1782661195218888200,2.13488818359375,-0.24007593095302582,0.3467625379562378,0.1867953985929489
1782661195228958200,2.144958251953125,-0.1498112827539444,0.29346656799316406,0.15993155539035797
1782661195239029200,2.155029296875,-0.05247461050748825,0.23167189955711365,0.13065595924854279
1782661195249100300,2.165100341796875,0.044075630605220795,0.1722724884748459,0.09600050747394562
1782661195259170300,2.17517041015625,0.1295454353094101,0.11858776211738586,0.0659950003027916
1782661195269241000,2.185240966796875,0.20058393478393555,0.05957397446036339,0.044272929430007935
1782661195279312100,2.19531201171875,0.2610047161579132,0.0024796805810183287,0.03060341440141201
1782661195289382100,2.205382080078125,0.31732553243637085,-0.03819318115711212,0.025469638407230377
1782661195299453200,2.215453125,0.36428630352020264,-0.05916161462664604,0.02259753830730915
1782661195309524200,2.225524169921875,0.40339377522468567,-0.06420590728521347,0.02591264247894287
1782661195319594200,2.23559423828125,0.44089746475219727,-0.05071638897061348,0.045178044587373734
1782661195329665300,2.245665283203125,0.4721304774284363,-0.047863878309726715,0.07730721682310104
1782661195339736300,2.255736328125,0.48399457335472107,-0.06744853407144547,0.11087078601121902
1782661195349806000,2.26580615234375,0.4880172908306122,-0.07187177985906601,0.1885349452495575
1782661195359877000,2.275877197265625,0.49427542090415955,-0.08795571327209473,0.35415440797805786
1782661195369948200,2.2859482421875,0.5066226124763489,-0.1420687437057495,0.5349885821342468
1782661195380018200,2.29601806640625,0.4911068081855774,-0.18643218278884888,0.6799534559249878
1782661195390089200,2.306089111328125,0.4912722110748291,-0.1989639550447464,0.7252402305603027
1782661195400160000,2.316159912109375,0.5402394533157349,-0.18248982727527618,0.6371464729309082
1782661195410230300,2.326230224609375,0.597621738910675,-0.15061232447624207,0.4820208251476288
1782661195420301300,2.33630126953125,0.632205069065094,-0.16255606710910797,0.37253668904304504
1782661195430372400,2.346372314453125,0.6496080160140991,-0.21780307590961456,0.37223494052886963
1782661195440442000,2.356442138671875,0.6498640179634094,-0.28854191303253174,0.48497655987739563
1782661195450513200,2.36651318359375,0.6301949620246887,-0.3620606064796448,0.6730554103851318
1782661195460584200,2.376584228515625,0.58110511302948,-0.40549972653388977,0.8911572098731995
1782661195470654200,2.386654296875,0.5123676061630249,-0.34961116313934326,1.0540907382965088
1782661195480725200,2.396725341796875,0.4225243926048279,-0.1422928273677826,1.0017890930175781
1782661195490796000,2.406796142578125,0.302330881357193,0.20427736639976501,0.6472275853157043
1782661195500866000,2.416865966796875,0.1938299536705017,0.5320028066635132,0.15496495366096497
1782661195510937000,2.42693701171875,0.18050909042358398,0.7419192790985107,-0.26334547996520996
1782661195521008000,2.437008056640625,0.2534480094909668,0.8983426690101624,-0.5509980916976929
1782661195531078100,2.447078125,0.3403914272785187,0.9764071106910706,-0.6777898669242859
1782661195541149200,2.457149169921875,0.42509767413139343,0.9576188921928406,-0.6674373745918274
1782661195551220200,2.46722021484375,0.5545283555984497,0.8290672898292542,-0.5298845767974854
1782661195561290200,2.477290283203125,0.742762565612793,0.629910409450531,-0.30726081132888794
1782661195571362000,2.487362060546875,0.950330376625061,0.407636821269989,-0.08610153943300247
1782661195581433000,2.49743310546875,1.1360156536102295,0.20777052640914917,0.06976352632045746
1782661195591504000,2.50750390625,1.2417035102844238,0.08506538718938828,0.15223443508148193
1782661195601574000,2.517573974609375,1.2400193214416504,0.007091895677149296,0.1963617503643036
1782661195611645000,2.52764501953125,1.1504279375076294,-0.006290754768997431,0.1885451078414917
1782661195621716000,2.537716064453125,0.9856808185577393,0.0060824439860880375,0.1539739966392517
1782661195631786000,2.547785888671875,0.7769379615783691,0.0376715287566185,0.12179209291934967
1782661195641857000,2.55785693359375,0.542381763458252,0.0778103917837143,0.12096656858921051
1782661195651928000,2.567927978515625,0.3615589439868927,0.08704996109008789,0.152446448802948
1782661195661998000,2.577998046875,0.2578129768371582,0.076406329870224,0.23868343234062195
1782661195672069000,2.588069091796875,0.19589155912399292,0.10253620147705078,0.32864049077033997
1782661195682140000,2.598139892578125,0.2027697116136551,0.11672286689281464,0.3905278444290161
1782661195692210000,2.6082099609375,0.269406259059906,0.11535000801086426,0.38639700412750244
1782661195702281000,2.618281005859375,0.3815756142139435,0.10226805508136749,0.2976015508174896
1782661195712352000,2.62835205078125,0.5260571837425232,0.09480614960193634,0.1400630623102188
1782661195722421800,2.638421875,0.6594005227088928,0.11028444766998291,-0.08426967263221741
1782661195732492800,2.648492919921875,0.742850661277771,0.08878102153539658,-0.3143249750137329
1782661195742563800,2.658563720703125,0.7314481139183044,-0.008839337155222893,-0.48990949988365173
1782661195752634000,2.668634033203125,0.6709099411964417,-0.14078645408153534,-0.6107917428016663
1782661195762705200,2.678705078125,0.5907384157180786,-0.26175543665885925,-0.6808350086212158
1782661195772776000,2.68877587890625,0.49036121368408203,-0.35117825865745544,-0.6831586360931396
1782661195782846000,2.698845947265625,0.3688238561153412,-0.37935423851013184,-0.629181981086731
1782661195792917000,2.7089169921875,0.24710728228092194,-0.34372806549072266,-0.529879093170166
1782661195802988000,2.718988037109375,0.13271421194076538,-0.3021372854709625,-0.3996872901916504
1782661195813057800,2.729057861328125,0.053090229630470276,-0.2807518243789673,-0.25561612844467163
1782661195823128800,2.73912890625,0.01680726185441017,-0.23471614718437195,-0.10548751801252365
1782661195833199900,2.749199951171875,0.01553506962954998,-0.14663316309452057,0.0411466620862484
1782661195843270100,2.759270263671875,0.03931140527129173,-0.06651384383440018,0.15468022227287292
1782661195853341000,2.7693408203125,0.07401159405708313,-0.02074235863983631,0.21145695447921753
1782661195863412000,2.779411865234375,0.10367859154939651,-0.004749536048620939,0.21141883730888367
1782661195873482000,2.78948193359375,0.12987370789051056,0.007772114593535662,0.17161443829536438
1782661195883553000,2.799552978515625,0.16220279037952423,0.029925012961030006,0.08997989445924759
1782661195893624000,2.8096240234375,0.21027179062366486,0.05442130193114281,-0.031534019857645035
1782661195903693800,2.81969384765625,0.277053564786911,0.07583780586719513,-0.1847025752067566
1782661195913764900,2.829764892578125,0.32930877804756165,0.08383314311504364,-0.35943764448165894
1782661195923836000,2.8398359375,0.349032998085022,0.0700131505727768,-0.5295048356056213
1782661195933906200,2.84990625,0.3438180088996887,0.04814140498638153,-0.6547245383262634
1782661195943977000,2.85997705078125,0.31673508882522583,0.026676896959543228,-0.7172726392745972
1782661195954047000,2.870046875,0.2712344527244568,0.01753293350338936,-0.7250549793243408
1782661195964118000,2.880117919921875,0.2209598571062088,0.004477533046156168,-0.6776109933853149
1782661195974189000,2.89018896484375,0.16569234430789948,-0.0025390973314642906,-0.600811243057251
1782661195984260000,2.900260009765625,0.11712004244327545,-0.014895616099238396,-0.5347129702568054
1782661195994329900,2.910329833984375,0.08340176194906235,-0.04324469715356827,-0.5095300674438477
1782661196004401000,2.92040087890625,0.07926805317401886,-0.06995029002428055,-0.5136383771896362
1782661196014472000,2.930471923828125,0.10725947469472885,-0.08136113733053207,-0.5313486456871033
1782661196024542000,2.9405419921875,0.1405317485332489,-0.09223990142345428,-0.5507577657699585
1782661196034613000,2.950613037109375,0.16371430456638336,-0.09446736425161362,-0.5586990118026733
1782661196044683000,2.96068310546875,0.16189543902873993,-0.10196667909622192,-0.5598562359809875
1782661196054754000,2.970754150390625,0.125409334897995,-0.13574329018592834,-0.5282365083694458
1782661196064825000,2.9808251953125,0.062269359827041626,-0.1930927336215973,-0.4482138454914093
1782661196074894800,2.990894775390625,0.002071000635623932,-0.2630542516708374,-0.3012385368347168
1782661196084966000,3.0009658203125,-0.05823574960231781,-0.3448154330253601,-0.10758116096258163
1782661196095037000,3.011036865234375,-0.12544035911560059,-0.4350462555885315,0.09995285421609879
1782661196105108000,3.02110791015625,-0.20358309149742126,-0.5229641199111938,0.27423781156539917
1782661196115178000,3.031177978515625,-0.28128373622894287,-0.6074694395065308,0.40977513790130615
1782661196125249000,3.0412490234375,-0.36438024044036865,-0.6800677180290222,0.5197946429252625
1782661196135319000,3.051319091796875,-0.4810575842857361,-0.7466698884963989,0.6157738566398621
1782661196145390000,3.06139013671875,-0.6250388026237488,-0.7524294257164001,0.6933624148368835
1782661196155461000,3.071461181640625,-0.7537685036659241,-0.6611849665641785,0.6906718015670776
1782661196165531000,3.08153076171875,-0.8331944346427917,-0.5260273218154907,0.5574712157249451
1782661196175602000,3.091601806640625,-0.9049935340881348,-0.40113359689712524,0.32813790440559387
1782661196185673000,3.1016728515625,-0.9690979719161987,-0.31192323565483093,0.0693901926279068
1782661196195743000,3.111742919921875,-1.0061476230621338,-0.2584456503391266,-0.15088465809822083
1782661196205813800,3.121813720703125,-1.0155574083328247,-0.24170370399951935,-0.31223225593566895
1782661196215884800,3.131884765625,-1.0079199075698853,-0.25361868739128113,-0.42052677273750305
1782661196225955000,3.141955078125,-0.9800541400909424,-0.29795360565185547,-0.48562437295913696
1782661196236026000,3.152026123046875,-0.9167702198028564,-0.3810703456401825,-0.5014331340789795
1782661196246097200,3.16209716796875,-0.8156187534332275,-0.49979034066200256,-0.45959779620170593
1782661196256167000,3.1721669921875,-0.677725076675415,-0.6185289621353149,-0.3626270592212677
1782661196266238000,3.182238037109375,-0.5350023508071899,-0.6668182611465454,-0.22061678767204285
1782661196276309000,3.19230908203125,-0.42240628600120544,-0.6073272228240967,-0.058240123093128204
1782661196286378800,3.202378662109375,-0.37656691670417786,-0.5104537606239319,0.10600155591964722
1782661196296449800,3.21244970703125,-0.37512826919555664,-0.44370129704475403,0.25401630997657776
1782661196306520800,3.222520751953125,-0.3807636797428131,-0.3759552538394928,0.39151498675346375
1782661196316591000,3.232591064453125,-0.3501535654067993,-0.2501123547554016,0.48596930503845215
1782661196326662100,3.242662109375,-0.30087268352508545,-0.08180364966392517,0.4852244257926941
1782661196336733000,3.25273291015625,-0.24402351677417755,0.09556687623262405,0.3676091134548187
1782661196346803000,3.262802978515625,-0.17778192460536957,0.28410881757736206,0.11867064982652664
1782661196356874000,3.2728740234375,-0.11173419654369354,0.5315955877304077,-0.24819521605968475
1782661196366945000,3.282945068359375,-0.08792158961296082,0.7971493005752563,-0.6663895845413208
1782661196377014800,3.293014892578125,-0.20346176624298096,0.9065905213356018,-0.9809784293174744
1782661196387085800,3.3030859375,-0.4251262843608856,0.8711248636245728,-1.1584289073944092
1782661196397156900,3.313156982421875,-0.6471681594848633,0.7950778007507324,-1.2346928119659424
1782661196407227100,3.32322705078125,-0.8257294297218323,0.7104051113128662,-1.22027587890625
1782661196417298200,3.333298095703125,-0.9664276838302612,0.6196935772895813,-1.103652834892273
1782661196427369000,3.343368896484375,-1.0592750310897827,0.5262619256973267,-0.8949992656707764
1782661196437439000,3.35343896484375,-1.0836149454116821,0.4501040577888489,-0.6314576864242554
1782661196447510000,3.363510009765625,-1.0518908500671387,0.40844789147377014,-0.3263474702835083
1782661196457581000,3.3735810546875,-0.9764496088027954,0.40416234731674194,-0.011754101142287254
1782661196467650800,3.38365087890625,-0.8711138367652893,0.4217890202999115,0.2799419164657593
1782661196477721900,3.393721923828125,-0.7638387680053711,0.4376470744609833,0.5148904919624329
1782661196487793000,3.40379296875,-0.662578821182251,0.44626516103744507,0.670271098613739
1782661196497863200,3.41386328125,-0.5592700242996216,0.45300936698913574,0.7523310780525208
1782661196507934000,3.423933837890625,-0.4536868929862976,0.4293633699417114,0.766838014125824
1782661196518005000,3.4340048828125,-0.3617841303348541,0.35909852385520935,0.7673138976097107
1782661196528075000,3.444074951171875,-0.281648725271225,0.28342583775520325,0.7627689838409424
1782661196538146000,3.45414599609375,-0.21191199123859406,0.20734438300132751,0.7747638821601868
1782661196548217000,3.464217041015625,-0.1637832373380661,0.12730765342712402,0.7878159284591675
1782661196558286800,3.474286865234375,-0.13078375160694122,0.02767293155193329,0.8015759587287903
1782661196568357000,3.484357177734375,-0.11735374480485916,-0.08113128691911697,0.8004757761955261
1782661196578428200,3.49442822265625,-0.1305910050868988,-0.16212627291679382,0.7915368676185608
1782661196588498200,3.504498291015625,-0.15487253665924072,-0.22361540794372559,0.7626297473907471
1782661196598569200,3.5145693359375,-0.16554223001003265,-0.28465425968170166,0.7100416421890259
1782661196608640300,3.52464013671875,-0.14944130182266235,-0.35179784893989563,0.6514406204223633
1782661196618710300,3.534710205078125,-0.1056983545422554,-0.4017648994922638,0.5914276242256165
1782661196628781000,3.544781005859375,-0.049106892198324203,-0.4160498380661011,0.5449466705322266
1782661196638852000,3.55485205078125,-0.010668689385056496,-0.42238497734069824,0.5214579105377197
1782661196648922000,3.564922119140625,0.003381776623427868,-0.411102831363678,0.5241835117340088
1782661196658993200,3.5749931640625,-0.008582208305597305,-0.39812391996383667,0.5381981134414673
1782661196669063200,3.585063232421875,-0.033410049974918365,-0.374355286359787,0.5394683480262756
1782661196679134200,3.59513427734375,-0.06493841111660004,-0.3251059949398041,0.5059791207313538
1782661196689205200,3.605205322265625,-0.08180627971887589,-0.27623122930526733,0.4387366473674774
1782661196699275300,3.615275146484375,-0.07181622833013535,-0.23720286786556244,0.33061015605926514
1782661196709346300,3.62534619140625,-0.0327499695122242,-0.16686826944351196,0.18778835237026215
1782661196719417000,3.6354169921875,0.01935131475329399,-0.05053474009037018,0.0060182795859873295
1782661196729487000,3.645487060546875,0.07089195400476456,0.050523195415735245,-0.1647079586982727
1782661196739558100,3.65555810546875,0.09808176010847092,0.07140584290027618,-0.23948952555656433
1782661196749629200,3.665629150390625,0.1091804951429367,-0.00921623595058918,-0.15382349491119385
1782661196759699200,3.67569921875,0.10680202394723892,-0.14314819872379303,0.07835302501916885
1782661196769770200,3.685770263671875,0.10631698369979858,-0.24669158458709717,0.37182074785232544
1782661196779841300,3.69584130859375,0.07129934430122375,-0.2635480761528015,0.6509925127029419
1782661196789911300,3.705911376953125,0.030302414670586586,-0.0982508435845375,0.7412807941436768
1782661196799982000,3.715982177734375,-0.028021611273288727,0.2849777638912201,0.47074249386787415
1782661196810053000,3.72605322265625,-0.11002348363399506,0.7294606566429138,-0.08021540194749832
1782661196820123100,3.736123046875,-0.11498654633760452,1.0916916131973267,-0.6988208889961243
1782661196830194200,3.746194091796875,-0.018620790913701057,1.280095100402832,-1.1626269817352295
1782661196840265200,3.75626513671875,0.09767492115497589,1.2569795846939087,-1.3381251096725464
1782661196850335200,3.766335205078125,0.218810573220253,1.0452749729156494,-1.243815302848816
1782661196860406300,3.77640625,0.35576629638671875,0.6927342414855957,-0.9388942718505859
1782661196870477300,3.786477294921875,0.4850910007953644,0.2607181966304779,-0.49979856610298157
1782661196880547300,3.79654736328125,0.6006410121917725,-0.13064315915107727,-0.06546655297279358
1782661196890618000,3.8066181640625,0.730488657951355,-0.3527182638645172,0.2557835578918457
1782661196900689200,3.816689208984375,0.878429114818573,-0.3785301446914673,0.4593747854232788
1782661196910759200,3.82675927734375,0.9614360332489014,-0.30097299814224243,0.573107898235321
1782661196920830200,3.836830322265625,0.9291982054710388,-0.1912480890750885,0.6362106800079346
1782661196930901200,3.8469013671875,0.7903494238853455,-0.06555752456188202,0.6873369216918945
1782661196940971300,3.85697119140625,0.6161946654319763,0.05787253752350807,0.6980918645858765
1782661196951042000,3.8670419921875,0.4743320345878601,0.16490231454372406,0.6352607011795044
1782661196961113000,3.877113037109375,0.3906022608280182,0.2150525599718094,0.49951672554016113
1782661196971183000,3.88718310546875,0.35317540168762207,0.1896490752696991,0.33382415771484375
1782661196981254100,3.897254150390625,0.3632168471813202,0.1337176263332367,0.15407170355319977
1782661196991325200,3.9073251953125,0.41255515813827515,0.06299301981925964,-0.023737482726573944
1782661197001395200,3.917395263671875,0.4789091646671295,-0.021957561373710632,-0.2097177356481552
1782661197011466200,3.92746630859375,0.5576303005218506,-0.1295032501220703,-0.4055662155151367
1782661197021536000,3.937535888671875,0.626120924949646,-0.2693983018398285,-0.606766402721405
1782661197031607000,3.94760693359375,0.6759569644927979,-0.41594019532203674,-0.785547137260437
1782661197041678000,3.957677978515625,0.6930336952209473,-0.5335896015167236,-0.9152531623840332
1782661197051748400,3.967748291015625,0.6665492057800293,-0.576248049736023,-0.9944463968276978
1782661197061819100,3.977819091796875,0.5850574970245361,-0.5359863638877869,-0.9882620573043823
1782661197071890200,3.98789013671875,0.4584161341190338,-0.4626094102859497,-0.8794533610343933
1782661197081960200,3.997960205078125,0.33365875482559204,-0.3739096522331238,-0.7026754021644592
1782661197092031200,4.00803125,0.23300041258335114,-0.22473616898059845,-0.4856101870536804
1782661197102102300,4.018102294921875,0.18174786865711212,-0.03880411759018898,-0.26644426584243774
1782661197112172000,4.028172119140625,0.16572469472885132,0.09814201295375824,-0.08310160785913467
1782661197122243000,4.0382431640625,0.1925525814294815,0.15572409331798553,0.044708285480737686
1782661197132314000,4.048314208984375,0.2591404914855957,0.18183162808418274,0.11195860803127289
1782661197142384400,4.05838427734375,0.3511205017566681,0.18225720524787903,0.12182269245386124
1782661197152455200,4.068455078125,0.42856714129447937,0.13297557830810547,0.07899817079305649
1782661197162526200,4.078526123046875,0.4881287217140198,0.02680414542555809,-0.010583644732832909
1782661197172596200,4.08859619140625,0.5203750729560852,-0.06974301487207413,-0.13302917778491974
1782661197182667300,4.098667236328125,0.5400702357292175,-0.11383244395256042,-0.24937735497951508
1782661197192738300,4.10873828125,0.5486091375350952,-0.11801866441965103,-0.35767000913619995
1782661197202808000,4.11880810546875,0.539141058921814,-0.1077633649110794,-0.4364665448665619
1782661197212879000,4.128879150390625,0.5089209675788879,-0.07706355303525925,-0.4883307218551636
1782661197222950100,4.1389501953125,0.4619081914424896,-0.032529909163713455,-0.5206782817840576
1782661197233020200,4.149020263671875,0.40624868869781494,0.0015711493324488401,-0.530926525592804
1782661197243091200,4.15909130859375,0.3421224355697632,0.031082702800631523,-0.5297320485115051
1782661197253161200,4.1691611328125,0.2781122922897339,0.035374484956264496,-0.5228965282440186
1782661197263232300,4.179232177734375,0.22157976031303406,-0.0032591954804956913,-0.5288276672363281
1782661197273303300,4.18930322265625,0.18242359161376953,-0.05052657425403595,-0.5622784495353699
1782661197283373000,4.199373046875,0.16891710460186005,-0.08022987097501755,-0.604254424571991
1782661197293444000,4.209444091796875,0.16809822618961334,-0.11212675273418427,-0.6440736651420593
1782661197303515100,4.21951513671875,0.17892131209373474,-0.16692422330379486,-0.6642984747886658
1782661197313585400,4.22958544921875,0.17437425255775452,-0.24900737404823303,-0.6507235169410706
1782661197323656200,4.23965625,0.13773341476917267,-0.34552568197250366,-0.595917820930481
1782661197333727200,4.249727294921875,0.08126544207334518,-0.4596152603626251,-0.49643805623054504
1782661197343797200,4.25979736328125,0.021925153210759163,-0.5714616775512695,-0.3433936536312103
1782661197353868300,4.269868408203125,-0.025419533252716064,-0.6739947199821472,-0.15451042354106903
1782661197363939300,4.279939208984375,-0.07286588102579117,-0.7442243695259094,0.05067150294780731
1782661197374009000,4.290009033203125,-0.12803326547145844,-0.7612273693084717,0.2548598051071167
1782661197384080100,4.300080078125,-0.19442959129810333,-0.7444174885749817,0.45055633783340454
1782661197394151200,4.310151123046875,-0.27043431997299194,-0.6992133855819702,0.6224209666252136
1782661197404221200,4.32022119140625,-0.33867359161376953,-0.6430574059486389,0.7734690308570862
1782661197414292200,4.330292236328125,-0.40878427028656006,-0.6076916456222534,0.8926766514778137
1782661197424363300,4.34036328125,-0.47689327597618103,-0.5792824029922485,0.9814725518226624
1782661197434433300,4.350433349609375,-0.5667147040367126,-0.5387486815452576,1.0298093557357788
1782661197444504300,4.36050439453125,-0.663743257522583,-0.47236937284469604,1.000124216079712
1782661197454575000,4.3705751953125,-0.766239583492279,-0.3671934902667999,0.8709511160850525
1782661197464645000,4.38064501953125,-0.878675103187561,-0.26450544595718384,0.6109626889228821
1782661197474716200,4.390716064453125,-1.0143150091171265,-0.20278498530387878,0.28026580810546875
1782661197484786200,4.4007861328125,-1.1441668272018433,-0.16294249892234802,-0.028074441477656364
1782661197494857000,4.41085693359375,-1.2177433967590332,-0.1428300142288208,-0.27300170063972473
1782661197504928000,4.420927978515625,-1.222177505493164,-0.19366097450256348,-0.44448423385620117
1782661197514998300,4.430998291015625,-1.1593457460403442,-0.2937992513179779,-0.5540943741798401
1782661197525069300,4.4410693359375,-1.0069161653518677,-0.3630198538303375,-0.6207389235496521
1782661197535140400,4.451140380859375,-0.8211765289306641,-0.36287954449653625,-0.6462935209274292
1782661197545210000,4.461210205078125,-0.6454219818115234,-0.2927404046058655,-0.6001721024513245
1782661197555281200,4.47128125,-0.48082318902015686,-0.15250760316848755,-0.4769701063632965
1782661197565352200,4.481352294921875,-0.32857745885849,0.013902955688536167,-0.27262070775032043
1782661197575422000,4.491421875,-0.1991228312253952,0.1798582822084427,0.01565648429095745
1782661197585493000,4.501492919921875,-0.10853353142738342,0.2971963882446289,0.3422577679157257
1782661197595564000,4.51156396484375,-0.04971763491630554,0.34958401322364807,0.6563505530357361
1782661197605634000,4.521634033203125,-0.012535909190773964,0.3559974431991577,0.9310561418533325
1782661197615705000,4.531705078125,0.03567216545343399,0.331196665763855,1.1311473846435547
1782661197625776000,4.541776123046875,0.15717703104019165,0.3132837116718292,1.2097591161727905
1782661197635846100,4.55184619140625,0.3174957036972046,0.38638487458229065,1.068551778793335
1782661197645917000,4.5619169921875,0.44635677337646484,0.5293870568275452,0.6944655776023865
1782661197655988000,4.571988037109375,0.4856008291244507,0.6743834018707275,0.16079364717006683
1782661197666058000,4.58205810546875,0.41769182682037354,0.7443936467170715,-0.4045323133468628
1782661197676129000,4.59212890625,0.21970713138580322,0.7581263184547424,-0.8774573802947998
1782661197686199000,4.602198974609375,-0.08738674968481064,0.7389185428619385,-1.220637321472168
1782661197696270000,4.61227001953125,-0.428588330745697,0.7215136289596558,-1.4367375373840332
1782661197706341000,4.622341064453125,-0.7485540509223938,0.6750531792640686,-1.4994888305664062
1782661197716411100,4.6324111328125,-1.0218942165374756,0.5879555940628052,-1.411749005317688
1782661197726482200,4.642482177734375,-1.2040767669677734,0.5297979712486267,-1.190299153327942
1782661197736553000,4.652552978515625,-1.2938350439071655,0.525187611579895,-0.8879810571670532
1782661197746623000,4.662623046875,-1.2715766429901123,0.5584939122200012,-0.5328935384750366
1782661197756694000,4.672694091796875,-1.1625556945800781,0.5837191343307495,-0.16782182455062866
1782661197766765000,4.68276513671875,-0.9936245083808899,0.585772693157196,0.18034173548221588
1782661197776835000,4.6928349609375,-0.7922786474227905,0.5665103793144226,0.48794037103652954
1782661197786906000,4.702906005859375,-0.6039236187934875,0.535097062587738,0.7292914986610413
1782661197796977200,4.71297705078125,-0.4478030204772949,0.4939965307712555,0.8871085047721863
1782661197807047200,4.723047119140625,-0.33963555097579956,0.4587458670139313,0.9589363932609558
1782661197817118200,4.7331181640625,-0.27008122205734253,0.44319626688957214,0.9428011775016785
1782661197827189000,4.74318896484375,-0.22011472284793854,0.441257506608963,0.8537152409553528
1782661197837259000,4.753259033203125,-0.18014703691005707,0.4234897792339325,0.7282429337501526
1782661197847330000,4.763330078125,-0.1629326194524765,0.3774341344833374,0.6044977903366089
1782661197857400000,4.773400146484375,-0.15352024137973785,0.3007696270942688,0.5116860270500183
1782661197867471000,4.78347119140625,-0.13251616060733795,0.22364822030067444,0.43498989939689636
1782661197877542100,4.793542236328125,-0.09095900505781174,0.1460280418395996,0.3609520494937897
1782661197887612200,4.803612060546875,-0.04264313727617264,0.056402549147605896,0.2936185598373413
1782661197897683200,4.81368310546875,0.017048411071300507,-0.05362692102789879,0.24055993556976318
1782661197907754000,4.82375390625,0.07709869742393494,-0.19666025042533875,0.20598092675209045
1782661197917824000,4.833823974609375,0.13287614285945892,-0.34796205163002014,0.207645446062088
1782661197927895000,4.84389501953125,0.16731853783130646,-0.4822836220264435,0.25927507877349854
1782661197937966000,4.853966064453125,0.1725078523159027,-0.5748873949050903,0.339160680770874
1782661197948035800,4.864035888671875,0.15487399697303772,-0.6160342693328857,0.40349599719047546
1782661197958107000,4.87410693359375,0.12056797742843628,-0.6121647357940674,0.41891780495643616
1782661197968178000,4.884177978515625,0.09821739792823792,-0.5858721733093262,0.38024550676345825
1782661197978248200,4.894248291015625,0.10611356794834137,-0.5626102685928345,0.3050212264060974
1782661197988319200,4.9043193359375,0.1548480987548828,-0.5308273434638977,0.2439967542886734
1782661197998390000,4.91439013671875,0.2392863780260086,-0.48289361596107483,0.2109358161687851
1782661198008460000,4.9244599609375,0.33573460578918457,-0.40478071570396423,0.18520675599575043
1782661198018531000,4.934531005859375,0.42875686287879944,-0.2888893187046051,0.12408118695020676
1782661198028601000,4.94460107421875,0.4848635494709015,-0.17311958968639374,0.020123625174164772
1782661198038672000,4.954671875,0.4784109890460968,-0.11599122732877731,-0.08723736554384232
1782661198048743000,4.964742919921875,0.42272746562957764,-0.12626756727695465,-0.14113309979438782
1782661198058813200,4.974813232421875,0.3493148386478424,-0.20314493775367737,-0.10354293137788773
1782661198068884200,4.98488427734375,0.25724858045578003,-0.3116826117038727,0.023308221250772476
1782661198078955000,4.994955078125,0.16287921369075775,-0.4182469844818115,0.2268255650997162
1782661198089025000,5.00502490234375,0.06425650417804718,-0.4835332930088043,0.47488999366760254
1782661198099096000,5.015095947265625,-0.045989006757736206,-0.4731893539428711,0.69572913646698
1782661198109167000,5.0251669921875,-0.1581331193447113,-0.32596448063850403,0.7787007689476013
1782661198119236900,5.03523681640625,-0.3029612600803375,0.010169628076255322,0.6061087250709534
1782661198129308000,5.045307861328125,-0.48835480213165283,0.3954741656780243,0.20914453268051147
1782661198139379000,5.05537890625,-0.6201915144920349,0.6523396372795105,-0.2012733519077301
1782661198149449200,5.06544921875,-0.6063595414161682,0.7590231895446777,-0.4853311777114868
1782661198159520300,5.075520263671875,-0.45365193486213684,0.7936357259750366,-0.5866424441337585
1782661198169591000,5.085591064453125,-0.2351730912923813,0.7939340472221375,-0.5355761051177979
1782661198179661000,5.0956611328125,-0.025722691789269447,0.7162374258041382,-0.37308114767074585
1782661198189732000,5.105732177734375,0.14005109667778015,0.5375710129737854,-0.15021531283855438
1782661198199802000,5.115802001953125,0.2491544634103775,0.31392887234687805,0.09246102720499039
1782661198209873000,5.125872802734375,0.34700435400009155,0.17276722192764282,0.26085323095321655
1782661198219944000,5.13594384765625,0.47045478224754333,0.13860537111759186,0.28510186076164246
1782661198230014200,5.14601416015625,0.6246528625488281,0.18530629575252533,0.16496184468269348
1782661198240085200,5.156085205078125,0.7660883069038391,0.2511191666126251,-0.036923300474882126
1782661198250156300,5.16615625,0.8606324195861816,0.26834821701049805,-0.18119312822818756
1782661198260226000,5.17622607421875,0.8638719916343689,0.22615045309066772,-0.19472472369670868
1782661198270297000,5.186297119140625,0.7825816869735718,0.14924022555351257,-0.09258956462144852
1782661198280368000,5.1963681640625,0.6572375297546387,0.10887952893972397,0.0534602627158165
1782661198290438000,5.20643798828125,0.5236970782279968,0.1427014172077179,0.17807330191135406
1782661198300509000,5.216509033203125,0.42641496658325195,0.20357459783554077,0.2053890824317932
1782661198310580000,5.226580078125,0.38309118151664734,0.18693038821220398,0.15007735788822174
1782661198320650000,5.23664990234375,0.35659801959991455,0.13727335631847382,0.08190064877271652
1782661198330721000,5.246720947265625,0.3397980034351349,0.10629066824913025,0.027972707524895668
1782661198340791000,5.256791015625,0.32608604431152344,0.04240122064948082,-0.010828840546309948
1782661198350862000,5.266862060546875,0.32110753655433655,-0.09340561181306839,-0.05799182504415512
1782661198360933000,5.27693310546875,0.3066571056842804,-0.2669426500797272,-0.13922728598117828
1782661198371003100,5.287003173828125,0.3039097785949707,-0.4299089312553406,-0.250336229801178
1782661198381074000,5.297073974609375,0.32188549637794495,-0.5503686666488647,-0.3817560076713562
1782661198391145000,5.30714501953125,0.3388013541698456,-0.6270229816436768,-0.5198196172714233
1782661198401214200,5.317214111328125,0.3503698706626892,-0.6617677211761475,-0.6257040500640869
1782661198411285200,5.32728515625,0.35225802659988403,-0.634395182132721,-0.6794394850730896
1782661198421356000,5.33735595703125,0.31688857078552246,-0.5375104546546936,-0.6901890635490417
1782661198431426000,5.347426025390625,0.24505643546581268,-0.37768954038619995,-0.6614622473716736
1782661198441497000,5.3574970703125,0.16213944554328918,-0.18275520205497742,-0.6148468255996704
1782661198451568000,5.367568115234375,0.09649523347616196,-0.013007338158786297,-0.5429850220680237
1782661198461638000,5.377637939453125,0.05948421359062195,0.09336117655038834,-0.4404107332229614
1782661198471709000,5.387708984375,0.06457899510860443,0.17324838042259216,-0.3196946680545807
1782661198481780000,5.397780029296875,0.0884409248828888,0.21917486190795898,-0.19486166536808014
1782661198491850200,5.407850341796875,0.12495794892311096,0.20625486969947815,-0.10413885116577148
1782661198501921000,5.417921142578125,0.14861559867858887,0.14356538653373718,-0.057327140122652054
1782661198511992000,5.427991943359375,0.16952572762966156,0.07549899071455002,-0.0568956658244133
1782661198522062000,5.43806201171875,0.18456672132015228,0.014140021987259388,-0.0890008732676506
1782661198532133000,5.448133056640625,0.20237329602241516,-0.050581928342580795,-0.12840323150157928
1782661198542203000,5.458202880859375,0.2050633430480957,-0.10223367065191269,-0.16666805744171143
1782661198552274000,5.46827392578125,0.19650091230869293,-0.12406274676322937,-0.20508341491222382
1782661198562345000,5.478344970703125,0.17556607723236084,-0.1161145493388176,-0.2327512502670288
1782661198572415000,5.4884150390625,0.15294262766838074,-0.08442298322916031,-0.24559670686721802
1782661198582486000,5.498486083984375,0.12440738081932068,-0.05188794434070587,-0.24956561625003815
1782661198592557000,5.50855712890625,0.07701992243528366,-0.05593158304691315,-0.24719952046871185
1782661198602627000,5.518626953125,0.018445562571287155,-0.07649757713079453,-0.24265724420547485
1782661198612698000,5.528697998046875,-0.04138893261551857,-0.09950616955757141,-0.23156477510929108
1782661198622769000,5.538768798828125,-0.10669124126434326,-0.12253745645284653,-0.2141285240650177
1782661198632839000,5.5488388671875,-0.16765731573104858,-0.11176225543022156,-0.20195268094539642
1782661198642910000,5.558909912109375,-0.2136562317609787,-0.09008119255304337,-0.1841936558485031
1782661198652980000,5.56897998046875,-0.2440345585346222,-0.06949756294488907,-0.16602757573127747
1782661198663051000,5.579051025390625,-0.2669830322265625,-0.021871987730264664,-0.16378039121627808
1782661198673122000,5.5891220703125,-0.2835462987422943,0.04041961580514908,-0.18081797659397125
1782661198683192000,5.599192138671875,-0.31175822019577026,0.06227724254131317,-0.22780784964561462
1782661198693263000,5.60926318359375,-0.34377655386924744,0.04739949107170105,-0.2859686017036438
1782661198703334000,5.619333984375,-0.3812568187713623,0.009144515730440617,-0.3166423439979553
1782661198713404000,5.62940380859375,-0.424819678068161,-0.006853405386209488,-0.3044751286506653
1782661198723475000,5.639474853515625,-0.45579490065574646,0.011918151751160622,-0.23898988962173462
1782661198733546000,5.6495458984375,-0.47487735748291016,0.058582745492458344,-0.17854461073875427
1782661198743615700,5.65961572265625,-0.48944032192230225,0.12400569021701813,-0.13663683831691742
1782661198753686800,5.669686767578125,-0.5149921774864197,0.17744313180446625,-0.10127308964729309
1782661198763757000,5.679757080078125,-0.5381744503974915,0.25983521342277527,-0.05472688749432564
1782661198773828000,5.689828125,-0.5389153361320496,0.37941163778305054,0.010691014118492603
1782661198783899100,5.699899169921875,-0.5277271270751953,0.4980658292770386,0.06147083640098572
1782661198793971000,5.709970947265625,-0.5103020668029785,0.5899648666381836,0.058632973581552505
1782661198804042000,5.7200419921875,-0.48812469840049744,0.6194199323654175,0.0023202821612358093
1782661198814112000,5.730112060546875,-0.5152415633201599,0.8044204115867615,0.15236811339855194
1782661198824183000,5.74018310546875,-0.662319540977478,0.5215224027633667,0.20924191176891327
1782661198834254000,5.750254150390625,-0.816309928894043,0.1117548868060112,0.27011191844940186
1782661198844323800,5.76032373046875,-0.889118492603302,-0.19974008202552795,0.27946245670318604
1782661198854395000,5.770394775390625,-0.9477418661117554,-0.39230474829673767,0.2134608030319214
1782661198864466000,5.7804658203125,-1.03187894821167,-0.39083632826805115,0.08783795684576035
1782661198874536000,5.790535888671875,-1.148353099822998,-0.2970549762248993,-0.033897798508405685
1782661198884607000,5.80060693359375,-1.2301191091537476,-0.20994317531585693,-0.12928278744220734
1782661198894677000,5.810677001953125,-1.2060084342956543,-0.1290789544582367,-0.1957952231168747
1782661198904748000,5.820748046875,-1.0502384901046753,0.04116727039217949,-0.20554298162460327
1782661198914819000,5.830819091796875,-0.8140178918838501,0.3145993649959564,-0.14446337521076202
1782661198924889000,5.84088916015625,-0.5919011831283569,0.3891921043395996,-0.13202686607837677
1782661198934959900,5.8509599609375,-0.3949774503707886,0.20466485619544983,-0.18710875511169434
