time,seconds_elapsed,z,y,x
1782812119258914600,0.07191455078125,-0.008493687579035758,0.009032004839973524,-0.02686108695261646
1782812119268985600,0.081985595703125,-0.015527823999524116,-0.0030143519856501368,-0.005825591747788712
1782812119279056400,0.092056396484375,-0.005351882421970367,0.0006773969380650668,-0.006567411674594041
1782812119289127400,0.10212744140625,-0.009092822515964508,-0.007258967285463586,-0.018437401578092247
1782812119299197400,0.112197509765625,-0.011487608698010444,-0.003332331893639639,-0.028702285239356567
1782812119309268500,0.1222685546875,-0.02465513330698013,0.00187067097639665,-0.03244837643250357
1782812119319339300,0.13233935546875,-0.019867899030447004,0.010755029240297153,-0.019265460174868347
1782812119329410300,0.142410400390625,-0.012983984735608101,-0.0021542645575944332,-0.023941418379941022
1782812119339481300,0.1524814453125,-0.017026538124680517,0.008314184559974819,-0.014624943175935186
1782812119349552400,0.162552490234375,-0.012387187886238098,0.00005314582618884742,-0.02259769388709683
1782812119359623400,0.17262353515625,-0.021367197677493094,-0.0001135890428442508,-0.037222751227463595
1782812119369693200,0.182693115234375,-0.011042787539958953,-0.0019018241664860397,-0.02209171712633688
1782812119379764200,0.19276416015625,0.0018254618614912033,-0.006036686348356306,-0.01926174983084202
1782812119389835300,0.202835205078125,-0.0035620763957500455,-0.013486198636703193,-0.03513990793826524
1782812119399906300,0.21290625,0.004069441395998001,0.004603511740081012,-0.022724473488365763
1782812119409977300,0.222977294921875,-0.021069091513752938,-0.014575144650880247,-0.02028282280715648
1782812119420048400,0.23304833984375,-0.002066284880042076,-0.0019478643984533845,0.013029641375085338
1782812119430118400,0.243118408203125,-0.012091419810056686,0.009840517344418912,-0.01690927869536099
1782812119440189400,0.253189453125,-0.011795067211985588,-0.0025514015158638356,-0.02738583691250533
1782812119450260500,0.263260498046875,0.0009235445857048034,-0.009692213181219994,-0.025248107931180857
1782812119460331500,0.27333154296875,-0.022720950374007225,-0.006299876462342217,-0.02540162255903706
1782812119470402600,0.283402587890625,-0.011946458381414412,-0.004857915759412572,-0.014175480092095676
1782812119480472000,0.29347216796875,-0.006858779853582382,-0.013387524035200476,-0.014208455346513073
1782812119490542000,0.3035419921875,0.005261281529068946,-0.014673837518692015,-0.021310416855802757
1782812119500613000,0.313613037109375,-0.008356909456849098,-0.00038235038109123707,-0.021178438206319695
1782812119510684200,0.32368408203125,-0.012096095985174178,-0.0034791016868781295,-0.020665095556434244
1782812119520755000,0.3337548828125,-0.01179798982143402,0.0006300963307730853,-0.03994060905114747
1782812119530826000,0.343825927734375,-0.010751111117005347,0.008132279521273449,-0.02824543571679387
1782812119540897000,0.35389697265625,-0.017187866166234016,-0.021162569350330156,-0.030101578127627725
1782812119550968000,0.363968017578125,-0.0017781155884265898,-0.006157216588640585,-0.026774924772814845
1782812119561038300,0.374038330078125,-0.003277414235472679,-0.0031487920202780515,-0.03167670250684023
1782812119571109000,0.384109130859375,-0.010911270114779471,-0.02318291446310468,-0.026295068834000266
1782812119581180200,0.39418017578125,0.01018587844967842,-0.0049864009772893035,-0.027206667253584598
1782812119591251200,0.404251220703125,-0.0064244800895452495,0.013318806180544197,-0.02052408421712462
1782812119601322200,0.414322265625,-0.0028337621212005614,-0.009242524051805957,-0.026096546020638198
1782812119611393300,0.424393310546875,-0.003134206372499466,-0.011153216511337086,-0.040619882852467704
1782812119621463000,0.434463134765625,0.00015665186643600462,0.00033245595791377125,-0.031008502655383196
1782812119631534000,0.4445341796875,-0.011663549786806105,-0.006961436510458588,-0.014895248017297125
1782812119641605000,0.454605224609375,-0.024382746106386185,-0.00472697372296825,-0.021228871485614215
1782812119651676200,0.46467626953125,0.004797171148657798,-0.0017844539976678787,-0.02241485726663377
1782812119661747200,0.474747314453125,-0.005528408032655715,0.007695230677723884,-0.01018718449077569
1782812119671818200,0.484818359375,0.003598316752910614,0.009287888430338353,-0.010037745533126871
1782812119681889000,0.494888916015625,-0.014061258578300475,-0.011074041194748132,-0.012407834523689234
1782812119691959000,0.504958984375,-0.002540332132577896,-0.00022751601240597664,-0.035556028158217665
1782812119702030000,0.515030029296875,-0.0076291797041893004,-0.005987632175395265,-0.021758717745728788
1782812119712101000,0.52510107421875,-0.004338905987143516,0.00010892200088128446,-0.023783967362483963
1782812119722172000,0.535171875,-0.007333996149897575,-0.009877972411131485,-0.02002486599071417
1782812119732243000,0.545242919921875,-0.014217325922846793,-0.013024389811232686,-0.025880565182399003
1782812119742314000,0.55531396484375,0.006883914294838905,0.002666661925986409,-0.029260110918362624
1782812119752384300,0.56538427734375,-0.024988310784101485,-0.011465643461374565,-0.027231559666246175
1782812119762455300,0.575455322265625,-0.0016465981632471083,-0.004761798441177234,-0.020056647085177244
1782812119772526000,0.585526123046875,-0.0020966800183057784,-0.00047977374042384324,-0.019587136727152392
1782812119782597000,0.59559716796875,-0.01766074437499046,0.00021332309027202425,-0.017865167206176556
1782812119792668200,0.605668212890625,-0.02274900742471218,-0.0019743140139617025,-0.02598204594562994
1782812119802739200,0.6157392578125,-0.004795417582988739,0.005995623685605823,-0.018902830557688138
1782812119812809200,0.625809326171875,0.013459201031923293,0.004258579893084243,-0.018482999993709382
1782812119822880000,0.6358798828125,0.0025356559574604034,0.002430396351544186,-0.022179192197101655
1782812119832951000,0.645950927734375,-0.023803484913706777,-0.006931845089793205,-0.0375865658714436
1782812119843022000,0.65602197265625,-0.02126023017168045,0.004450924127409234,-0.027731768839922732
1782812119853093000,0.666093017578125,-0.003301379632949829,-0.004094658035645261,-0.028229943603428544
1782812119863164200,0.6761640625,-0.007789923223853111,0.0027150950444396584,-0.025076859000523106
1782812119873235200,0.686235107421875,-0.026642507731914518,-0.0008080923793371766,-0.02652706694199005
1782812119883305000,0.696304931640625,-0.017664251506328582,0.0020284279545303434,-0.025489876231225207
1782812119893376000,0.7063759765625,0.005381108516454697,0.004356870902096853,-0.029227866316307333
1782812119903447000,0.716447021484375,-0.007935469174385071,-0.00198351110056974,-0.020369962234492413
1782812119913518000,0.72651806640625,-0.012573650369048117,0.020252715363260357,-0.022256104774656706
1782812119923589000,0.736589111328125,-0.009580898293852806,-0.005476467782864347,-0.0146401236204023
1782812119933660000,0.746659912109375,0.001491115340590477,-0.008416813817387446,-0.010901514764101011
1782812119943730200,0.756730224609375,-0.0038940848290920254,-0.010308070924086496,-0.015414196140773127
1782812119953801200,0.76680126953125,-0.014368132570385932,-0.0074946757374797016,-0.008076743091887328
1782812119963872300,0.776872314453125,-0.016164952859282492,0.0011188388289418072,-0.020471431581280192
1782812119973943300,0.786943359375,-0.010029811105132102,-0.003975607366394252,-0.026632666757912375
1782812119984014000,0.79701416015625,-0.015267711758613585,0.004258570759929716,-0.04654695764677599
1782812119994085000,0.807085205078125,0.006280103182792663,0.004869067341089248,-0.018437233756377826
1782812120004155100,0.817155029296875,-0.008237082469463348,-0.002773191040381789,-0.01743727092510671
1782812120014226200,0.82722607421875,-0.004047814086079597,-0.003937805239809676,-0.020065289332647805
1782812120024297200,0.837297119140625,-0.02424947511553764,-0.002997218187758699,-0.026691292476817032
1782812120034368000,0.847367919921875,-0.014523615393042564,0.0024033348146826027,-0.011975759824423584
1782812120044439000,0.85743896484375,-0.014073533537983893,-0.0021357059875968844,-0.022560846175160257
1782812120054510000,0.867510009765625,-0.004944470664858818,-0.0025540044649038462,-0.02409559972807765
1782812120064580000,0.877580078125,-0.0167658413618803,0.0002950191575102508,-0.019268330268678253
1782812120074651100,0.887651123046875,-0.010481646525859832,-0.00564684678055346,-0.028081406544789203
1782812120084722000,0.897721923828125,-0.003000350859761238,0.008137932943925261,-0.004599721480952576
1782812120094793000,0.90779296875,-0.00793897630572319,-0.009451390162669122,-0.0001030425326549448
1782812120104864000,0.917864013671875,-0.00030804303586483,-0.0198980841061566,0.006591566585027612
1782812120114935000,0.92793505859375,-0.0103349315315485,-0.011915807514823972,-0.02177746582868276
1782812120125005300,0.93800537109375,-0.007189034721255302,0.008658422287227586,-0.03593990834269207
1782812120135076000,0.948076171875,-0.002101356193423271,0.008189480468071997,-0.019939617126365192
1782812120145147100,0.958147216796875,-0.007936638218164444,0.0033722346457652746,-0.02003931920775212
1782812120155218200,0.96821826171875,-0.016465981632471084,-0.0020534436647780237,-0.012736645211302675
1782812120165289200,0.978289306640625,-0.017363807255029676,-0.01370164061882533,-0.015549959341163048
1782812120175360300,0.9883603515625,-0.012724457016587257,-0.0025024204081390052,-0.023224652979290113
1782812120185431300,0.998431396484375,-0.005842296287417411,0.006381398999644443,-0.040689609920699144
1782812120195501000,1.0085009765625,-0.02993336597084999,-0.009657845120737328,-0.008590044642577413
1782812120205572000,1.018572021484375,-0.02723988910317421,-0.0029335875001735984,-0.009584052657097344
1782812120215643100,1.02864306640625,-0.01167816283404827,-0.0021204718858469276,-0.016600485599180682
1782812120225714200,1.038714111328125,-0.007939560827612876,0.004024314479483291,-0.015027899095282191
1782812120235785200,1.04878515625,-0.010783844342827796,0.0008142024597153067,-0.02384503620022442
1782812120245856000,1.05885595703125,-0.011382394757866858,-0.0020484660955611615,-0.0010575702034460845
1782812120255926000,1.068926025390625,-0.002853635865449905,-0.01696308096703142,-0.023171287957392633
1782812120265997000,1.0789970703125,-0.011534370449185372,0.010656318106176331,-0.029049790352641137
1782812120276068000,1.089068115234375,-0.005848141506314277,-0.00011487681763246655,-0.018658017492253567
1782812120286139100,1.09913916015625,-0.005848141506314277,-0.003687145813833922,-0.024767731402558273
1782812120296210200,1.109210205078125,-0.006747136172652244,0.005048707357468083,-0.01322361930242623
1782812120306281200,1.11928125,-0.01677285562455654,0.005079230359895154,-0.029396441515977492
1782812120316351200,1.129351318359375,-0.0065986676126718515,-0.006223422825802117,-0.030151881259470246
1782812120326422300,1.13942236328125,-0.00794423700273037,0.0013124525717459617,-0.015476373515144222
1782812120336493300,1.149493408203125,-0.008093290084600448,-0.007709012607904151,-0.018083402791939443
1782812120346564000,1.159564208984375,-0.0046510406762361525,0.006621180838579312,-0.028111292509688062
1782812120356635100,1.16963525390625,-0.014379238486289978,-0.0009123382051009684,-0.030206339976622254
1782812120366706200,1.1797060546875,-0.009293313524127007,-0.008121812926186248,-0.0321800283694989
1782812120376776200,1.189776123046875,-0.015578092882037162,0.004125966489361599,-0.02269909473522566
1782812120386847200,1.19984716796875,-0.017374328649044035,0.008511296300962567,-0.024739423190103842
1782812120396918000,1.20991796875,-0.022912089031934736,-0.011313914365228266,-0.013313810345018282
1782812120406989000,1.219989013671875,-0.01079202764928341,-0.003380390552757308,-0.02602540331345517
1782812120417060000,1.23006005859375,-0.019769699352979658,0.008265431781113147,-0.023025881287467197
1782812120427131100,1.240131103515625,-0.001513327172398567,-0.0016385883867274969,-0.02617271652938798
1782812120437201000,1.250200927734375,0.003124269500374794,-0.011294926536967977,-0.026940001974301412
1782812120447272000,1.26027197265625,-0.013036591705679893,-0.0017085848830174653,-0.01445724932567682
1782812120457343000,1.270343017578125,-0.0043570261657238,0.0009394819403532892,-0.03784235813026316
1782812120467414000,1.2804140625,-0.006602174744009971,0.004254141179984435,-0.03363475950574502
1782812120477486300,1.290486328125,0.0022235212683677672,-0.004536949309892952,-0.02246541841009166
1782812120487557000,1.30055712890625,0.01000467666387558,0.011180606841761618,-0.016781470472563523
1782812120497627100,1.310627197265625,-0.0025660510957241055,0.018738100416073575,-0.011795014696347061
1782812120507698200,1.3206982421875,-0.0030155484288930893,0.002784726214548573,-0.019303168686619028
1782812120517769200,1.330769287109375,-0.004662146592140198,0.0040484716732054945,-0.032741779021662656
1782812120527840300,1.34084033203125,-0.002119476372003555,-0.008456552172731608,-0.00970211123743793
1782812120537911300,1.350911376953125,-0.012893968364596366,-0.01711192398634739,-0.002256305868184427
1782812120547982300,1.360982421875,-0.022170915275812147,-0.016853693175269288,-0.02426912738078972
1782812120558053400,1.371053466796875,-0.004515431597828865,0.00017364866700954736,-0.022874665931263007
1782812120568123400,1.381123291015625,-0.01663607750236988,0.0030457609040662643,-0.026211815563915296
1782812120578194400,1.3911943359375,-0.006610358050465583,0.004533040319755673,-0.013384258932457305
1782812120588265200,1.40126513671875,0.004015080860257148,0.011637054505525156,-0.010872923423856264
1782812120598336300,1.411336181640625,-0.014689619609713553,-0.003055305050546303,-0.009325884636456613
1782812120608407300,1.4214072265625,-0.01588672043979168,0.00565208007809706,-0.012193668899912153
1782812120618478300,1.431478271484375,-0.020524901634454727,0.0006924849093426018,-0.0329884472591104
1782812120628548400,1.44154833984375,-0.016185411125421524,0.011744734397390856,-0.019425132832163943
1782812120638619100,1.451619140625,-0.012894552886486053,-0.004478058729507029,-0.02366600353862159
1782812120648690200,1.461690185546875,-0.0043634559065103525,-0.006374777462612837,-0.01475105263199075
1782812120658761200,1.47176123046875,-0.019178747722506523,0.00806293147895485,-0.009982784492475912
1782812120668832300,1.481832275390625,-0.00765489866733551,0.014833366328803822,-0.012746190499427029
1782812120678903300,1.4919033203125,-0.01049567505121231,-0.003867434284184128,-0.026420946536259725
1782812120688973300,1.501973388671875,-0.004808277064561843,0.005474358024168759,-0.022194245919049716
1782812120699044400,1.51204443359375,-0.008402502164244652,-0.0003049560296349227,-0.022207543792040086
1782812120709115400,1.522115478515625,-0.0046603930264711374,0.0017383407004643232,-0.013500421241589355
1782812120719186400,1.5321865234375,-0.00899988353550434,0.012789192815870046,-0.024796779400529337
1782812120729257500,1.542257568359375,-0.006902034473419189,-0.006678747111558914,-0.03664455633057514
1782812120739328500,1.55232861328125,-0.018124270233511923,-0.008179141737148165,-0.037074963087495416
1782812120749398300,1.562398193359375,-0.004058335480093956,-0.003089490447938442,-0.018389232179475946
1782812120759469300,1.57246923828125,-0.001064998883008957,0.0025130696663167324,-0.017240234532643808
1782812120769540400,1.582540283203125,-0.011688099706172942,0.004523788434220478,-0.018561137555615278
1782812120779611400,1.592611328125,-0.013633388555049895,0.008116871889587492,-0.016353708905522943
1782812120789682200,1.60268212890625,-0.01153787758052349,-0.006583314779913052,-0.023667569874622856
1782812120799753200,1.612753173828125,-0.023958383214473723,-0.002523353598313406,-0.029630837077030445
1782812120809823200,1.6228232421875,0.0026771102547645566,-0.0052201823337003584,-0.028657071557873857
1782812120819894300,1.632894287109375,0.011655366480350494,-0.00328737850706093,-0.01910152119276463
1782812120829965300,1.64296533203125,0.002528641694784164,0.005035226821387186,-0.021147351231600622
1782812120840036000,1.6530361328125,-0.009143675920367241,0.0017892397706396877,-0.033567005198891275
1782812120850107100,1.663107177734375,-0.005253682744503021,-0.009132040281500668,-0.013473678223491879
1782812120860178200,1.67317822265625,-0.004805938977003097,-0.0006739811382722109,-0.011911580005922587
1782812120870248200,1.683248291015625,0.00013210194706916807,-0.001847847223235294,-0.01621720591961639
1782812120880319200,1.6933193359375,-0.01707563796341419,-0.011004300426784902,-0.011977345568378222
1782812120890390300,1.703390380859375,0.002525719085335731,-0.0012266374518163502,-0.025581865363614634
1782812120900461300,1.71346142578125,-0.01917348702549934,0.004143986203242093,-0.021427513029985128
1782812120910532400,1.723532470703125,-0.005257774397730827,0.005490277112508192,-0.010150516016996698
1782812120920603400,1.733603271484375,-0.013338789522647857,0.014342788066575303,-0.02322458904720843
1782812120930673400,1.74367333984375,-0.018127192842960358,-0.009013747664075344,-0.006493563270382583
1782812120940744200,1.753744140625,0.0037210663497447964,-0.017756870826380326,-0.01405491103590466
1782812120950815200,1.763815185546875,-0.0018149404674768447,0.0014621267081238328,-0.01873055871372344
1782812120960886300,1.77388623046875,-0.002412321838736534,-0.0012978395245037972,-0.01922374449156923
1782812120970957300,1.783957275390625,0.008961889612674712,-0.00813174979831092,-0.005021524806309025
1782812120981028400,1.7940283203125,-0.00301028773188591,-0.00912256920025684,-0.024182876152731476
1782812120991098000,1.80409814453125,-0.0028588965624570845,-0.007006682157982141,-0.010678979745844844
1782812121001169200,1.814169189453125,-0.0006125789403915405,0.0025801435531582683,-0.013279631797492038
1782812121011240200,1.824240234375,-0.01168342353105545,0.0000646810003556311,-0.004137063272111117
1782812121021311200,1.834311279296875,-0.012732055801153183,0.009720005370443686,0.000010572768008569255
1782812121031382300,1.84438232421875,0.0020797288835048672,-0.008112451442796736,-0.010083684158750111
1782812121041453300,1.854453369140625,-0.019022095856070516,-0.00343039457378909,-0.02230542380909901
1782812121051523300,1.8645234375,-0.01902326489984989,-0.0018609441668260842,-0.017379420382692478
1782812121061594400,1.874594482421875,0.009557517418265342,0.0066805098103825,-0.01375241068319301
1782812121071665400,1.88466552734375,-0.005405658435821533,0.010843091116240247,-0.025463380949944256
1782812121081736400,1.894736328125,-0.00974631798863411,0.009845476647326722,-0.012206471299269469
1782812121091807500,1.904807373046875,-0.0010679214924573899,0.002393863733438775,-0.014001039123930968
1782812121101878300,1.914878173828125,-0.014235446101427077,0.00430105819478631,-0.02851879103176761
1782812121111948300,1.9249482421875,-0.00032090251743793486,0.0018838775178417562,-0.006617844953888561
1782812121122019300,1.935019287109375,-0.0061573535859584805,0.009851431464077904,-0.010082290211040526
1782812121132090400,1.94509033203125,-0.011694529446959494,-0.007621809248486534,-0.005559133106126683
1782812121142161400,1.955161376953125,0.006259644916653633,-0.003732181398803368,-0.017268850989063503
1782812121152232200,1.965232177734375,0.006707973206043243,0.0025546346525661644,-0.008863104271673364
1782812121162303200,1.97530322265625,0.005511456897854805,-0.009459080278780311,-0.011586083511757897
1782812121172373200,1.985373291015625,-0.00032382512688636776,-0.0007200122370850295,-0.01783930896242382
1782812121182444300,1.9954443359375,0.005513794985413551,0.0021745310274884104,-0.028750485462369395
1782812121192515300,2.005515380859375,-0.004959083712100983,-0.0058761072254739696,-0.01510857909907936
1782812121202586000,2.015586181640625,-0.00032090251743793486,0.005508470356324687,-0.025439904176234266
1782812121212657200,2.0256572265625,-0.01722995174229145,0.004944141871295869,-0.01766732138789375
1782812121222728200,2.035728271484375,-0.01812836188673973,0.012439977519400416,-0.01392645778406877
1782812121232798500,2.045798583984375,-0.0016693945169448852,0.005598294931091368,-0.02011933020798024
1782812121242869500,2.055869384765625,-0.0025689737051725384,0.009912221740605309,-0.010155188767181243
1782812121252940300,2.065940185546875,-0.009752163207530975,0.007394850358506664,-0.026138088174001314
1782812121263011300,2.07601123046875,-0.00092412910759449,0.00906920417835936,-0.03910191147099249
1782812121273082400,2.086082275390625,-0.006311667364835739,-0.00433869592458941,-0.01254906277541886
1782812121283153400,2.0961533203125,-0.009603694647550582,0.012888132278854027,-0.019850550603424198
1782812121293223400,2.106223388671875,-0.005115151056647301,-0.001311858916701749,-0.03573709751327987
1782812121303294200,2.116294189453125,-0.0212754277408123,0.0013175214725080877,-0.00629928394894232
1782812121313365200,2.126365234375,-0.0034703064590692516,-0.003056145300762728,-0.013335750465479213
1782812121323436300,2.136436279296875,-0.0037701661884784695,0.00508470111945644,-0.009117212605127134
1782812121333507300,2.14650732421875,-0.013346972829103469,-0.00794178018416278,-0.0024953935873752923
1782812121343578400,2.156578369140625,-0.009306173005700111,-0.003961624506814405,-0.01716800612171646
1782812121353648000,2.166648193359375,-0.003771335232257843,0.013364992542983962,-0.021070080177730415
1782812121363719200,2.17671923828125,-0.017089081966876984,-0.005517722241859883,-0.01950750018625986
1782812121373790200,2.186790283203125,-0.004818213936686516,0.02063582379617728,-0.01878132535315817
1782812121383861200,2.196861328125,-0.010053191980719566,0.0038717177336569874,-0.012924234497052383
1782812121393932300,2.206932373046875,-0.0007762450695037841,-0.009092932113818824,-0.008112519941455685
1782812121404003300,2.21700341796875,-0.01454465818107128,0.0026897505406290293,-0.01962986162402667
1782812121414073300,2.2270732421875,-0.01783726998567581,-0.008501943950727581,-0.016612406649126204
1782812121424144400,2.237144287109375,0.015082418319582938,0.007248783818166703,-0.013847672909835818
1782812121434215400,2.24721533203125,0.0077495912134647365,-0.002422487039724365,-0.012101226534729358
1782812121444286500,2.257286376953125,-0.016194178953766823,0.013257257852191104,-0.012842480205954052
1782812121454357200,2.267357177734375,-0.0006312836408615112,-0.00865625772960484,-0.019154407865693793
1782812121464428300,2.27742822265625,-0.02023380973339081,-0.0013305544840171931,-0.020055146964546293
1782812121474498300,2.287498291015625,0.0028097967237234113,0.0023153094713576137,-0.03205939309793757
1782812121484568800,2.29756884765625,-0.0036252047598361965,-0.0022900654322467744,-0.03107079761911882
1782812121494639900,2.307639892578125,-0.010810147827863693,-0.002561173991207033,-0.01570267367635388
1782812121504711000,2.3177109375,-0.0033270985960960385,-0.007778689443785697,-0.030089191286801358
1782812121514782000,2.327781982421875,-0.0036269583255052564,-0.0015739530521444976,-0.004606900140410289
1782812121524853000,2.33785302734375,0.007447977918386459,-0.006476182877318933,-0.005777503405918832
1782812121534922800,2.3479228515625,-0.0072176762938499445,0.013039295119419694,-0.015504096064064651
1782812121544993800,2.357993896484375,-0.008116086438298226,0.011743528820993379,-0.015597767980175557
1782812121555064800,2.36806494140625,-0.012006079614162444,0.0001941434657666832,-0.008297160359937697
1782812121565136000,2.378135986328125,-0.002579495099186897,0.009329462549742311,-0.02549609362616902
1782812121575207000,2.38820703125,-0.0009323124140501022,-0.0015106237586587667,-0.01765526448227465
1782812121585277700,2.398277587890625,-0.022930209210515022,0.007381433754507452,-0.009213341339805628
1782812121595348000,2.408347900390625,-0.015896657311916352,0.0032978725016117095,-0.014566484137100632
1782812121605419000,2.4184189453125,-0.009161796098947525,0.00843037655185908,-0.01637666623106925
1782812121615490000,2.428489990234375,-0.012004326048493384,-0.003279195200605318,-0.018160245729191227
1782812121625561000,2.43856103515625,0.001762333497405052,-0.0028372418530751018,-0.01666187181404093
1782812121635631900,2.4486318359375,0.005502689069509506,0.005747083151480183,-0.009295953005785122
1782812121645703000,2.458702880859375,-0.012903320714831351,0.003965953622059896,-0.026355162707495036
1782812121655773000,2.46877294921875,-0.0010825345396995544,0.00924186646468006,-0.008668009816191624
1782812121665844000,2.478843994140625,0.00774549956023693,-0.0023463073978200553,-0.006831069862749427
1782812121675915000,2.4889150390625,-0.004376899909973145,0.008536987864645197,-0.00726686518084025
1782812121685985800,2.49898583984375,-0.006170213067531585,0.01572116374769248,-0.01668449692109134
1782812121696056800,2.509056884765625,-0.010361235016584395,0.0021876736368518323,-0.014633916500257327
1782812121706128000,2.5191279296875,-0.00168225399851799,0.004443307076534256,-0.01673648511994397
1782812121716198000,2.529197998046875,-0.010061959809064864,-0.0003221720259170979,-0.020650048684352076
1782812121726269000,2.53926904296875,-0.0049742812812328336,-0.0036226292102597654,-0.019432695084111763
1782812121736339700,2.549339599609375,-0.009910568639636038,0.0064480162287596605,-0.012338508172612636
1782812121746410800,2.55941064453125,-0.0030278233885765076,0.0021442546202335507,-0.030238559462502597
1782812121756481800,2.569481689453125,-0.0049719431936740876,-0.0025490999609231947,-0.027015471513441296
1782812121766552800,2.579552734375,-0.012154548174142837,-0.00569670467111282,-0.028176032875548117
1782812121776622800,2.589622802734375,-0.006619710400700569,0.0009960070337168873,-0.018189037998835554
1782812121786694000,2.59969384765625,-0.002579495099186897,0.009062052918365225,-0.010650236566906095
1782812121796765000,2.609764892578125,-0.012455576947331428,0.007106142210774123,0.0003391140275634825
1782812121806836000,2.6198359375,-0.014848025041818617,0.010010969407344236,-0.01895409952062182
1782812121816907000,2.629906982421875,-0.012453823381662368,-0.0018101272950414567,-0.03212391426808899
1782812121826978000,2.63997802734375,-0.012602876463532448,0.024475274094892665,-0.03287516874352004
1782812121837047800,2.6500478515625,0.0011637830823659895,0.007259798402525484,-0.025464081919554155
1782812121847118800,2.660118896484375,-0.004072364005446433,-0.0027230226225685326,-0.026827604808122848
1782812121857190000,2.67018994140625,-0.017391279783844946,-0.01011886849491857,-0.010493451128085144
1782812121867261000,2.680260986328125,-0.0015279402196407318,-0.00933272308590822,-0.011046806127950549
1782812121877332000,2.69033203125,-0.023825112223625183,-0.004016450833436102,-0.021000081398151814
1782812121887402800,2.70040283203125,-0.015744681620597837,0.00691618172978051,-0.010796817988832481
1782812121897472800,2.71047265625,0.0029611878931522367,-0.0016967117821332066,-0.012479407630779314
1782812121907543800,2.720543701171875,-0.004518938729166984,0.0014917729277163744,-0.0213386246035574
1782812121917614800,2.73061474609375,-0.00047872342765331263,0.008982786270231007,-0.029291024363145696
1782812121927686000,2.740685791015625,-0.003920388314127922,0.004923418743675574,-0.012275567038194275
1782812121937756700,2.750756591796875,0.0008685995280742645,0.006084297482902184,-0.016687892171286512
1782812121947827700,2.76082763671875,-0.006612696138024329,-0.0011538644765503705,0.0026305402998346833
1782812121957898000,2.77089794921875,-0.008408347383141517,-0.004566778192576021,-0.01564459366343217
1782812121967969000,2.780968994140625,0.001616203024983406,-0.0022558800348546353,-0.011343535468645858
1782812121978040000,2.7910400390625,0.006703881552815437,0.007446544013125822,-0.012686428844428155
1782812121988110800,2.80111083984375,-0.01723871957063675,0.014084429391333832,0.010073748428269755
1782812121998182000,2.811181884765625,-0.0009299743264913558,0.014609540110826491,-0.01232668302078964
1782812122008253000,2.8212529296875,-0.01739069526195526,-0.00704937965539284,-0.014546562443790025
1782812122018323000,2.831322998046875,-0.013650339689850806,0.004838179012481123,-0.01603471179244807
1782812122028394000,2.84139404296875,-0.010061375287175179,0.0034684889613185075,-0.024893401325552258
1782812122038464800,2.85146484375,-0.000633037206530571,0.00563415169576183,-0.021973340027232186
1782812122048535800,2.861535888671875,-0.011403437545895576,-0.00014086977541446686,-0.004334366809343919
1782812122058606800,2.87160693359375,-0.01723696600496769,-0.0020890995000489056,-0.023703488288086372
1782812122068678000,2.881677978515625,-0.0022708675414323805,-0.0018263934432528911,-0.02140751827143831
1782812122078748000,2.891747802734375,-0.006011223113536834,-0.0018517836128361521,-0.003801333078299649
1782812122088818700,2.901818603515625,-0.01439092892408371,0.0021673706343397496,-0.0061554082240443675
1782812122098889700,2.9118896484375,-0.010199322453141212,0.013724647035077213,-0.010290517001086845
1782812122108960800,2.921960693359375,0.0007242226213216781,-0.0023168986402451993,-0.01084347014215309
1782812122119031800,2.93203173828125,-0.01678279249668121,-0.011310781693225726,-0.010837065517541487
1782812122129102000,2.94210205078125,-0.01109480998814106,0.006329440483544021,-0.007516161483502946
1782812122139172900,2.9521728515625,-0.012891045755147934,-0.0075432732527144246,-0.032820821907510976
1782812122149244000,2.962243896484375,-0.012590016981959343,-0.006320289062708616,-0.007980678289290517
1782812122159315000,2.97231494140625,-0.0036123452782630917,-0.010601765774190424,-0.009113954352249857
1782812122169386000,2.982385986328125,-0.0042097266495227815,-0.0024737331697717306,-0.01567123507518554
1782812122179457000,2.99245703125,-0.007799860095977783,0.006873995689023285,-0.0029806118295411578
1782812122189526800,3.00252685546875,-0.004358195209503174,0.002969553862698376,-0.013866108182247261
1782812122199597800,3.012597900390625,-0.00016600421667099,0.005183448786195367,-0.003576696292858105
1782812122209668900,3.0226689453125,-0.008394318857789039,0.00013470489610917864,-0.0100188673027209
1782812122219740000,3.032739990234375,0.0005815992802381515,0.010436565275117755,-0.013271391408820636
1782812122229811000,3.04281103515625,0.011204700103402137,-0.007883601989829913,-0.007167147116432898
1782812122239882000,3.052882080078125,-0.0022626842349767686,-0.010580987847642973,-0.011944510736211668
1782812122249951700,3.06295166015625,-0.0018114333361387252,0.003174693646514788,-0.005807976175996009
1782812122260022800,3.073022705078125,-0.000014613047242164611,0.011318754937127232,-0.01560342140282737
1782812122270093800,3.08309375,-0.005549450820684433,-0.0001695478806272149,-0.021727731235709504
1782812122280164900,3.093164794921875,-0.006298807883262634,-0.02314734995937906,-0.03819664461078355
1782812122290236000,3.10323583984375,-0.0070446578145027154,-0.005926175178587436,-0.020236885323177557
1782812122300306700,3.113306640625,-0.0021054478466510772,-0.0012089921972714365,-0.023213604145601856
1782812122310377000,3.123376953125,-0.005395721563696861,-0.000007571385102346539,0.0027785955845727583
1782812122320448000,3.133447998046875,-0.006292962664365768,0.00022233751378953457,-0.009584257011429871
1782812122330519000,3.14351904296875,-0.0029991818159818646,-0.007532139937346801,-0.025275075853208543
1782812122340590000,3.153590087890625,-0.01018061775267124,-0.0002717113471589982,-0.03100357531851623
1782812122350660900,3.163660888671875,-0.01916004302203655,-0.005159136328846216,-0.026357199400954413
1782812122360732000,3.17373193359375,-0.004945055186748504,-0.009172235294571146,-0.014729894537886139
1782812122370802000,3.183802001953125,-0.008686579802632332,-0.0002799037867691368,-0.0015436423955601639
1782812122380873000,3.193873046875,-0.009285130217671394,-0.0049566451598424465,-0.006699990828987211
1782812122390944000,3.203944091796875,-0.004198620733618736,-0.004996155186323448,-0.016350981517252512
1782812122401014800,3.214014892578125,-0.002103109759092331,-0.0039771326032001526,-0.020536418542312456
1782812122411085800,3.2240859375,0.014206804528832434,0.016232912662113085,-0.018667941806290764
1782812122421156900,3.234156982421875,-0.007192541852593421,0.00910165427639149,-0.022090771844843402
1782812122431227000,3.244226806640625,-0.005845803418755531,-0.006600777371367439,-0.018152825041138566
1782812122441298000,3.2542978515625,-0.007643208229541778,-0.0021544015549123286,-0.014456249245256184
1782812122451368700,3.26436865234375,-0.0021060323685407637,0.006330426864232868,-0.010334764851478393
1782812122461439700,3.274439697265625,-0.006146247670054435,-0.005976480593718588,-0.008798632192227523
1782812122471510800,3.2845107421875,-0.00644493835568428,0.006102107134228572,-0.01667745297566289
1782812122481581600,3.29458154296875,-0.007488309928774833,-0.00015948314433917403,-0.010923828202253207
1782812122491651800,3.30465185546875,0.0010445406168699263,0.006920894437516108,-0.015185008761088829
1782812122501723000,3.314722900390625,-0.005538929426670074,0.013914981975406408,-0.021500685580761635
1782812122511794000,3.3247939453125,0.006131634622812271,0.001402185814967379,0.0007394704228034242
1782812122521864700,3.33486474609375,-0.009579144728183745,0.0023757344217039643,-0.026239689951529723
1782812122531935700,3.344935791015625,-0.008231821772456169,0.005611775467172265,-0.01352654891340062
1782812122542006800,3.3550068359375,-0.004042553389072418,-0.006588776406319811,-0.0031879367205779998
1782812122552076800,3.365076904296875,-0.011824877828359602,-0.006822228969167917,-0.01981034417391056
1782812122562147800,3.37514794921875,-0.012422843721508979,-0.006558107273420318,-0.03394473648708081
1782812122572218600,3.385218505859375,0.004787234276533127,-0.0001022091323044151,-0.014270999188709537
1782812122582289700,3.39528955078125,-0.0031429742008447646,-0.009763442653371021,0.0008835048362612724
1782812122592360700,3.405360595703125,-0.009129062873125076,-0.008653910508891567,0.0009481470207101665
1782812122602431700,3.415431640625,0.010325579181313514,-0.013141321588633582,-0.026169033584825228
1782812122612501800,3.425501708984375,0.01451367852091789,0.0013434778976719826,-0.01336740141249029
1782812122622572500,3.435572509765625,-0.007183774024248123,-0.01001356322322972,-0.007917241681239102
1782812122632643600,3.4456435546875,0.007781155395507812,0.001844449689751491,-0.010228046224126592
1782812122642714600,3.455714599609375,0.002994505640864372,0.0010985084269661456,-0.01270469515348086
1782812122652785700,3.46578564453125,0.009430091646313667,0.0044646512586623424,-0.005837830174854025
1782812122662856700,3.475856689453125,-0.011966332125663757,-0.00417619883925654,-0.00862566394523019
1782812122672926700,3.4859267578125,0.006589899784326553,-0.009174564248975366,0.004757556090899743
1782812122682997800,3.495997802734375,-0.011216390541195869,0.012917093511857092,-0.0173184657093836
1782812122693068800,3.50606884765625,-0.015405658924579619,-0.003018343174178153,-0.00959441992912907
1782812122703139800,3.516139892578125,-0.0031347908943891523,-0.0029037220848724243,-0.02192200484892819
1782812122713211000,3.5262109375,-0.01166471883058548,0.00616106164669618,-0.021030417170911093
1782812122723280600,3.53628076171875,-0.0016395839005708694,-0.0023384711512364448,-0.015079285647580399
1782812122733351700,3.5463515625,-0.006427987220883369,-0.013539974650554358,-0.015808268925698938
1782812122743422700,3.556422607421875,-0.006877484554052352,0.005201084907585755,-0.018041293241351376
1782812122753493800,3.56649365234375,-0.001640168422460556,0.0005734890390187502,-0.015847564323048572
1782812122763564800,3.576564697265625,-0.008522329151630401,-0.0020939126724842934,-0.007430255032028071
1782812122773635800,3.5866357421875,-0.008670213189721106,0.002884688590839505,-0.01110079220435582
1782812122783705600,3.59670556640625,-0.009718260937929152,-0.0028987901814281937,-0.014503789597854483
1782812122793776600,3.606776611328125,-0.009118541479110717,0.0014972071546595542,-0.008480481037590653
1782812122803847700,3.61684765625,-0.003731587743759155,0.0017782799852080642,-0.029499778592865913
1782812122813918700,3.626918701171875,0.002552607092261314,0.001210353037295863,-0.01683704571785638
1782812122823989800,3.63698974609375,0.002551438048481941,-0.011332920459797606,-0.02532231252841884
1782812122834060500,3.647060546875,0.005844634374976158,0.00743765745377168,-0.012914867305441294
1782812122844130800,3.657130859375,-0.002983399724960327,-0.010581490171141923,-0.003628373964456841
1782812122854201900,3.667201904296875,-0.015254267755150794,-0.009946854662569239,-0.004187816211814061
1782812122864273000,3.67727294921875,-0.007323474755883216,-0.009917820364329963,-0.006408476519526448
1782812122874344000,3.687343994140625,-0.014057166925072669,-0.001265973948361352,-0.012754959469416644
1782812122884414700,3.697414794921875,-0.005227963781356811,-0.007166521495347842,-0.02299796351736877
1782812122894485800,3.70748583984375,0.0064461073994636535,0.0033197372735477983,-0.004261175992258359
1782812122904555800,3.7175556640625,-0.0041799160331487655,-0.0006227715408429503,-0.026225624893559143
1782812122914626800,3.727626708984375,0.000609071809053421,-0.009020195671170949,-0.009493096712813712
1782812122924697900,3.73769775390625,0.002554360657930374,0.007896698933420702,-0.009520345479343086
1782812122934768600,3.7477685546875,-0.008368015372753142,0.009415579063771292,-0.01105641192322364
1782812122944839700,3.757839599609375,-0.009118541479110717,0.005245362440729514,-0.009365956351940985
1782812122954910700,3.76791064453125,-0.004628828844428062,-0.00780720315221697,-0.01897162147758063
1782812122964980700,3.777980712890625,-0.013307809862494469,-0.010678192011266947,-0.013691566749382763
1782812122975051800,3.7880517578125,-0.002237549793720245,0.0004445471634157002,-0.02122983959999401
1782812122985122600,3.79812255859375,-0.022138766571879385,-0.0028746421208605166,-0.01838124295255402
1782812122995193600,3.808193603515625,-0.005977905365824699,-0.010499885435448959,-0.017785592314077076
1782812123005264600,3.8182646484375,-0.0013385551273822783,-0.006661238854331895,-0.021466413418401498
1782812123015335700,3.828335693359375,0.006593991437554359,0.0023566917945165187,-0.018691966569272335
1782812123025406000,3.838406005859375,-0.008218962290883064,-0.003724445616919547,-0.007060035763436463
1782812123035476700,3.848476806640625,-0.009865560454130172,0.0015163137139286844,-0.005208811556315049
1782812123045547800,3.8585478515625,-0.0005880290210247039,-0.0034040910887531933,-0.024509247146442065
1782812123055618800,3.868618896484375,-0.008068740165233611,-0.004056855909060687,-0.02729394824481569
1782812123065689900,3.87868994140625,-0.0041787469893693925,-0.022271763568092136,-0.014858845546643714
1782812123075759600,3.888759521484375,-0.0044791912406682965,-0.010707208043197169,-0.0016280806924449279
1782812123085830700,3.89883056640625,-0.00163432320356369,0.010315030387835577,-0.007266748733120039
1782812123095901700,3.908901611328125,0.000012274959683418274,0.0035194976293481885,-0.010588755595567635
1782812123105972700,3.91897265625,-0.00896422770023346,0.007141770646581426,-0.025884307492466178
1782812123116043800,3.929043701171875,-0.009862053322792053,0.002831323568942025,-0.00932592573565198
1782812123126114800,3.93911474609375,0.010939911687374114,-0.0023052995339967308,-0.005695946619287133
1782812123136184600,3.9491845703125,-0.01135492222905159,-0.0073224335762672125,-0.020179108987643846
1782812123146255600,3.959255615234375,0.00016600421667099,-0.006990817868569865,-0.014800473272777162
1782812123156326700,3.96932666015625,-0.007167991933226585,0.0024208430719096213,-0.025913946862192824
1782812123166397700,3.979397705078125,-0.011508066964149475,-0.006354885452054441,-0.005214359947689809
1782812123176468700,3.98946875,-0.0174935711145401,0.0063468482760712505,-0.02003187112023588
1782812123186539800,3.999539794921875,-0.012854805397987366,-0.005009306928841397,-0.017822350977757015
1782812123196609800,4.00960986328125,0.0012105448335409164,0.00101746081369929,-0.011512380096374545
1782812123206680800,4.019680908203125,-0.008666706058382987,0.00588461932549253,-0.012455097456718795
1782812123216751900,4.029751953125,0.00539747512936592,0.0033219200974795964,-0.00831949092275463
1782812123226823000,4.039822998046875,0.0007581248909235,-0.008143339771404861,-0.008835760748665778
1782812123236893700,4.049893798828125,-0.008369768938422202,-0.012199675090657546,-0.017443119568936526
1782812123246964700,4.05996484375,-0.0059749827563762665,0.004952416509296745,-0.019722923902072944
1782812123257034800,4.07003466796875,0.003304302242398262,-0.0017585615045856682,-0.019461980544100515
1782812123267105800,4.080105712890625,-0.02303308506309986,0.00025819427845999595,-0.019095179358590394
1782812123277176800,4.0901767578125,0.00509644635617733,-0.009892959917709231,0.004919270008231978
1782812123287247600,4.10024755859375,-0.012411153283715247,-0.004171988455019891,-0.004214583204442169
1782812123297318700,4.110318603515625,0.002103109759092331,0.01156988015398383,-0.023263357004884164
1782812123307388700,4.120388671875,0.010031564670801163,-0.006099312388943508,-0.012890417850774246
1782812123317459700,4.130459716796875,0.004195113602280616,0.003203645746363327,-0.015656290951091795
1782812123327530800,4.14053076171875,-0.003135375416278839,0.004429497746890411,-0.027069254377158358
1782812123337601500,4.1506015625,0.002103109759092331,0.00001527976752258837,-0.022479707230348138
1782812123347672600,4.160672607421875,-0.011064414849877358,-0.010799790830630809,-0.023841177442437037
1782812123357743600,4.17074365234375,-0.007024199548363685,-0.016900336195435375,-0.016202391942974646
1782812123367814000,4.18081396484375,-0.011963409516215323,0.004552000748552382,-0.011276361117104533
1782812123377885000,4.190885009765625,0.004348258337378502,0.016012383512919767,-0.012069694318727123
1782812123387955700,4.200955810546875,-0.007921440649032592,-0.0031933983469847587,-0.004210283771948889
1782812123398026800,4.21102685546875,0.00120820674598217,-0.00001875949939712882,-0.014011857345467433
1782812123408097800,4.221097900390625,-0.004027940341830253,0.005469033395079896,-0.031057237167935816
1782812123418167800,4.231167724609375,0.0004588496834039688,-0.00937363961818628,-0.019499241531279403
1782812123428238800,4.24123876953125,-0.00836859989464283,0.002520047396374866,-0.01994942156774923
1782812123438309600,4.2513095703125,-0.013009119176864623,-0.006199968884978443,-0.006923170876281801
1782812123448380700,4.261380615234375,-0.012560206365585327,0.0016004026676528155,-0.017676211372180842
1782812123458451700,4.27145166015625,-0.0044791912406682965,-0.016855802933964877,-0.021074164981092325
1782812123468522800,4.281522705078125,-0.0059761518001556395,0.0029392317896708843,-0.014724910118803381
1782812123478592800,4.2915927734375,-0.0025356559574604034,-0.010889935065805911,-0.012692109666543546
1782812123488663800,4.301663818359375,0.012276713249087332,-0.009903517844341694,-0.012776970371825154
1782812123498734800,4.31173486328125,0.006292378142476082,0.001990945488354191,-0.007297799175221007
1782812123508806000,4.321805908203125,-0.0029845687687397003,-0.007172640708880499,-0.006623050851968583
1782812123518877000,4.331876953125,0.0012058686584234238,-0.0010663597230333834,-0.028488544307264965
1782812123528948000,4.341947998046875,-0.002085574102401733,-0.009063368092617019,-0.02223906230831053
1782812123539018000,4.35201806640625,0.013028992921113968,-0.005564867585524916,0.005859462051349692
1782812123549089000,4.362089111328125,0.0037508769661188123,0.002073682735208422,0.0051841018067440015
1782812123559160000,4.37216015625,-0.0017857143729925154,0.015978864835808054,-0.009798653247358742
1782812123569231000,4.382231201171875,0.0052472530037164684,-0.0032094087668694555,-0.011790537167340517
1782812123579302100,4.39230224609375,-0.005525485423207283,0.0025875596746336668,-0.021589386777521577
1782812123589373200,4.402373291015625,0.0015074819535017012,0.0018143559455871582,-0.016297639328241346
1782812123599443000,4.41244287109375,-0.007021861460804939,-0.005378222439624369,-0.0010806142939603887
1782812123609514000,4.422513916015625,-0.008369184416532517,0.002869189627608284,-0.0157319933856721
1782812123619585000,4.4325849609375,-0.01749824728965759,-0.0034761973437387496,-0.0075417251830222085
1782812123629656000,4.442656005859375,0.0010556465327739716,0.009167047662800177,-0.006664015333307907
1782812123639727000,4.45272705078125,0.0025520225703716277,-0.0020698468103073535,-0.0011517547178547828
1782812123649796900,4.462796875,0.008237082469463348,-0.011427393810218199,0.0009900818997179157
1782812123659868000,4.472867919921875,-0.0017880524605512619,0.011874196862801908,-0.017245295441895722
1782812123669939000,4.48293896484375,-0.0026847090393304824,-0.0034567893903702496,0.003061344348976854
1782812123680010000,4.493010009765625,-0.011812018346786498,-0.005603181168762967,-0.014174361280666199
1782812123690081000,4.5030810546875,-0.0037310032218694686,-0.013735287160100414,-0.01238055036618607
1782812123700151800,4.51315185546875,-0.021538462591171263,0.009369493166031315,-0.020350198088097383
1782812123710222000,4.52322216796875,-0.012560206365585327,-0.0024529187106061725,-0.01529156755823642
1782812123720293000,4.533293212890625,-0.0029828152030706404,-0.008465466131549328,-0.0005641640882473438
1782812123730364200,4.5433642578125,-0.005229132825136184,-0.007568288962962105,-0.01687569266123464
1782812123740435200,4.553435302734375,-0.004181669598817825,-0.0053626047453843055,-0.010306990928563754
1782812123750506000,4.563506103515625,-0.007621580919623374,0.006626286271959543,-0.016458955953351687
1782812123760577000,4.573576904296875,-0.005527823510766029,0.0016268522831611335,-0.015362822146562392
1782812123770647000,4.58364697265625,-0.0029839842468500134,-0.0028411599763669072,-0.01541409795936197
1782812123780718000,4.593718017578125,-0.01016542018353939,0.00021556984628550707,-0.004576283523149322
1782812123790789000,4.6037890625,0.0025520225703716277,-0.015992655899142845,-0.00691020179685438
1782812123800860000,4.61385986328125,-0.007325228321552277,-0.004553416387503967,-0.006539612635504454
1782812123810931000,4.623930908203125,-0.0013426467806100845,-0.004015354854892939,-0.017944321973167823
1782812123821001000,4.6340009765625,-0.00927402430176735,-0.007728457093890756,-0.016308128756214863
1782812123831072000,4.644072021484375,0.0016489362508058548,0.0009745075879618525,-0.016716574843076523
1782812123841143000,4.65414306640625,-0.001045125138759613,-0.0019998411808628586,-0.02052811193827074
1782812123851213800,4.6642138671875,-0.01107084459066391,0.005319258794002235,-0.008059725741716102
1782812123861284900,4.674284912109375,-0.011071429112553596,0.004901645303284749,-0.0018115885997656732
1782812123871356000,4.68435595703125,-0.004489128112792969,-0.006961043784813955,0.00035695564493071284
1782812123881426200,4.69442626953125,0.00014846855998039245,-0.00285262208529748,-0.011729148669191636
1782812123891497000,4.7044970703125,-0.013768413111567497,-0.0058172714440152045,-0.016241413345688488
1782812123901568000,4.714568115234375,-0.014966098463535308,0.006475424825493246,-0.011267120648012496
1782812123911639000,4.72463916015625,-0.006885083338618278,-0.007938081256579608,-0.009343497924960684
1782812123921710000,4.7347099609375,-0.006882160729169845,-0.007970348691521212,-0.00999885656115366
1782812123931781000,4.744781005859375,0.0056862289428710935,-0.0018938965883571655,0.005787700572947505
1782812123941851000,4.754850830078125,0.00239420166015625,0.009481337776361032,-0.009271521817427127
1782812123951922000,4.764921875,0.004639350238442421,0.0037494613271672277,-0.00365610450488748
1782812123961993000,4.774992919921875,0.010026303973793983,-0.0023577238409779964,-0.008811886682733893
1782812123972064000,4.78506396484375,-0.00613689531981945,-0.006539201643550768,-0.007704352415807079
1782812123982135000,4.795135009765625,-0.0031441432446241376,-0.004142205238109454,-0.014923088155582081
1782812123992206000,4.8052060546875,0.005534837773442268,0.00047139863772317764,0.0009251725704991258
1782812124002275800,4.81527587890625,-0.0058376201122999185,-0.0004463737943209707,-0.017486177825951018
1782812124012347000,4.825346923828125,0.004187514817714691,0.003936581397103145,-0.021952294955914838
1782812124022418000,4.83541796875,-0.0014987141251564026,-0.0037134492988698184,0.002258672496851068
1782812124032489000,4.845489013671875,-0.009128478351235389,0.0012434150566812605,0.010055107659881468
1782812124042560000,4.85556005859375,-0.007782324439287185,0.011139946037810294,-0.019069159001344815
1782812124052630000,4.865630126953125,-0.004193360036611557,0.015791525570163504,-0.01664762180969119
1782812124062701000,4.875701171875,-0.001052139401435852,0.0010818586862646042,-0.020275902159314137
1782812124072772000,4.885772216796875,-0.020055530557036398,-0.01033422827864997,-0.015538776935089845
1782812124082843100,4.895843017578125,-0.025292846688628197,-0.010186599968886002,0.0005575745172565803
1782812124092914200,4.9059140625,-0.007486556363105774,-0.004512426789989694,-0.0027112248702091165
1782812124102985000,4.91598486328125,0.004933364748954772,0.00373270198861137,-0.009302179533883462
1782812124113055000,4.926054931640625,-0.00838379746377468,0.004284709848184139,-0.007398989960795734
1782812124123126000,4.9361259765625,-0.010776830080151557,-0.00518647186034359,-0.013901805116713512
1782812124133197000,4.946197021484375,0.0016430910319089889,-0.011788354343408717,-0.0050119304274790916
1782812124143268000,4.95626806640625,-0.019008651852607725,-0.0007078742747195064,-0.008145785173529293
1782812124153339000,4.9663388671875,-0.0035959786653518675,-0.0022565741545986385,-0.011503313157218508
1782812124163410000,4.976409912109375,-0.005244330394268036,0.0033887291228398677,-0.023110525080328806
1782812124173480000,4.98647998046875,0.0010410334855318068,-0.003085398794710636,-0.015804789193824397
1782812124183551000,4.996551025390625,0.0002934299886226654,-0.0008635123610030859,-0.0017661420228425413
1782812124193622000,5.0066220703125,-0.00180208098590374,0.009063130630599334,-0.017646329973859246
1782812124203692800,5.01669287109375,-0.01796235767006874,0.015157849042816087,-0.01072740829772083
1782812124213763800,5.026763916015625,-0.01317220078408718,-0.006054304203437641,-0.019575791065942028
1782812124223835000,5.0368349609375,-0.01706394752562046,0.0016403328192420303,-0.0009614517435664311
1782812124233905200,5.0469052734375,-0.020804303097724915,0.00941738742836751,-0.007846450600505341
1782812124243976200,5.05697607421875,-0.012722703450918197,0.006175665560783818,0.00041114721731282767
1782812124254047000,5.067046875,-0.013021978658437728,0.00722585046715103,-0.007552118712873198
1782812124264118000,5.077117919921875,-0.011526187142729759,0.0009892850319854914,-0.004738559129484929
1782812124274189000,5.08718896484375,-0.0017997428983449935,0.009056993150757624,0.007525764995487407
1782812124284259000,5.097259033203125,0.002838438296318054,0.002479898049077019,-0.011037070185225456
1782812124294330000,5.107330078125,-0.010628946042060852,0.005494770624535158,-0.002422749617916997
1782812124304401000,5.11740087890625,-0.013919804280996323,-0.006857820872357115,-0.018300786711042745
1782812124314472000,5.127471923828125,-0.011225742891430855,-0.017224727577902374,-0.007712474073469639
1782812124324543000,5.13754296875,0.0017938976794481276,-0.0005464275021571666,0.0005024353800923563
1782812124334614000,5.147614013671875,-0.004940379011631012,-0.008014836287219078,0.002205821214895695
1782812124344684000,5.15768408203125,-0.0012000234395265579,0.007014427073020487,-0.015880199367459862
1782812124354754800,5.1677548828125,0.0019441198050975798,-0.009145593882817774,-0.00845072065356653
1782812124364825900,5.177825927734375,0.005534253251552581,0.006931516296230256,0.00003492518290877342
1782812124374897000,5.18789697265625,0.010022796842455862,0.006846550559671595,-0.004317032082052901
1782812124384968000,5.197968017578125,-0.0022504092752933503,0.0020663031463511285,-0.014070129154634195
1782812124395039000,5.2080390625,-0.004646949023008346,-0.01300467133061029,-0.009129215853463392
1782812124405109000,5.21810888671875,-0.020658757147192952,-0.01054177921526134,-0.0006513697309535927
1782812124415180000,5.228179931640625,-0.007041735205054283,-0.01070532661336474,-0.008999232798244338
1782812124425251000,5.2382509765625,-0.009437105908989905,0.0031546463723294434,-0.0054500843827263445
1782812124435322000,5.248322021484375,-0.004499649506807327,-0.006521656853705644,-0.015652612573106305
1782812124445393200,5.25839306640625,0.0017839608073234557,0.0008804543626494705,-0.00422402916951105
1782812124455464200,5.268464111328125,-0.018867197555303573,-0.011300296831829473,0.0025215977493557146
1782812124465534000,5.278533935546875,-0.00839081172645092,-0.0024111984607297927,0.002019192052015569
1782812124475605000,5.28860498046875,-0.0110842885941267,-0.011374448913428932,-0.008670916442619636
1782812124485675500,5.298675537109375,-0.008393149814009666,-0.004977450485853478,0.0020894488432095385
1782812124495746600,5.30874658203125,-0.0018108488142490385,-0.008309179591294378,-0.007370005894906353
1782812124505815600,5.318815673828125,-0.0018126023799180982,-0.008187462040921674,-0.00734132093982771
1782812124515886600,5.328886474609375,-0.01453296774327755,-0.008275679180491715,-0.011994606088788714
1782812124525957600,5.33895751953125,0.00013034838140010832,-0.0028505123266018926,-0.03509085833188146
1782812124536027600,5.349027587890625,0.0067179100781679145,0.0038385552495718,-0.02098121230090037
1782812124546098400,5.359098388671875,-0.004208557605743408,0.001321750123053789,-0.008275839010695927
1782812124556169500,5.36916943359375,0.000879120922088623,-0.006006638269964605,-0.028689482839999253
1782812124566240500,5.379240478515625,-0.00480886158645153,0.0053489141467493026,-0.017444288612715898
1782812124576311600,5.3893115234375,-0.005853402203321457,0.011474301691865548,-0.0027681997714331373
1782812124586382600,5.399382568359375,-0.015131518158316612,0.00011891367193311453,-0.01853490827745991
1782812124596452400,5.409452392578125,-0.02829845824539661,-0.004746162480628118,0.0032120573816820978
1782812124606523400,5.4195234375,0.0008814590096473693,-0.005664555967180058,-0.011435159274854232
1782812124616594400,5.429594482421875,0.0010316811352968215,-0.006330938320886343,-0.015054082707664928
1782812124626665500,5.43966552734375,-0.0019599018961191177,-0.004463783608982339,-0.009483294554718304
1782812124636736500,5.449736572265625,-0.000013444003462791442,-0.009675380777427927,-0.010774179182050283
1782812124646806500,5.459806640625,-0.013629881423711776,0.007947479272587224,-0.01077857222937746
1782812124656877600,5.469877685546875,-0.003904606223106384,0.0024975159041583537,-0.003735713646316435
1782812124666948600,5.479948486328125,-0.0006119944185018539,0.007543793842522427,-0.013970443056267686
1782812124677019600,5.49001953125,-0.0021077859342098237,0.013485440584877505,-0.003771501912327949
1782812124687090700,5.500090576171875,-0.0049514849275350565,0.0014198219363577662,-0.006765329416468739
1782812124697161700,5.51016162109375,-0.00405599739253521,-0.009531597525719552,-0.01610583166674478
1782812124707231500,5.5202314453125,-0.006153261932730674,-0.00501378217455931,-0.026489367563393897
1782812124717302500,5.530302490234375,0.004022679644823074,0.01397332456652075,-0.025710626859415785
1782812124727373600,5.54037353515625,-0.009745148944854736,-0.00404908359455876,-0.011736480308987666
1782812124737444600,5.550444580078125,-0.018122516667842863,0.007716090802662074,-0.013703576847584917
1782812124747515400,5.560515380859375,-0.14755845939815043,-0.00759056472685188,-0.044296685368800534
1782812124757586400,5.57058642578125,0.212470784291625,0.013449994812160729,0.05404726854059845
1782812124767656400,5.580656494140625,-0.136335639116168,0.027306488065980374,-0.04015086340149864
1782812124777727500,5.5907275390625,0.04816986440718174,-0.02222146728611551,0.004622218723839614
1782812124787798500,5.600798583984375,-0.0052495910912752144,0.02858128464161418,0.015805686526256614
1782812124797869600,5.61086962890625,-0.026199440139532088,-0.018009576078969983,-0.009809688381315209
1782812124807940600,5.620940673828125,0.019142507365345954,0.019280655460711567,0.010722058552457019
1782812124818011600,5.63101171875,0.015251929667592048,-0.014878292315918952,-0.017965597656636963
1782812124828081700,5.64108154296875,0.001633154159784317,-0.0088353862893302,0.005558045119093731
1782812124838152700,5.651152587890625,-0.0526852960050106,0.007894278647471218,-0.016975282861478626
1782812124848223500,5.661223388671875,0.01809387509524822,-0.012941405969206243,0.006615627880627289
