time,seconds_elapsed,z,y,x
1782812119258914600,0.07191455078125,-0.00008230190724134445,0.00034426036290824413,0.002267268020659685
1782812119268985600,0.081985595703125,-0.002393393311649561,0.0017895577475428581,-0.0021882003638893366
1782812119279056400,0.092056396484375,-0.001754645025357604,0.0013646038714796305,-0.0008839966030791402
1782812119289127400,0.10212744140625,-0.0006592869758605957,0.0007438210304826498,0.0008712928975000978
1782812119299197400,0.112197509765625,0.0022001764737069607,0.000501114409416914,-0.001275115879252553
1782812119309268500,0.1222685546875,-0.0017253231490030885,-0.0014267477672547102,0.0004495472239796072
1782812119319339300,0.13233935546875,0.0012959776213392615,0.000053184572607278824,-0.0015215273015201092
1782812119329410300,0.142410400390625,-0.0015642574289813638,-0.0024720248766243458,0.0013778561260551214
1782812119339481300,0.1524814453125,0.00037937285378575325,0.0011595610994845629,-0.00039747843402437866
1782812119349552400,0.162552490234375,-0.002001759596168995,0.0016256142407655716,0.0010534117463976145
1782812119359623400,0.17262353515625,0.0026656552217900753,-0.0008844942785799503,0.0003280492383055389
1782812119369693200,0.182693115234375,-0.0007373320404440165,0.0006689275614917278,-0.00006130487599875778
1782812119379764200,0.19276416015625,-0.00012346927542239428,-0.00033372407779097557,0.00041366450022906065
1782812119389835300,0.202835205078125,-0.000027062837034463882,0.0005144927417859435,-0.0013863660860806704
1782812119399906300,0.21290625,0.002124896738678217,0.002490128856152296,-0.00026164890732616186
1782812119409977300,0.222977294921875,-0.0013127115089446306,-0.0014281801413744688,0.00009841048449743539
1782812119420048400,0.23304833984375,0.0006585170631296933,-0.000443900004029274,0.0009251993033103645
1782812119430118400,0.243118408203125,-0.0016035718144848943,-0.0019560426007956266,0.0035252433735877275
1782812119440189400,0.253189453125,-0.0002755805617198348,-0.0012542207259684801,0.0003851648070849478
1782812119450260500,0.263260498046875,-0.0013879828620702028,0.0006723101250827312,0.0010118066566064954
1782812119460331500,0.27333154296875,0.0006623782683163881,-0.0022445986978709698,0.0004856542800553143
1782812119470402600,0.283402587890625,0.0006634435267187655,0.0015133880078792572,-0.0014853511238470674
1782812119480472000,0.29347216796875,-0.0016465411754325032,0.00021855905652046204,-0.00022686630836687982
1782812119490542000,0.3035419921875,-0.000048644375056028366,-0.0013899900950491428,0.00015849310148041695
1782812119500613000,0.313613037109375,-0.001307616475969553,0.002061546314507723,0.0003589301777537912
1782812119510684200,0.32368408203125,-0.0025529104750603437,0.0009560680482536554,0.00024574584676884115
1782812119520755000,0.3337548828125,0.0007129524601623416,0.00011500157415866852,0.001100976369343698
1782812119530826000,0.343825927734375,-0.001615182962268591,-0.0005169666837900877,-0.0014306246303021908
1782812119540897000,0.35389697265625,0.00015819049440324306,-0.00017279013991355896,0.0012423936277627945
1782812119550968000,0.363968017578125,-0.00038829015102237463,-0.0007256623357534409,0.001389133743941784
1782812119561038300,0.374038330078125,0.0005111872451379895,-0.0026809012051671743,0.0011993665248155594
1782812119571109000,0.384109130859375,-0.0014560897834599018,0.0014275572029873729,0.0014835258480161428
1782812119581180200,0.39418017578125,-0.0007159510860219598,-0.0021949566435068846,0.0009237552876584232
1782812119591251200,0.404251220703125,-0.0012448548804968596,0.00012359139509499073,-0.0006219433271326125
1782812119601322200,0.414322265625,0.0013303643791005015,-0.002205236116424203,-0.0003244018298573792
1782812119611393300,0.424393310546875,0.0012494042748585343,0.0005031984765082598,0.0005975845269858837
1782812119621463000,0.434463134765625,0.000656217394862324,-0.00015390990301966667,-0.0020293882116675377
1782812119631534000,0.4445341796875,0.0008623460889793932,-0.0013504682574421167,0.00014055531937628984
1782812119641605000,0.454605224609375,-0.0009930977830663323,0.0006548645906150341,0.00033159449230879545
1782812119651676200,0.46467626953125,0.0014783156802877784,0.0010607303120195866,-0.0014236948918551207
1782812119661747200,0.474747314453125,-0.000617325771600008,0.00027696206234395504,0.00045569782378152013
1782812119671818200,0.484818359375,0.0009057361166924238,0.0014657971914857626,0.0013350734952837229
1782812119681889000,0.494888916015625,0.0003481301828287542,-0.00027138274163007736,0.002188578713685274
1782812119691959000,0.504958984375,-0.001940590445883572,-0.0005068061873316765,0.0005206409841775894
1782812119702030000,0.515030029296875,-0.0014866226119920611,0.00006801076233386993,0.0008683217456564307
1782812119712101000,0.52510107421875,0.0009738720254972577,0.00034551217686384916,0.0001932104059960693
1782812119722172000,0.535171875,-0.00007535412441939116,0.0005278855096548796,0.001201837556436658
1782812119732243000,0.545242919921875,-0.0007278284756466746,-0.0005546894390136003,-0.0006698319921270013
1782812119742314000,0.55531396484375,-0.000368779175914824,-0.0002214382402598858,-0.002007440896704793
1782812119752384300,0.56538427734375,0.00008449086453765631,0.00017617177218198776,0.002116197720170021
1782812119762455300,0.575455322265625,-0.0010446752421557903,0.0002031510230153799,0.0010779643198475242
1782812119772526000,0.585526123046875,-0.0001597068039700389,-0.0008104480803012848,0.0012305635027587414
1782812119782597000,0.59559716796875,-0.0005417519714683294,0.0008113386575132608,0.000186363875400275
1782812119792668200,0.605668212890625,-0.0008072690106928349,0.0002648578956723213,0.0017025015549734235
1782812119802739200,0.6157392578125,-0.00023628934286534786,0.00044438394252210855,-0.00001149496529251337
1782812119812809200,0.625809326171875,-0.00036891468334943056,-0.0011646980419754982,-0.001643480034545064
1782812119822880000,0.6358798828125,-0.0008972227806225419,-0.00196086335927248,0.00031959437183104455
1782812119832951000,0.645950927734375,-0.0007416941225528717,-0.0008063833229243755,-0.0009547282243147492
1782812119843022000,0.65602197265625,0.0011267293011769652,-0.001963216345757246,0.0007418751483783126
1782812119853093000,0.666093017578125,0.0014343244256451726,0.0004096599295735359,-0.003688293509185314
1782812119863164200,0.6761640625,0.0004604563000611961,-0.0004430152475833893,-0.0006116568110883236
1782812119873235200,0.686235107421875,0.0023265331983566284,0.0017991000786423683,0.00023283157497644424
1782812119883305000,0.696304931640625,-0.0011292797280475497,0.0006640598876401782,0.0016434096032753587
1782812119893376000,0.7063759765625,-0.0002238050801679492,0.0022483745124191046,-0.0011097663082182407
1782812119903447000,0.716447021484375,0.00022133742459118366,-0.0002370562870055437,0.000054809817811474204
1782812119913518000,0.72651806640625,-0.0005730835255235434,0.0027099978178739548,-0.0019838400185108185
1782812119923589000,0.736589111328125,0.0005495725199580193,0.00177561747841537,0.00016393541591241956
1782812119933660000,0.746659912109375,0.0001642131246626377,0.0024784256238490343,-0.0014885560376569629
1782812119943730200,0.756730224609375,-0.0009430010104551911,0.0014679892919957638,-0.003003593534231186
1782812119953801200,0.76680126953125,0.0006354546057991683,0.0020051489118486643,0.0009557282319292426
1782812119963872300,0.776872314453125,-0.0004124727565795183,0.001813174458220601,0.0014073180500417948
1782812119973943300,0.786943359375,0.0003723608679138124,0.0008435174822807312,0.00010689653572626412
1782812119984014000,0.79701416015625,-0.00015120639000087976,-0.0005033742636442184,0.0003060610615648329
1782812119994085000,0.807085205078125,0.0010570698650553823,-0.0007571736350655556,0.0002900820691138506
1782812120004155100,0.817155029296875,-0.0004585693823173642,0.0028954599983990192,0.00014005808043293655
1782812120014226200,0.82722607421875,0.0007835288997739553,0.00042085081804543734,-0.0003646109253168106
1782812120024297200,0.837297119140625,0.0029029259458184242,0.00012665684334933758,0.00046218669740483165
1782812120034368000,0.847367919921875,0.00035667780321091413,0.000708557665348053,0.00045286561362445354
1782812120044439000,0.85743896484375,0.0001992420293390751,-0.0012798486277461052,0.00041325451456941664
1782812120054510000,0.867510009765625,0.0008602385642006993,0.0012072775280103087,-0.00013881875202059746
1782812120064580000,0.877580078125,-0.0007248539477586746,0.0004949634894728661,0.0014649939257651567
1782812120074651100,0.887651123046875,-0.0008660014718770981,0.00035434868186712265,-0.0005203926702961326
1782812120084722000,0.897721923828125,-0.00010950188152492046,0.0004936092300340533,0.0013566009001806378
1782812120094793000,0.90779296875,0.0010774689726531506,0.0006677799392491579,-0.0005057476228103042
1782812120104864000,0.917864013671875,0.00043640396324917674,0.00030119926668703556,0.0021231467835605145
1782812120114935000,0.92793505859375,-0.00046694022603332996,0.0002575232647359371,-0.00025612127501517534
1782812120125005300,0.93800537109375,0.00030003185383975506,0.0021601496264338493,-0.003102486953139305
1782812120135076000,0.948076171875,0.001644395524635911,0.0009603956714272499,-0.0007740850560367107
1782812120145147100,0.958147216796875,0.0016615691129118204,-0.0013179301749914885,0.0013686654856428504
1782812120155218200,0.96821826171875,-0.000835943385027349,0.0005944857839494944,-0.0000033950782380998135
1782812120165289200,0.978289306640625,-0.00006944430060684681,-0.000519599998369813,0.0021242883522063494
1782812120175360300,0.9883603515625,0.0004195120418444276,-0.00025701243430376053,-0.0030643483623862267
1782812120185431300,0.998431396484375,-0.00021087168715894222,0.0017699127783998847,-0.00008951753261499107
1782812120195501000,1.0085009765625,0.00058115238789469,0.00047694810200482607,0.0009057057905010879
1782812120205572000,1.018572021484375,0.0014243402983993292,0.0023414548486471176,0.0011296983575448394
1782812120215643100,1.02864306640625,-0.0022936989553272724,0.0011398367350921035,0.00039919326081871986
1782812120225714200,1.038714111328125,0.0014924299903213978,-0.0022487607784569263,0.0011473402846604586
1782812120235785200,1.04878515625,-0.001754762139171362,-0.0009845581371337175,-0.0016673547215759754
1782812120245856000,1.05885595703125,-0.0002840880770236254,0.0006471157539635897,0.00017588157788850367
1782812120255926000,1.068926025390625,0.0009859733982011676,0.0009113013511523604,0.004382877144962549
1782812120265997000,1.0789970703125,0.0024400027468800545,-0.0022489132825285196,-0.0014240260934457183
1782812120276068000,1.089068115234375,-0.0008836222114041448,0.0006579267792403698,-0.0015089809894561768
1782812120286139100,1.09913916015625,0.0006783624994568527,-0.0005052792839705944,0.0013543970417231321
1782812120296210200,1.109210205078125,-0.0016021023038774729,0.000757058965973556,0.0000012449745554476976
1782812120306281200,1.11928125,0.0004695521201938391,-0.000424711499363184,0.003164913970977068
1782812120316351200,1.129351318359375,-0.001964044291526079,0.00012656301259994507,-0.0001427321694791317
1782812120326422300,1.13942236328125,-0.0000846650218591094,-0.0011046072468161583,0.00010450632544234395
1782812120336493300,1.149493408203125,0.001451446209102869,-0.00015705451369285583,-0.001992466626688838
1782812120346564000,1.159564208984375,-0.0012391791678965092,0.0009282520040869713,-0.000531293626409024
1782812120356635100,1.16963525390625,0.002290041884407401,0.0007218570681288838,0.0019403862534090877
1782812120366706200,1.1797060546875,0.0005061115953139961,-0.001309824176132679,0.0005505105946213007
1782812120376776200,1.189776123046875,0.0008472625631839037,0.00006223632954061031,0.0000050952075980603695
1782812120386847200,1.19984716796875,0.000499878718983382,0.0010625907452777028,0.0010407438967376947
1782812120396918000,1.20991796875,0.0006897621206007898,-0.0012791268527507782,0.0007637750823050737
1782812120406989000,1.219989013671875,-0.000015898607671260834,-0.0023171300999820232,0.0004041048523504287
1782812120417060000,1.23006005859375,-0.0004635759396478534,0.0018155633006244898,-0.000374337105313316
1782812120427131100,1.240131103515625,0.00028336409013718367,-0.0004333562683314085,0.0003659631765913218
1782812120437201000,1.250200927734375,-0.0007773730903863907,0.0004385625943541527,0.0003904642362613231
1782812120447272000,1.26027197265625,0.00040893949335440993,0.0014138083206489682,-0.0006377140525728464
1782812120457343000,1.270343017578125,-0.0006161112105473876,0.0002798342611640692,0.0010696384124457836
1782812120467414000,1.2804140625,-0.0008439311059191823,-0.00024843914434313774,0.0018079753499478102
1782812120477486300,1.290486328125,-0.001708393101580441,-0.0013517867773771286,0.0003693357575684786
1782812120487557000,1.30055712890625,-0.000012306030839681625,-0.0007301860023289919,-0.0009153425344265997
1782812120497627100,1.310627197265625,-0.001128703122958541,0.00046291027683764696,-0.00008736577001400292
1782812120507698200,1.3206982421875,0.00115567771717906,0.0015916929114609957,0.0009950314415618777
1782812120517769200,1.330769287109375,0.002128264168277383,0.0009029995417222381,0.0010482947109267116
1782812120527840300,1.34084033203125,-0.0006950742099434137,0.0014981350395828485,-0.00036032768548466265
1782812120537911300,1.350911376953125,-0.0011174514656886458,0.0002626946661621332,-0.0005922890268266201
1782812120547982300,1.360982421875,-0.0005934353685006499,0.0014269552193582058,0.001139023806899786
1782812120558053400,1.371053466796875,-0.000012866221368312836,0.00003119255416095257,0.00093928660498932
1782812120568123400,1.381123291015625,-0.00025491940323263407,-0.0009493236429989338,-0.0006366760353557765
1782812120578194400,1.3911943359375,-0.0002165698679164052,0.00032686302438378334,0.0015886614564806223
1782812120588265200,1.40126513671875,0.0003186084213666618,0.0009925434133037925,-0.0010424278443679214
1782812120598336300,1.411336181640625,0.0010163566330447793,-0.0000026798807084560394,0.0014042181428521872
1782812120608407300,1.4214072265625,0.0015618791803717613,0.00020319758914411068,0.000020161009160801768
1782812120618478300,1.431478271484375,0.00035093980841338634,-0.0005800381768494844,-0.000670662964694202
1782812120628548400,1.44154833984375,-0.0014045225689187646,0.001414419966749847,-0.0005510132177732885
1782812120638619100,1.451619140625,-0.0000577620230615139,0.0012535650748759508,-0.0002727129030972719
1782812120648690200,1.461690185546875,-0.0007665078155696392,-0.0008156248368322849,0.0003476302372291684
1782812120658761200,1.47176123046875,0.0024338129442185163,0.0011713596759364009,0.0010967773851007223
1782812120668832300,1.481832275390625,-0.0033266269601881504,0.0009680015500634909,-0.0022181998938322067
1782812120678903300,1.4919033203125,-0.0008901008404791355,0.00025587226264178753,0.00017651452799327672
1782812120688973300,1.501973388671875,0.00046909047523513436,0.0008513011271134019,-0.00029742802144028246
1782812120699044400,1.51204443359375,0.0014065231662243605,0.0015133628621697426,0.0002519821282476187
1782812120709115400,1.522115478515625,0.0017592778895050287,-0.0006316970102488995,0.0002766584511846304
1782812120719186400,1.5321865234375,0.0002095844829455018,0.0020330618135631084,-0.0016267027240246534
1782812120729257500,1.542257568359375,-0.0009090140229091048,0.0027655446901917458,-0.0004913781303912401
1782812120739328500,1.55232861328125,-0.0013167440192773938,0.0012371566845104098,-0.0009132229024544358
1782812120749398300,1.562398193359375,0.0000070818932726979256,0.0017631321679800749,0.000553618767298758
1782812120759469300,1.57246923828125,0.0004688740591518581,-0.0006816496606916189,-0.0022805172484368086
1782812120769540400,1.582540283203125,0.0011398273054510355,0.00003431132063269615,-0.0007250970811583102
1782812120779611400,1.592611328125,-0.0003938870504498482,0.0000678671058267355,0.0011343220248818398
1782812120789682200,1.60268212890625,0.0005364585085771978,0.0015491576632484794,0.00021075710537843406
1782812120799753200,1.612753173828125,-0.001346396398730576,-0.0005853660404682159,0.00042381000821478665
1782812120809823200,1.6228232421875,-0.00045437179505825043,-0.0003242033999413252,0.00041052669985219836
1782812120819894300,1.632894287109375,-0.0010378704173490405,0.0007088367128744721,-0.0010651308111846447
1782812120829965300,1.64296533203125,-0.0003501470200717449,0.001799209276214242,-0.00038003112422302365
1782812120840036000,1.6530361328125,0.0003084527561441064,0.0021195875015109777,0.00010785998892970383
1782812120850107100,1.663107177734375,-0.0009807358728721738,0.000322108156979084,-0.0006024211179465055
1782812120860178200,1.67317822265625,0.003219601698219776,0.0007319686701521277,0.0007280941354110837
1782812120870248200,1.683248291015625,-0.0010014630388468504,0.0011114394292235374,-0.00021560289314948022
1782812120880319200,1.6933193359375,0.0002960289129987359,-0.00029763905331492424,-0.00022226078726816922
1782812120890390300,1.703390380859375,0.0014225165359675884,-0.0002826203126460314,0.0005349593702703714
1782812120900461300,1.71346142578125,0.000772705243434757,-0.0009769063908606768,-0.00044162178528495133
1782812120910532400,1.723532470703125,0.0024737147614359856,-0.000235298415645957,0.0009377859532833099
1782812120920603400,1.733603271484375,0.0007453231955878437,0.0002930726623162627,0.00123579369392246
1782812120930673400,1.74367333984375,0.002670119283720851,-0.0021957361605018377,-0.001514226314611733
1782812120940744200,1.753744140625,-0.001102248439565301,-0.0019858789164572954,0.0013406823854893446
1782812120950815200,1.763815185546875,0.000048126326873898506,-0.0002494759391993284,-0.0032494908664375544
1782812120960886300,1.77388623046875,-0.0012022277805954218,0.0014717250596731901,-0.001109108328819275
1782812120970957300,1.783957275390625,-0.00010312208905816078,0.0007878986652940512,-0.0009203001973219216
1782812120981028400,1.7940283203125,-0.0016900998307392001,-0.0009263781830668449,0.001035791588947177
1782812120991098000,1.80409814453125,-0.00021955545525997877,-0.0014916292857378721,-0.0031428413931280375
1782812121001169200,1.814169189453125,0.0018523838371038437,0.00031718984246253967,0.00036827020812779665
1782812121011240200,1.824240234375,-0.00024793948978185654,0.0006883505266159773,-0.0014780538622289896
1782812121021311200,1.834311279296875,-0.0008364981040358543,-0.00007917243055999279,0.0016407740768045187
1782812121031382300,1.84438232421875,0.0009146117954514921,-0.0010304416064172983,0.002356919925659895
1782812121041453300,1.854453369140625,-0.0012795665534213185,0.0006074024131521583,0.00022319512208923697
1782812121051523300,1.8645234375,0.0007891370332799852,-0.0025849700905382633,-0.0002951719507109374
1782812121061594400,1.874594482421875,-0.00022952212020754814,0.0017653035465627909,-0.0018683013040572405
1782812121071665400,1.88466552734375,0.0011914502829313278,-0.0004286875482648611,-0.0006315381033346057
1782812121081736400,1.894736328125,0.00009609211701899767,0.0010429751127958298,-0.001673632999882102
1782812121091807500,1.904807373046875,-0.00009004119783639908,0.00017163122538477182,0.0007499444764107466
1782812121101878300,1.914878173828125,-0.0017992579378187656,0.0018198615871369839,-0.0011957609094679356
1782812121111948300,1.9249482421875,-0.0004582446999847889,0.00018804660066962242,0.0009770214091986418
1782812121122019300,1.935019287109375,-0.0002017822116613388,-0.0024556731805205345,-0.0005726720555685461
1782812121132090400,1.94509033203125,0.0009922132594510913,0.0013167811557650566,-0.00044627877650782466
1782812121142161400,1.955161376953125,0.0028612196911126375,-0.0025021920446306467,0.0019404462072998285
1782812121152232200,1.965232177734375,0.00043746765004470944,-0.00020115519873797894,-0.002072069328278303
1782812121162303200,1.97530322265625,0.000014557619579136372,-0.0006022271700203419,-0.000610792834777385
1782812121172373200,1.985373291015625,0.00043703033588826656,-0.0010516864713281393,-0.002639258513227105
1782812121182444300,1.9954443359375,0.00007990049198269844,0.002022666623815894,-0.000740158255212009
1782812121192515300,2.005515380859375,-0.002367832697927952,0.000035643111914396286,-0.0005723289796151221
1782812121202586000,2.015586181640625,0.0015028053894639015,0.002129420405253768,0.0011129194172099233
1782812121212657200,2.0256572265625,0.0016374485567212105,-0.0015566579531878233,0.00036689010448753834
1782812121222728200,2.035728271484375,0.0013620777754113078,-0.0015995348803699017,0.0010348109062761068
1782812121232798500,2.045798583984375,-0.001285414444282651,0.00020081258844584227,-0.00011755067680496722
1782812121242869500,2.055869384765625,0.00040409498615190387,-0.00040558911859989166,-0.00009997381857829168
1782812121252940300,2.065940185546875,0.00016763992607593536,-0.00022871606051921844,-0.0006166144157759845
1782812121263011300,2.07601123046875,-0.0006672610761597753,0.00014332763385027647,0.002428443869575858
1782812121273082400,2.086082275390625,0.00043391220970079303,0.0013792188838124275,-0.0006481032469309866
1782812121283153400,2.0961533203125,-0.0018550747772678733,-0.0012000526767224073,0.001335419132374227
1782812121293223400,2.106223388671875,-0.0009830441558733582,-0.0012245774269104004,0.001458607497625053
1782812121303294200,2.116294189453125,0.00021085096523165703,-0.001053868792951107,-0.0002980135614052415
1782812121313365200,2.126365234375,0.00007718498818576336,0.00035404833033680916,0.0006751425098627806
1782812121323436300,2.136436279296875,-0.002441366435959935,0.00030850828625261784,-0.0007483171066269279
1782812121333507300,2.14650732421875,-0.0015862832078710198,-0.00019875378347933292,-0.0006318247760646045
1782812121343578400,2.156578369140625,-0.001795075018890202,0.0002595762489363551,-0.0004949383437633514
1782812121353648000,2.166648193359375,-0.00014302600175142288,-0.0004070980940014124,0.0011926123406738043
1782812121363719200,2.17671923828125,-0.0003081420436501503,-0.0002624883782118559,-0.0006540235481224954
1782812121373790200,2.186790283203125,-0.0011359450872987509,0.002554092323407531,-0.002446242608129978
1782812121383861200,2.196861328125,-0.0017173131927847862,0.001141551649197936,-0.00008188806532416493
1782812121393932300,2.206932373046875,0.0005876364302821457,0.0012103294720873237,0.00030202913330867887
1782812121404003300,2.21700341796875,-0.003357570618391037,-0.0014208736829459667,0.002708994084969163
1782812121414073300,2.2270732421875,0.00018426706083118916,0.0020950620528310537,-0.0009224866516888142
1782812121424144400,2.237144287109375,0.00018746277783066034,-0.00004185829311609268,0.0015401385026052594
1782812121434215400,2.24721533203125,0.0006310706376098096,0.0007467885734513402,-0.0001846502855187282
1782812121444286500,2.257286376953125,-0.0019306240137666464,0.0013020576443523169,0.0006214885506778955
1782812121454357200,2.267357177734375,0.0011426470009610057,-0.0009371615014970303,-0.000413960893638432
1782812121464428300,2.27742822265625,-0.0013660507975146174,0.00099709234200418,-0.001268303021788597
1782812121474498300,2.287498291015625,0.00011918763630092144,-0.000020731473341584206,0.0005544682499021292
1782812121484568800,2.29756884765625,0.000864872767124325,0.0008645032066851854,0.0040722377598285675
1782812121494639900,2.307639892578125,0.0010421954793855548,-0.0012583648785948753,-0.0004406675579957664
1782812121504711000,2.3177109375,0.0007953204330988228,0.0003619022900238633,-0.000492865510750562
1782812121514782000,2.327781982421875,-0.002133315661922097,0.0014428292633965611,0.0006471658707596362
1782812121524853000,2.33785302734375,0.00045527686597779393,0.0025419159792363644,-0.00011849292059196159
1782812121534922800,2.3479228515625,-0.0013079559430480003,0.00044413027353584766,0.0003257577191106975
1782812121544993800,2.357993896484375,-0.001541781472042203,-0.0008895806968212128,0.00009486167982686311
1782812121555064800,2.36806494140625,0.0010008487151935697,0.002099800854921341,-0.0007185214199125767
1782812121565136000,2.378135986328125,-0.001084406510926783,0.0006161537021398544,-0.0003898873692378402
1782812121575207000,2.38820703125,-0.0014334454899653792,-0.001527661457657814,0.00045823620166629553
1782812121585277700,2.398277587890625,0.002562627661973238,0.0009498773142695427,0.0017581250285729766
1782812121595348000,2.408347900390625,-0.0025161802768707275,-0.0018536343704909086,-0.0021081450395286083
1782812121605419000,2.4184189453125,0.000763502495829016,-0.001218204153701663,-0.001164320739917457
1782812121615490000,2.428489990234375,-0.0012281336821615696,0.00040527572855353355,-0.00014378740161191672
1782812121625561000,2.43856103515625,-0.0035831669811159372,0.0008343108929693699,-0.0013704394223168492
1782812121635631900,2.4486318359375,0.0003822416765615344,0.0000067104119807481766,0.0006268341676332057
1782812121645703000,2.458702880859375,0.003130357712507248,-0.0006566832307726145,-0.0007670643390156329
1782812121655773000,2.46877294921875,0.0007058659102767706,0.001285551581531763,0.0010488167172297835
1782812121665844000,2.478843994140625,-0.00005047186277806759,0.0035028995480388403,0.0009273765608668327
1782812121675915000,2.4889150390625,-0.001352521008811891,0.0006053098477423191,0.0008684522472321987
1782812121685985800,2.49898583984375,0.00041528535075485706,0.0014367486583068967,-0.002429340034723282
1782812121696056800,2.509056884765625,-0.0012700705556198955,0.0036504350136965513,0.0010721842991188169
1782812121706128000,2.5191279296875,-0.0007795161800459027,0.000057564349845051765,-0.0012732616160064936
1782812121716198000,2.529197998046875,0.000559487147256732,0.0005415221676230431,-0.0020779205951839685
1782812121726269000,2.53926904296875,0.0018252877052873373,0.0014683022163808346,0.0010611473117023706
1782812121736339700,2.549339599609375,0.0014219044242054224,-0.00026605906896293163,-0.000712407985702157
1782812121746410800,2.55941064453125,-0.0008106236346065998,0.0020274552516639233,-0.0007853786228224635
1782812121756481800,2.569481689453125,-0.0002806992270052433,-0.0015061311423778534,-0.0007665985031053424
1782812121766552800,2.579552734375,-0.0004149224841967225,0.0011754058068618178,0.0008406192646361887
1782812121776622800,2.589622802734375,-0.0011983535951003432,0.0012451508082449436,0.00006063410546630621
1782812121786694000,2.59969384765625,-0.00028435676358640194,-0.0022539766505360603,-0.0020808137487620115
1782812121796765000,2.609764892578125,-0.0007081924704834819,0.0004450377309694886,0.00023907807189971209
1782812121806836000,2.6198359375,0.000427912047598511,0.0004714030073955655,-0.0006325745489448309
1782812121816907000,2.629906982421875,-0.002437155693769455,-0.00033371406607329845,0.0009502570610493422
1782812121826978000,2.63997802734375,0.0009708914440125227,0.0006143712671473622,-0.0006425796309486032
1782812121837047800,2.6500478515625,-0.00034313113428652287,-0.0015304791741073132,-0.0005151252262294292
1782812121847118800,2.660118896484375,0.00046034459955990314,-0.00045855692587792873,-0.0005971505888737738
1782812121857190000,2.67018994140625,-0.00024011812638491392,0.0014059790410101414,0.0015259867068380117
1782812121867261000,2.680260986328125,0.0005348616978153586,-0.00010243547149002552,-0.0010844437638297677
1782812121877332000,2.69033203125,0.0000119043979793787,0.0004520333604887128,0.0021196387242525816
1782812121887402800,2.70040283203125,-0.00005760404746979475,-0.0009154998697340488,-0.0008351385476998985
1782812121897472800,2.71047265625,0.00008179596625268459,0.00043058826122432947,-0.0005219033337198198
1782812121907543800,2.720543701171875,-0.002237817272543907,0.002504924312233925,-0.000594075012486428
1782812121917614800,2.73061474609375,-0.00033951224759221077,-0.0010602774564176798,0.0006243420066311955
1782812121927686000,2.740685791015625,-0.002125428058207035,-0.0015740012750029564,-0.0009091062238439918
1782812121937756700,2.750756591796875,0.0016992876771837473,0.002151714637875557,-0.0017863886896520853
1782812121947827700,2.76082763671875,-0.0007646689191460609,0.000610543298535049,0.0003702392568811774
1782812121957898000,2.77089794921875,0.0006658938946202397,0.0003728423034772277,0.0002392032474745065
1782812121967969000,2.780968994140625,0.0005338010960258543,-0.0009448898490518332,0.0025604143738746643
1782812121978040000,2.7910400390625,0.0002524844603613019,0.001115605584345758,-0.0012915829429402947
1782812121988110800,2.80111083984375,0.0016666229348629713,0.00048816483467817307,-0.00012378679821267724
1782812121998182000,2.811181884765625,-0.002053945092484355,-0.0008472651243209839,0.0013311903458088636
1782812122008253000,2.8212529296875,-0.0008033246267586946,0.0008489021565765142,-0.0019940324127674103
1782812122018323000,2.831322998046875,-0.0006869982462376356,-0.001386719522997737,0.0011497857049107552
1782812122028394000,2.84139404296875,-0.0003082967596128583,-0.003312184941023588,-0.0009522472391836345
1782812122038464800,2.85146484375,-0.0005105676827952266,0.0005070070037618279,-0.0010203194105997682
1782812122048535800,2.861535888671875,-0.00011482194531708956,0.0005578732816502452,-0.0021012965589761734
1782812122058606800,2.87160693359375,0.00037596997572109103,-0.0005838577635586262,-0.0015506730414927006
1782812122068678000,2.881677978515625,-0.002379336394369602,0.0004451876739040017,-0.0013717086985707283
1782812122078748000,2.891747802734375,-0.0003161842469125986,0.0011727085802704096,0.0008506577578373253
1782812122088818700,2.901818603515625,0.0003349586622789502,-0.0022041795309633017,-0.0004779932787641883
1782812122098889700,2.9118896484375,-0.0012899604625999928,0.0012329230085015297,0.0002313119766768068
1782812122108960800,2.921960693359375,0.0005042110569775105,-0.0009229059796780348,0.0003681984671857208
1782812122119031800,2.93203173828125,0.0007507443660870194,0.0015675832983106375,-0.0015835952945053577
1782812122129102000,2.94210205078125,-0.0013592782197520137,-0.001224208390340209,-0.0015897206030786037
1782812122139172900,2.9521728515625,-0.0002375126350671053,0.0008330736309289932,-0.0020189459901303053
1782812122149244000,2.962243896484375,0.00038886291440576315,0.000030396971851587296,0.00009054387919604778
1782812122159315000,2.97231494140625,0.0011278886813670397,0.0005150926299393177,-0.0001446539827156812
1782812122169386000,2.982385986328125,-0.0012194215087220073,-0.000617549754679203,-0.0007678336696699262
1782812122179457000,2.99245703125,0.0006764587596990168,-0.0009138446766883135,0.00009319582022726536
1782812122189526800,3.00252685546875,-0.0009576568845659494,0.0004744613543152809,-0.0020399962086230516
1782812122199597800,3.012597900390625,0.00047584279673174024,-0.0014179202262312174,-0.0023481999523937702
1782812122209668900,3.0226689453125,-0.0015550839016214013,0.001070803846232593,0.00007074937457218766
1782812122219740000,3.032739990234375,0.00019085954409092665,-0.00239861523732543,0.00027252035215497017
1782812122229811000,3.04281103515625,0.0016888875979930162,-0.001882494892925024,-0.0008545293821953237
1782812122239882000,3.052882080078125,0.0017051231116056442,0.0007935373578220606,-0.0019328903872519732
1782812122249951700,3.06295166015625,-0.001375089050270617,0.001240948447957635,-0.0007954543107189238
1782812122260022800,3.073022705078125,0.0003863162128254771,-0.002506131073459983,0.00030251790303736925
1782812122270093800,3.08309375,-0.0019372919341549277,0.0009679626673460007,-0.0006349147879518569
1782812122280164900,3.093164794921875,0.00004440685734152794,-0.0005191091913729906,-0.000623901782091707
1782812122290236000,3.10323583984375,0.0014910359168425202,-0.00013241823762655258,-0.00017009914154186845
1782812122300306700,3.113306640625,-0.0010395344579592347,-0.0008201729506254196,-0.0021611619740724564
1782812122310377000,3.123376953125,-0.0017700394382700324,-0.002647101180627942,-0.0002551374491304159
1782812122320448000,3.133447998046875,0.0005756774917244911,-0.0016307397745549679,-0.001066018594428897
1782812122330519000,3.14351904296875,0.0034676040522754192,0.0031962397042661905,-0.00038371680420823395
1782812122340590000,3.153590087890625,-0.00006807013414800167,-0.002147592604160309,-0.00015667581465095282
1782812122350660900,3.163660888671875,0.0020901556126773357,0.0009358155075460672,-0.0008301892085000873
1782812122360732000,3.17373193359375,0.0014352223370224237,0.000261531095020473,0.0005751613061875105
1782812122370802000,3.183802001953125,-0.0006817243993282318,-0.0008729754481464624,-0.00008450369932688773
1782812122380873000,3.193873046875,-0.0010115380864590406,-0.0005232382100075483,0.0004045062232762575
1782812122390944000,3.203944091796875,0.0005626563215628266,0.0007753190584480762,0.00037121667992323637
1782812122401014800,3.214014892578125,0.0006271604215726256,0.000012118835002183914,-0.0014266417128965259
1782812122411085800,3.2240859375,-0.0012482376769185066,-0.0013367722276598215,0.0021473204251378775
1782812122421156900,3.234156982421875,0.00013118854258209467,-0.0014054093044251204,0.000014396558981388807
1782812122431227000,3.244226806640625,0.0000568863470107317,-0.00045545981265604496,-0.00024845742154866457
1782812122441298000,3.2542978515625,-0.0013667596504092216,-0.001099675428122282,-0.000996519927866757
1782812122451368700,3.26436865234375,0.0013089183485135436,-0.0009204447269439697,0.00019284774316474795
1782812122461439700,3.274439697265625,-0.0007249849149957299,0.0014226746279746294,-0.0014345920644700527
1782812122471510800,3.2845107421875,0.00037383538438007236,0.00001066667027771473,-0.002286537317559123
1782812122481581600,3.29458154296875,0.00111659977119416,0.00018949422519654036,-0.00182618317194283
1782812122491651800,3.30465185546875,-0.0013470904668793082,0.0005772504955530167,-0.0007702398579567671
1782812122501723000,3.314722900390625,0.0018634246662259102,-0.00004483899101614952,0.0015666699036955833
1782812122511794000,3.3247939453125,-0.0014388951240107417,0.0008041767869144678,0.00026118848472833633
1782812122521864700,3.33486474609375,-0.000656472984701395,-0.0008293234277516603,0.00039185077184811234
1782812122531935700,3.344935791015625,0.0005771031719632447,0.001326239202171564,-0.0008031096076592803
1782812122542006800,3.3550068359375,-0.001502117607742548,-0.0021648716647177935,0.0008584141032770276
1782812122552076800,3.365076904296875,0.0003690193989314139,0.0025561139918863773,-0.000634021358564496
1782812122562147800,3.37514794921875,-0.0011542452266439795,0.0012359129032120109,-0.0004836251900997013
1782812122572218600,3.385218505859375,0.0007288759807124734,-0.0002461362164467573,-0.0009139920584857464
1782812122582289700,3.39528955078125,-0.0002524593146517873,0.0000733998604118824,0.001183569198474288
1782812122592360700,3.405360595703125,0.000747823971323669,0.0009535745484754443,-0.0003607979160733521
1782812122602431700,3.415431640625,0.0001629233593121171,-0.001659829169511795,-2.9103830456733704e-8
1782812122612501800,3.425501708984375,-0.0011739835608750582,0.001969793112948537,-0.0011683579068630934
1782812122622572500,3.435572509765625,-0.0009518793085590005,-0.0004203415010124445,-0.0008220734307542443
1782812122632643600,3.4456435546875,0.0010500189382582903,-0.0009314019698649645,-0.0005986342439427972
1782812122642714600,3.455714599609375,-0.0001391483237966895,0.0005002272082492709,-0.0009938112925738096
1782812122652785700,3.46578564453125,0.0013753913808614016,0.001131130033172667,-0.0014361622743308544
1782812122662856700,3.475856689453125,-0.0009092133259400725,-0.0007817202713340521,-0.0016221709083765745
1782812122672926700,3.4859267578125,-0.0014213392278179526,-0.000671199057251215,0.0005424463306553662
1782812122682997800,3.495997802734375,-0.0013216761872172356,0.000048875343054533005,0.001735033467411995
1782812122693068800,3.50606884765625,-0.0004534857580438256,0.001931996550410986,-0.0013188133016228676
1782812122703139800,3.516139892578125,0.00024432229110971093,0.0012340070679783821,0.0005688599194400012
1782812122713211000,3.5262109375,0.0005665647913701832,0.00034504395443946123,-0.0006708415457978845
1782812122723280600,3.53628076171875,-0.0003620521165430546,0.00042803201358765364,-0.00043859262950718403
1782812122733351700,3.5463515625,-0.00046165427193045616,-0.0013371112290769815,0.0019595837220549583
1782812122743422700,3.556422607421875,-0.0007102451054379344,0.0004012961871922016,0.0006136019947007298
1782812122753493800,3.56649365234375,-0.0011890814639627934,0.0013981172814965248,-0.001301477081142366
1782812122763564800,3.576564697265625,-0.000948319910094142,0.0003812406212091446,-0.001325950026512146
1782812122773635800,3.5866357421875,-0.0009688262362033129,0.0009104106575250626,0.0011886066058650613
1782812122783705600,3.59670556640625,-0.000029958784580230713,-0.0008027264848351479,-0.00018408300820738077
1782812122793776600,3.606776611328125,-0.0014393036253750324,0.000505950883962214,0.000481707276776433
1782812122803847700,3.61684765625,0.0005459850654006004,-0.0001423743087798357,0.0013680823612958193
1782812122813918700,3.626918701171875,-0.0014149004127830267,-0.0031248482409864664,0.0002524841402191669
1782812122823989800,3.63698974609375,0.002205237280577421,-0.0016974885948002338,0.0009727934375405312
1782812122834060500,3.647060546875,-0.0013258479302749038,-0.00010731513611972332,-0.0019084805389866233
1782812122844130800,3.657130859375,-0.0008619640721008182,0.0004402011400088668,0.0008684206986799836
1782812122854201900,3.667201904296875,-0.0006723469123244286,-0.00007245736196637154,0.0009310049936175346
1782812122864273000,3.67727294921875,0.0012744474224746227,0.0014929439639672637,-0.0007652685162611306
1782812122874344000,3.687343994140625,0.0013388958759605885,-0.001327077392488718,-0.00026033318135887384
1782812122884414700,3.697414794921875,0.001610474311746657,-0.0005611528176814318,-0.0012564311036840081
1782812122894485800,3.70748583984375,0.0003507991204969585,-0.0014948570169508457,-0.0016942546935752034
1782812122904555800,3.7175556640625,0.0000016676494851708412,0.0005617860006168485,0.0003778230457101017
1782812122914626800,3.727626708984375,-0.0002918126992881298,0.00009227055124938488,-0.000952425878494978
1782812122924697900,3.73769775390625,-0.00026068766601383686,-0.0007120093796402216,-0.0006119682802818716
1782812122934768600,3.7477685546875,0.0002184149343520403,-0.00043504079803824425,-0.0006798788672313094
1782812122944839700,3.757839599609375,0.0021503979805856943,-0.001262962818145752,0.0008900440880097449
1782812122954910700,3.76791064453125,0.001474221353419125,0.0005527803441509604,-0.0011368878185749054
1782812122964980700,3.777980712890625,-0.003568886313587427,-0.001115740044042468,0.0002152556844521314
1782812122975051800,3.7880517578125,-0.0014040028909221292,0.0015146640362218022,0.002212626626715064
1782812122985122600,3.79812255859375,0.00009296974167227745,0.0006908946670591831,-0.0009052398381754756
1782812122995193600,3.808193603515625,0.0004676764947362244,-0.0011821065563708544,0.00011741399066522717
1782812123005264600,3.8182646484375,-0.0001619785325601697,-0.0001395696308463812,0.0006175002781674266
1782812123015335700,3.828335693359375,-0.0004927431000396609,0.0005161006702110171,-0.00041740405140444636
1782812123025406000,3.838406005859375,-0.00019518332555890083,-0.0014116261154413223,0.0006425668252632022
1782812123035476700,3.848476806640625,-0.0017265008063986897,0.0005418024957180023,0.0015033005038276315
1782812123045547800,3.8585478515625,0.0014211212983354926,-0.0011758639011532068,-0.0013697973918169737
1782812123055618800,3.868618896484375,-0.0002577354898676276,0.0014444200787693262,0.000964729581028223
1782812123065689900,3.87868994140625,0.000685307604726404,0.0004602138651534915,0.00045753363519907
1782812123075759600,3.888759521484375,-0.002312879078090191,-0.0010956048499792814,0.00004554263432510197
1782812123085830700,3.89883056640625,-0.003449409268796444,0.0004799978341907263,0.0008334898739121854
1782812123095901700,3.908901611328125,0.00034373102243989706,-0.00008432590402662754,-0.0009657416958361864
1782812123105972700,3.91897265625,0.0018420370761305094,0.001458479673601687,-0.0006006405455991626
1782812123116043800,3.929043701171875,-0.0000900862505659461,0.0008832368766888976,-0.0005441815592348576
1782812123126114800,3.93911474609375,0.00039200205355882645,0.00018340954557061195,-0.0019857920706272125
1782812123136184600,3.9491845703125,0.00044926005648449063,-0.003199071390554309,-0.0017181443981826305
1782812123146255600,3.959255615234375,0.0011456399224698544,-0.001619324553757906,0.0007496831240132451
1782812123156326700,3.96932666015625,-0.0007286927429959178,-0.0010952143929898739,0.0030565131455659866
1782812123166397700,3.979397705078125,0.00042805104749277234,-0.00002133939415216446,0.0010263870935887098
1782812123176468700,3.98946875,0.0014560312265530229,0.0008686891524121165,0.0018359881360083818
1782812123186539800,3.999539794921875,-0.0010173292830586433,-0.000718310009688139,0.0011870841262862086
1782812123196609800,4.00960986328125,0.0016916381428018212,-0.0009036660194396973,-0.0016672918573021889
1782812123206680800,4.019680908203125,0.0015082668978720903,0.00037693255580961704,0.001032194122672081
1782812123216751900,4.029751953125,0.0003910709056071937,-0.00045743584632873535,0.0004582829133141786
1782812123226823000,4.039822998046875,0.0014374441234394908,-0.000018922146409749985,0.001208163914270699
1782812123236893700,4.049893798828125,0.0004842987400479615,-0.00046872999519109726,-0.0033421129919588566
1782812123246964700,4.05996484375,0.00018127739895135164,-0.0015057954005897045,-0.0004993388429284096
1782812123257034800,4.07003466796875,0.00141964724753052,0.0014907935401424766,-0.0008138581179082394
1782812123267105800,4.080105712890625,0.0015070673543959856,0.000012203818187117577,0.0009832917712628841
1782812123277176800,4.0901767578125,-0.0015220120549201965,0.0009501691674813628,-0.0002966233587358147
1782812123287247600,4.10024755859375,0.0022460827603936195,0.0008747840765863657,0.000060161633882671595
1782812123297318700,4.110318603515625,-0.0011758129112422466,0.00021671690046787262,0.0010263564763590693
1782812123307388700,4.120388671875,-0.0000692515168339014,-0.002159825060516596,-0.0019292812794446945
1782812123317459700,4.130459716796875,0.000279888859950006,0.001245558843947947,-0.00038757736911065876
1782812123327530800,4.14053076171875,0.00035214662784710526,0.000469766091555357,-0.00039782701060175896
1782812123337601500,4.1506015625,0.00043736776569858193,-0.001502570929005742,-0.001939264708198607
1782812123347672600,4.160672607421875,0.0011719398899003863,0.0014050696045160294,-0.000646840431727469
1782812123357743600,4.17074365234375,0.001982606016099453,0.0001730911899358034,0.002186230383813381
1782812123367814000,4.18081396484375,-0.000965242157690227,0.0011065310100093484,-0.0030376582872122526
1782812123377885000,4.190885009765625,0.0017067072913050652,0.00020398572087287903,0.00023802975192666054
1782812123387955700,4.200955810546875,-0.0008947981987148523,-0.001298343064263463,-0.0016749093774706125
1782812123398026800,4.21102685546875,-0.00228044087998569,0.0021983874030411243,0.000831657845992595
1782812123408097800,4.221097900390625,-0.0001969721633940935,-0.0015637683682143688,-0.0003016049158759415
1782812123418167800,4.231167724609375,-0.001264100894331932,-0.0007906525861471891,0.0007207826711237431
1782812123428238800,4.24123876953125,-0.0024856661912053823,-0.002219832269474864,0.00010244958684779704
1782812123438309600,4.2513095703125,0.0011362327495589852,0.0024289817083626986,0.0005368111887946725
1782812123448380700,4.261380615234375,-0.0014642387395724654,0.00017136987298727036,0.0005933721549808979
1782812123458451700,4.27145166015625,-0.0014975283993408084,-0.000404139282181859,0.00018138112500309944
1782812123468522800,4.281522705078125,0.00020476733334362507,-0.0007066661491990089,0.0029917301144450903
1782812123478592800,4.2915927734375,0.0017731029074639082,-0.0019607488065958023,0.0021877216640859842
1782812123488663800,4.301663818359375,-0.0015455626416951418,0.00000924849882721901,0.0022862893529236317
1782812123498734800,4.31173486328125,0.001619337941519916,0.00034294265788048506,-0.0006003110320307314
1782812123508806000,4.321805908203125,-0.0022155451588332653,-0.00008302275091409683,-0.0002366405096836388
1782812123518877000,4.331876953125,-0.0021383133716881275,0.0007300402503460646,-0.0004073491436429322
1782812123528948000,4.341947998046875,-0.0011003916151821613,-0.0013477490283548832,-0.0008076581871137023
1782812123539018000,4.35201806640625,-0.0012846824247390032,-0.0008097903337329626,-0.0008486708393320441
1782812123549089000,4.362089111328125,-0.001053980435244739,-0.00021659978665411472,-0.0008968389010988176
1782812123559160000,4.37216015625,0.00033219484612345695,-0.0025335499085485935,0.0014864238910377026
1782812123569231000,4.382231201171875,-0.0010986863635480404,0.0014317966997623444,0.0009109395905397832
1782812123579302100,4.39230224609375,-0.0009988178499042988,-0.00030298647470772266,-0.0018518236465752125
1782812123589373200,4.402373291015625,0.0011748020770028234,-0.0008359858766198158,0.0015472476370632648
1782812123599443000,4.41244287109375,0.0005851782043464482,0.00017468375153839588,0.0008670763345435262
1782812123609514000,4.422513916015625,-0.00038129533641040325,0.0007159578381106257,-0.0007337435963563621
1782812123619585000,4.4325849609375,0.000761999748647213,0.00034524581860750914,0.0014575053937733173
1782812123629656000,4.442656005859375,0.00025494617875665426,-0.0002742982469499111,0.0023215345572680235
1782812123639727000,4.45272705078125,-0.000020158360712230206,0.0000354275107383728,-0.0008268543751910329
1782812123649796900,4.462796875,-0.0001644421136006713,-0.00035050767473876476,-0.0008133938536047935
1782812123659868000,4.472867919921875,0.001457689329981804,0.0010583045659586787,-0.000817921245470643
1782812123669939000,4.48293896484375,-0.0006438755663111806,0.0019383089384064078,-0.001723368652164936
1782812123680010000,4.493010009765625,-0.0003575857263058424,-0.0002939526457339525,0.0004377865407150239
1782812123690081000,4.5030810546875,-0.0009558727033436298,0.00036595691926777363,-0.0005097081884741783
1782812123700151800,4.51315185546875,-0.001450954470783472,-0.00010062893852591515,0.001281800214201212
1782812123710222000,4.52322216796875,-0.0008094673976302147,0.0017358234617859125,0.0005292176501825452
1782812123720293000,4.533293212890625,-0.0000744350254535675,0.0023004135582596064,0.000019488594261929393
1782812123730364200,4.5433642578125,-0.001242411439307034,0.0002587951021268964,0.000894562341272831
1782812123740435200,4.553435302734375,-0.0006706307176500559,-0.0010163264814764261,-0.002987793879583478
1782812123750506000,4.563506103515625,-0.001547464868053794,0.0004390317481011152,-0.0018666726537048817
1782812123760577000,4.573576904296875,0.000877076992765069,-0.0021415711380541325,0.0011211277451366186
1782812123770647000,4.58364697265625,-0.00028482091147452593,0.0023144790902733803,-0.00047979241935536265
1782812123780718000,4.593718017578125,0.00020946178119629622,0.00015651958528906107,0.0009894735412672162
1782812123790789000,4.6037890625,0.002707136096432805,-0.00045648589730262756,0.0017860062653198838
1782812123800860000,4.61385986328125,0.001543334685266018,0.002516933484002948,0.0018888042541220784
1782812123810931000,4.623930908203125,-0.0006722289836034179,-0.00007456960156559944,0.0012088498333469033
1782812123821001000,4.6340009765625,-0.00016596214845776558,0.0019960380159318447,-0.001469757524318993
1782812123831072000,4.644072021484375,-0.001097230357117951,-0.0006988667882978916,0.0008922721026465297
1782812123841143000,4.65414306640625,0.00012489419896155596,0.0007285875035449862,0.0007681688293814659
1782812123851213800,4.6642138671875,0.0006270491285249591,-0.0005210305098444223,0.0009111971594393253
1782812123861284900,4.674284912109375,0.0006049448857083917,-0.0020733869168907404,0.002778872149065137
1782812123871356000,4.68435595703125,-0.0002759188646450639,0.000597043544985354,-0.0008140086429193616
1782812123881426200,4.69442626953125,-0.001011484069749713,-0.0004546388518065214,0.0012041347799822688
1782812123891497000,4.7044970703125,0.0027763345278799534,-0.0014631827361881733,0.000688444240950048
1782812123901568000,4.714568115234375,-0.0004410302499309182,-0.0004269466735422611,-0.0005142392474226654
1782812123911639000,4.72463916015625,-0.0014227672945708036,0.0016355591360479593,-0.0024440623819828033
1782812123921710000,4.7347099609375,-0.001854998292401433,0.0001790764508768916,0.0007799605373293161
1782812123931781000,4.744781005859375,0.0017865197733044624,-0.001401533605530858,0.0002196119457948953
1782812123941851000,4.754850830078125,0.0010179313831031322,-0.00141271878965199,0.0009144307114183903
1782812123951922000,4.764921875,-0.0009703247342258692,0.002258352469652891,0.00046727940207347274
1782812123961993000,4.774992919921875,-0.0006896276026964188,0.0026226728223264217,-0.0014105155132710934
1782812123972064000,4.78506396484375,-0.0008670259267091751,0.0004156935028731823,0.0006107382359914482
1782812123982135000,4.795135009765625,-0.0007631627377122641,0.0005078387912362814,-0.0018734585028141737
1782812123992206000,4.8052060546875,-0.0009256679331883788,-0.001494076568633318,0.00011714233551174402
1782812124002275800,4.81527587890625,-0.0009930460946634412,-0.0005411976017057896,-0.0007465208182111382
1782812124012347000,4.825346923828125,0.0012243472738191485,-0.001356360036879778,0.0017063198611140251
1782812124022418000,4.83541796875,-0.002167987171560526,0.00027189659886062145,-0.001789611647836864
1782812124032489000,4.845489013671875,0.0012047949712723494,-0.00029653729870915413,-0.00046354299411177635
1782812124042560000,4.85556005859375,0.0009736326755955815,0.0011359771015122533,0.0010232998756691813
1782812124052630000,4.865630126953125,-0.00024529616348445415,0.0009663337841629982,0.001739157596603036
1782812124062701000,4.875701171875,-0.0023167028557509184,0.00031785399187356234,-0.0012635565362870693
1782812124072772000,4.885772216796875,-0.0008075492223724723,-0.00002576131373643875,-0.0003088392550125718
1782812124082843100,4.895843017578125,-0.000566000584512949,-0.0037187666166573763,0.0007383157499134541
1782812124092914200,4.9059140625,0.0005572692025452852,0.0001416888553649187,-0.0007926137186586857
1782812124102985000,4.91598486328125,0.0001814971910789609,0.000570724019780755,0.00018822852871380746
1782812124113055000,4.926054931640625,0.0010188976302742958,0.001494266907684505,0.00034203327959403396
1782812124123126000,4.9361259765625,0.0004753464600071311,0.0012154339347034693,0.00007491823635064065
1782812124133197000,4.946197021484375,-0.00030652794521301985,0.002558755688369274,0.002267704112455249
1782812124143268000,4.95626806640625,-0.0009523446206003428,-0.001555828144773841,0.0005688737146556377
1782812124153339000,4.9663388671875,0.0005106723983772099,-0.0017186789773404598,0.00029755462310276926
1782812124163410000,4.976409912109375,0.000038493890315294266,-0.002013224409893155,-0.0008803615346550941
1782812124173480000,4.98647998046875,-0.0006730627501383424,0.001298027578741312,-0.0004367670917417854
1782812124183551000,4.996551025390625,-0.00002245255745947361,-0.00046818098053336143,-0.0005912304040975869
1782812124193622000,5.0066220703125,-0.0013122943928465247,0.001045535202138126,0.0006972194532863796
1782812124203692800,5.01669287109375,0.00006376090459525585,0.0013563260436058044,-0.0014687294606119394
1782812124213763800,5.026763916015625,0.0011559842387214303,-0.003317856229841709,0.0010932388249784708
1782812124223835000,5.0368349609375,0.0026382997166365385,0.0021845009177923203,0.0006431646179407835
1782812124233905200,5.0469052734375,-0.000835758401080966,-0.0003664421383291483,-0.0010670730844140053
1782812124243976200,5.05697607421875,0.001683591865003109,-0.0013864326756447554,0.0005561236175708473
1782812124254047000,5.067046875,-0.0022447905503213406,-0.00011820788495242596,0.00031352663063444197
1782812124264118000,5.077117919921875,0.001734238350763917,0.00042880536057054996,-0.00020126238814555109
1782812124274189000,5.08718896484375,-0.0012211494613438845,0.0005828575231134892,0.002034812467172742
1782812124284259000,5.097259033203125,-0.0021857465617358685,0.0013362658210098743,-0.0011165060568600893
1782812124294330000,5.107330078125,0.00014845456462353468,-0.0018556679133325815,0.001685761846601963
1782812124304401000,5.11740087890625,-0.0014505074359476566,-0.0004676284734159708,-0.001776613760739565
1782812124314472000,5.127471923828125,-0.0002139592543244362,-0.0006484193727374077,0.0017772003775462508
1782812124324543000,5.13754296875,-0.0002509772311896086,-0.0009320459794253111,0.0007119360379874706
1782812124334614000,5.147614013671875,0.00030097184935584664,-0.000693329144269228,0.0020169932395219803
1782812124344684000,5.15768408203125,-0.0004838617751374841,0.00012292969040572643,-0.002021424239501357
1782812124354754800,5.1677548828125,0.000013893935829401016,-0.00003889016807079315,0.0003147119132336229
1782812124364825900,5.177825927734375,-0.0002170021180063486,0.00044820201583206654,0.001090224483050406
1782812124374897000,5.18789697265625,0.0006467048660852015,-0.0013476077001541853,0.0009358992101624608
1782812124384968000,5.197968017578125,0.0002514917869120836,-0.0009982010815292597,0.0015233925078064203
1782812124395039000,5.2080390625,0.00012962345499545336,0.0010016098385676742,0.001340884598903358
1782812124405109000,5.21810888671875,-0.0014112816425040364,0.0019547552801668644,0.0004481930227484554
1782812124415180000,5.228179931640625,-0.0021599256433546543,-0.0007452855352312326,0.0003286867868155241
1782812124425251000,5.2382509765625,0.00016714457888156176,0.0008456868818029761,0.00032202887814491987
1782812124435322000,5.248322021484375,-0.002757216803729534,0.0021648306865245104,-0.0009234852623194456
1782812124445393200,5.25839306640625,-0.001784364110790193,-0.0007806255016475916,0.0015487272758036852
1782812124455464200,5.268464111328125,0.0005097861285321414,0.001151063828729093,0.0008412458701059222
1782812124465534000,5.278533935546875,0.00044560397509485483,-0.000013802899047732353,-0.00035264930920675397
1782812124475605000,5.28860498046875,-0.0005315663293004036,0.001070027588866651,0.0016569242579862475
1782812124485675500,5.298675537109375,0.002418417250737548,-0.00164000503718853,0.00003798861871473491
1782812124495746600,5.30874658203125,0.0005106884054839611,-0.0015269119758158922,0.002589731477200985
1782812124505815600,5.318815673828125,0.00023132283240556717,-0.0003260925877839327,0.00023736123694106936
1782812124515886600,5.328886474609375,-0.0014074615901336074,-0.0023185538593679667,0.00048187325592152774
1782812124525957600,5.33895751953125,0.0002817815402522683,-0.000029034214094281197,-0.0007482408545911312
1782812124536027600,5.349027587890625,0.0017376684118062258,0.0015586554072797298,0.0011982780415564775
1782812124546098400,5.359098388671875,-0.00104586745146662,0.00038020662032067776,0.0009745724964886904
1782812124556169500,5.36916943359375,0.0006812928477302194,0.0009350243490189314,-0.0006957132718525827
1782812124566240500,5.379240478515625,0.00013028481043875217,0.0004210342885926366,0.0006563735660165548
1782812124576311600,5.3893115234375,-0.0002327588154003024,0.0010486464016139507,-0.0018829542677849531
1782812124586382600,5.399382568359375,-0.001049550250172615,0.0016638366505503654,0.0003237409982830286
1782812124596452400,5.409452392578125,0.00046097347512841225,-0.00045793154276907444,0.0009261135710403323
1782812124606523400,5.4195234375,-0.0007393133128061891,0.0005966803291812539,-0.0029325406067073345
1782812124616594400,5.429594482421875,-0.0012809140607714653,-0.00020820065401494503,-0.000857422302942723
1782812124626665500,5.43966552734375,0.0010096707846969366,-0.0008132709190249443,-0.0015106956707313657
1782812124636736500,5.449736572265625,0.00048450869508087635,-0.000485770171508193,-0.0005507009336724877
1782812124646806500,5.459806640625,-0.0004441355122253299,0.0003555223811417818,0.0005784793756902218
1782812124656877600,5.469877685546875,0.001678472151979804,-0.0008939565159380436,0.0003203544474672526
1782812124666948600,5.479948486328125,-0.0020113373175263405,-0.0007083341479301453,-0.0007105552358552814
1782812124677019600,5.49001953125,-0.00009710609447211027,-0.0005742276553064585,-0.0016912873834371567
1782812124687090700,5.500090576171875,0.0010525805409997702,0.00015840795822441578,0.0018810768378898501
1782812124697161700,5.51016162109375,-0.0008239222224801779,-0.0005357954651117325,0.0033550935331732035
1782812124707231500,5.5202314453125,0.0017601428553462029,-0.00019144872203469276,0.00035637416294775903
1782812124717302500,5.530302490234375,0.000060030375607311726,0.0021663017105311155,-0.001839733449742198
1782812124727373600,5.54037353515625,-0.0022481312043964863,0.0012879911810159683,0.0012820239644497633
1782812124737444600,5.550444580078125,-0.0005373663734644651,0.07827246934175491,0.0012879406567662954
1782812124747515400,5.560515380859375,0.00012229871936142445,-0.031995177268981934,0.000825083174277097
1782812124757586400,5.57058642578125,-0.0011734541039913893,0.0037859678268432617,0.002461406635120511
1782812124767656400,5.580656494140625,0.0005978142144158483,0.014612516388297081,-0.0004459662886802107
1782812124777727500,5.5907275390625,0.0006045633344911039,-0.0066648065112531185,-0.0016136850463226438
1782812124787798500,5.600798583984375,0.000584057008381933,-0.005306860897690058,-0.0006855733809061348
1782812124797869600,5.61086962890625,-0.00007237063255161047,-0.0008082825224846601,-0.0027006131131201982
1782812124807940600,5.620940673828125,0.001222990918904543,-0.014264436438679695,-0.003952298779040575
1782812124818011600,5.63101171875,-0.0005469053285196424,-0.013263404369354248,-0.0005700819310732186
1782812124828081700,5.64108154296875,0.0004352684482000768,0.004533169791102409,0.0021314288023859262
1782812124838152700,5.651152587890625,-0.0008098237449303269,-0.00297333300113678,-0.0016852568369358778
1782812124848223500,5.661223388671875,0.0007071127183735371,-0.0012417454272508621,0.0002532580983825028
