time,seconds_elapsed,z,y,x
1782661267641256400,0.08125634765625,1.500238558244705,0.37781069183498617,-0.13134451629798857
1782661267651327500,0.091327392578125,1.6420979292184112,0.2317889404848218,-0.3904821034900844
1782661267661398500,0.1013984375,1.378214937597513,0.4957271694242954,0.16127090453878043
1782661267671470600,0.111470703125,0.8464443948894739,0.5252341266766191,0.22780308571904898
1782661267681541600,0.121541748046875,0.1626654276371002,0.5369423923879861,-0.28188042060434815
1782661267691612700,0.13161279296875,-0.42259003702104087,0.7334098441228271,-0.16222740154601634
1782661267701684700,0.141684814453125,-0.53723348428905,0.7566033804446458,0.23217845125906167
1782661267711755800,0.151755859375,-0.323841493499279,0.6059700436457991,0.322407734369114
1782661267721826600,0.16182666015625,-0.3160316965311766,0.23122926077544687,0.1346491473339498
1782661267731898600,0.171898681640625,-0.34795185240507126,-0.20796821217536926,-0.1545150736030191
1782661267741969700,0.1819697265625,-0.16885609897077083,-0.4057803565174341,-0.4410392283599823
1782661267752040700,0.192040771484375,0.003947860842943191,-0.42153380596637724,-0.42563977998048064
1782661267762112500,0.202112548828125,0.1184855096489191,-0.33966391653120515,-0.16772965222410857
1782661267772183600,0.21218359375,-0.03688333123922348,-0.22983576059043406,0.13620207586437463
1782661267782254600,0.222254638671875,-0.4266717533767223,-0.006842705501616001,0.17347659837827084
1782661267792326700,0.23232666015625,-0.7233762336254119,0.23182722666859626,0.1156838962316513
1782661267802397700,0.242397705078125,-0.948683703136444,0.3719657651990652,0.035913755554705856
1782661267812468500,0.252468505859375,-0.9167401663869619,0.4100090801283717,-0.010355828189104795
1782661267822540500,0.26254052734375,-0.5203127446264029,0.6739546155914664,0.0896167041696608
1782661267832611600,0.272611572265625,0.13293898241519927,0.843943225723505,0.3212317493923008
1782661267842682600,0.2826826171875,0.6306564488738775,0.27922990609556436,0.33347660619840025
1782661267852754700,0.292754638671875,0.495138555881381,-0.4175733779028058,0.1995771081879735
1782661267862825700,0.30282568359375,0.023176292926073074,-0.7038242686763405,0.022580518990010023
1782661267872896800,0.312896728515625,-0.565335543179512,-0.9161483379736542,-0.24002996847704053
1782661267882968600,0.322968505859375,-0.9248808027446269,-1.2621283057838677,-0.5953336449496448
1782661267893039600,0.33303955078125,-0.8331248945891857,-1.049974332356453,-0.6198391406528652
1782661267903110700,0.343110595703125,-1.4663976634413003,-0.6453934147566557,-0.5946916937842964
1782661267913182700,0.3531826171875,-2.4478403113633393,-0.38075375954955815,-0.40598786178827284
1782661267923253500,0.36325341796875,-2.632075181251764,-0.3258899504616856,-0.23567805687785148
1782661267933324500,0.373324462890625,-2.325394081389904,-0.5500064566224813,-0.059007192502915855
1782661267943396600,0.383396728515625,-1.3117325869083403,-0.8538517485365271,-0.01746624471619725
1782661267953467600,0.393467529296875,-0.21955635863840578,-0.8549041801989078,0.006982990755140781
1782661267963538700,0.40353857421875,0.23399580287933347,-0.5092106281146407,0.18452384289763868
1782661267973610800,0.41361083984375,0.5562918205022812,-0.19033932424336672,0.44899245238676666
1782661267983681800,0.423681884765625,1.310163145634532,0.0862386060386896,0.5322763002730906
1782661267993752800,0.4337529296875,2.287673714804649,0.24593173986673353,0.5969372076887637
1782661268003824600,0.44382470703125,2.650246797758341,0.2565101247653365,0.7119620554897934
1782661268013895700,0.453895751953125,2.582509478572011,0.5714855902418494,0.848087558986619
1782661268023966500,0.463966552734375,2.4963597198605534,1.0291074854165314,0.8751474153477699
1782661268034038500,0.47403857421875,2.1902432681441306,1.1675558789029716,0.6351352747883647
1782661268044109600,0.484109619140625,1.7738006478369235,1.1851967495337128,0.40411322702281177
1782661268054180600,0.4941806640625,1.6770651977032422,1.0930407361447811,0.28132278672158717
1782661268064252700,0.504252685546875,1.4597791220843792,0.7999807498782873,0.09421996018141507
1782661268074323700,0.51432373046875,0.5964402910172939,0.46744332422614093,-0.272171512016654
1782661268084395500,0.5243955078125,0.430702616328001,0.2516016021966934,-0.5823166347272694
1782661268094466600,0.534466552734375,0.9710305595010519,0.1395934718683362,-0.6789553464882075
1782661268104537600,0.54453759765625,1.4118845674872398,-0.10593874728679656,-0.8053275177337229
1782661268114609700,0.554609619140625,1.4986808074086904,-0.4361714031279087,-1.0178393646880983
1782661268124680400,0.564680419921875,1.3063070547282696,-0.5404270196333527,-1.2464711563162505
1782661268134751500,0.57475146484375,0.6336112070262432,-0.3249538386553526,-1.3655385575063526
1782661268144823600,0.584823486328125,0.4367687844991684,0.1884118633121252,-1.236619332126528
1782661268154894600,0.59489453125,1.2483458641469478,0.6530494824677705,-0.9617655952885746
1782661268164965600,0.604965576171875,1.5213421365499495,0.8521671564504504,-0.7730942042574286
1782661268175037700,0.61503759765625,1.5761679517149925,0.8595899999275803,-0.6788255826286971
1782661268185108700,0.625108642578125,1.4338637595832346,0.5132169411465526,-0.8453101301625371
1782661268195179800,0.6351796875,0.7586608974963426,-0.11844400859475135,-1.2057459088265896
1782661268205251600,0.64525146484375,0.23227321687042712,-0.6406083724372088,-1.456781986095011
1782661268215322600,0.655322509765625,0.0682663114964962,-0.9588589140616357,-1.4245391741380096
1782661268225393400,0.665393310546875,-0.10095336008965969,-1.0533028922572731,-1.2337902461804449
1782661268235465500,0.675465576171875,-0.4897931032001972,-0.7388779002703726,-0.896875774487853
1782661268245536500,0.68553662109375,-1.2006868718713521,-0.023343612316995856,-0.4414325385265052
1782661268255607600,0.695607666015625,-1.640287664926052,0.6192055189244449,-0.020040917509794233
1782661268265679600,0.7056796875,-1.756382480046153,0.7779127104550599,0.30352088226526974
1782661268275750700,0.715750732421875,-1.9023305816382168,0.5220012822352349,0.5596197958812117
1782661268285822700,0.72582275390625,-2.1567653614342213,0.1313857616238296,0.7024551722802221
1782661268295893800,0.735893798828125,-2.3424539372622966,-0.19355097976624966,0.7290285602986812
1782661268305964800,0.74596484375,-2.4117945999920365,-0.42477308014854787,0.6741327486373484
1782661268316036600,0.75603662109375,-2.342946689215302,-0.4834146542094648,0.6002437749534845
1782661268326107600,0.766107666015625,-2.316947155562043,-0.5074816123649478,0.5630941939935088
1782661268336178400,0.776178466796875,-2.3192571860700846,-0.6184257667236029,0.509627684482932
1782661268346250500,0.78625048828125,-2.1835177592813966,-0.6772542416587471,0.5326262827545404
1782661268356321500,0.796321533203125,-1.912299017944932,-0.7479255684703588,0.5749848305344581
1782661268366392600,0.806392578125,-1.6090455544441937,-0.8598490892551839,0.6273463014125824
1782661268376464600,0.816464599609375,-1.2892121275424957,-0.9510125844754278,0.704724140125513
1782661268386535700,0.82653564453125,-1.0407622673749923,-0.9897644860655069,0.8826420819520949
1782661268396606700,0.836606689453125,-0.7684013702660799,-0.9369498645924031,1.055233568058908
1782661268406678800,0.8466787109375,-0.5391127221643924,-0.8465916944056748,1.148668223081529
1782661268416749800,0.856749755859375,-0.5284995582133531,-0.6905806100912392,1.1575693224176764
1782661268426821600,0.866821533203125,-0.4527051892995834,-0.6156773447982966,1.048607866308838
1782661268436892700,0.876892578125,-0.3145692227631807,-0.7362661103367805,0.9478571891844272
1782661268446963500,0.88696337890625,0.06723053870797156,-0.9341634487442672,0.7886084381230175
1782661268457035500,0.897035400390625,0.46147710929811,-1.043054323834926,0.7062013730712234
1782661268467106600,0.9071064453125,0.7677806080192328,-1.0925377550587057,0.712308165513724
1782661268477177600,0.917177490234375,1.0338339294165373,-1.0462332461319863,0.7474545899577438
1782661268487249700,0.927249755859375,1.192284954228997,-0.8794732426576316,0.8152930314309894
1782661268497320700,0.93732080078125,1.309344230467081,-0.7154979014657438,0.9758416130445897
1782661268507391700,0.947391845703125,1.363757373178005,-0.6250502994298934,1.1231836532130837
1782661268517463800,0.9574638671875,1.4128086965948343,-0.5206107046596705,1.157761191727966
1782661268527534800,0.967534912109375,1.4982985300928353,-0.39882228100784123,1.0749081364743411
1782661268537606700,0.977606689453125,1.603093952563405,-0.24137020410485563,1.0322668262302874
1782661268547677700,0.987677734375,1.75293789255023,-0.017314780481532215,1.040214570364356
1782661268557748500,0.99774853515625,2.032487239858508,0.13447598272413014,1.0057320166565478
1782661268567820500,1.007820556640625,2.168285703358054,0.14584939045794307,0.8859276794940233
1782661268577891600,1.0178916015625,2.0704186188459395,0.02192885014824569,0.7064148696914315
1782661268587962600,1.027962646484375,2.1856009952962396,-0.12263298471719025,0.5267231961905956
1782661268598034700,1.03803466796875,2.312487838065624,-0.14659633636772632,0.4294152068659663
1782661268608105700,1.048105712890625,2.0262106438070533,-0.17455818306989968,0.3034029549740255
1782661268618177500,1.058177490234375,1.3664075954258441,-0.08548618023619055,0.13716931346133351
1782661268628248600,1.06824853515625,0.664479223498702,0.07758651302754878,-0.03877659763991832
1782661268638319600,1.078319580078125,0.31882454212009903,0.04384411016255617,-0.1296777886621654
1782661268648392000,1.088391845703125,-0.2677501884430647,-0.20175328318327665,-0.11894494385421275
1782661268658462700,1.098462646484375,-1.0390390968441963,-0.605001344744116,-0.07643047486022114
1782661268668533800,1.10853369140625,-2.0995541124373673,-0.9261994841277599,0.06560922111645341
1782661268678605800,1.118605712890625,-4.044067885288596,-1.1863235616065562,0.06502002305164933
1782661268688676900,1.1286767578125,-6.5386272777289145,-1.3638615642048417,-0.2559519063606858
1782661268698749000,1.1387490234375,-8.52984785669744,-1.2748657684125007,-0.7518503406986594
1782661268708820000,1.148820068359375,-9.621693830099701,-0.9944402227915823,-1.161820550121367
1782661268718891000,1.15889111328125,-9.626686816081405,-0.8162984090812504,-1.5331782664246856
1782661268728962800,1.168962890625,-8.792880953490734,-0.6598213146902621,-1.788358165499568
1782661268739033900,1.179033935546875,-8.056010447520016,-0.1588882471859455,-2.0223285416767
1782661268749104600,1.189104736328125,-6.964744319832325,0.8099687676683068,-2.41495437919721
1782661268759176700,1.1991767578125,-5.854207674485445,1.6800275546401737,-2.6777953144192694
1782661268769247700,1.209247802734375,-4.850300681298971,1.747918895344436,-3.1786966716110703
1782661268779319800,1.21931982421875,-3.8976445674002167,1.1497831985861062,-3.88611253503859
1782661268789390800,1.229390869140625,-2.9451217244923114,0.03185322811752558,-4.832836336278915
1782661268799462000,1.2394619140625,-2.0632535495221616,-1.0911319799140096,-5.923475271978974
1782661268809534000,1.249533935546875,-1.9730857873409986,-1.985864020371437,-6.368569986274838
1782661268819605000,1.25960498046875,-2.2644874850064514,-2.299082705308497,-6.061114979431033
1782661268829676800,1.2696767578125,-2.0920599572896954,-1.8132903621822594,-5.039107681408524
1782661268839747800,1.279747802734375,-1.4930828412711619,-0.9762751821562647,-3.7167490710675715
1782661268849819000,1.28981884765625,-0.5971382101535797,-0.15449235031455755,-2.501247784163058
1782661268859891000,1.299890869140625,1.0266384649544953,0.6784452050089835,-1.4014889918096363
1782661268869961700,1.309961669921875,2.9528146170824763,1.1485817138418555,-0.6452173275373876
1782661268880032800,1.32003271484375,3.924759953340888,0.9711958330653607,-0.44680297951847314
1782661268890104800,1.330104736328125,4.043012238755822,0.6272028012886643,-0.7402358907505869
1782661268900176000,1.34017578125,4.006577820327878,0.179988026098907,-1.184226443196833
1782661268910247700,1.35024755859375,3.8936762482911345,-0.2661569279022515,-1.653119089448452
1782661268920318700,1.360318603515625,3.008234306487441,-0.33142361919134855,-1.9459683555737137
1782661268930389800,1.3703896484375,1.6075421641439198,-0.2482930621705949,-1.619060167980194
1782661268940461800,1.3804619140625,1.4399106385320424,0.15579685704186558,-0.8136290437415242
1782661268950532900,1.390532958984375,2.082700592792034,0.7393288589082658,0.1402761934354901
1782661268960604000,1.40060400390625,2.78745629709959,1.1343491903498768,1.2882896058700979
1782661268970676000,1.410676025390625,3.596412380594015,1.257967094451189,2.5309523098140954
1782661268980746800,1.420746826171875,4.1866339432269335,1.2247120367117226,3.765262049823999
1782661268990818800,1.43081884765625,4.366179193994403,1.1003037128850817,4.6092035219818355
1782661269000889900,1.440889892578125,4.1451521782815455,1.0100190463259815,5.103627792114019
1782661269010961000,1.4509609375,3.8692245286017655,0.9444784334663301,5.127275794205069
1782661269021032700,1.46103271484375,3.271054637312889,0.7288521808184683,4.728408578076959
1782661269031103700,1.471103759765625,2.362267475757003,0.30356629230957477,4.117021477818489
1782661269041175800,1.48117578125,1.9348709152370691,-0.19710511031756175,3.457605382928252
1782661269051246800,1.491246826171875,2.20574245057106,-0.7249012512356042,2.924702913580835
1782661269061318000,1.50131787109375,3.087448712977767,-1.1573295223124325,2.8399109992191196
1782661269071390000,1.511389892578125,4.120872308027744,-1.6145257394209502,3.1993963452905416
1782661269081461000,1.5214609375,4.730802779737115,-1.875228055179119,3.5211414510324595
1782661269091531800,1.53153173828125,4.655226437488198,-1.72642660998255,3.389469419813156
1782661269101603800,1.541603759765625,4.234443742150068,-1.3653455191522836,3.0057711312443014
1782661269111675000,1.5516748046875,3.914896146452427,-0.9137917649101466,2.947143585708737
1782661269121746700,1.56174658203125,3.942801805987954,-0.6552563448622822,2.942984712463617
1782661269131817700,1.571817626953125,3.819216927373409,-0.875899183563143,2.4625749391585585
1782661269141888800,1.581888671875,3.138081752628088,-1.138723021519929,1.9486685544431208
1782661269151960800,1.5919609375,2.203342403692007,-0.9484780975617467,1.9854060474708675
1782661269162031900,1.602031982421875,1.6840356212377547,-0.29075346288979054,2.08423730084002
1782661269172104000,1.61210400390625,1.5918623644530772,0.6828631675817072,1.9410344063028693
1782661269182175000,1.622175048828125,1.7217933972239494,1.6964155026003718,1.9127099368333815
1782661269192246000,1.63224609375,1.7645166866630315,2.4381050992906093,2.1394448087990283
1782661269202318000,1.642318115234375,1.3524644102692602,3.0128967453405258,2.4611820234954354
1782661269212388900,1.652388916015625,0.21337445513308048,3.5141882708936927,2.587862237776816
1782661269222460700,1.662460693359375,-1.5369751744896172,3.948435135699808,2.3830323236271735
1782661269232531700,1.67253173828125,-3.6764831116527317,4.3327945185258985,2.036153653411567
1782661269242602800,1.682602783203125,-5.80449525681138,4.324176327784359,1.6671562364988028
1782661269252674800,1.6926748046875,-7.800002134796976,3.3336376424759626,0.8723448520824313
1782661269262745900,1.702745849609375,-8.245727548211812,1.1940636543393135,-0.5437535337075591
1782661269272818000,1.71281787109375,-6.74498162496686,-1.8754639097616075,-1.523802243053168
1782661269282889000,1.722888916015625,-5.349383006370068,-5.296739211419224,-1.348720985957235
1782661269292960000,1.7329599609375,-4.6252778739482165,-7.6109046273082495,-1.8077872347213326
1782661269303031800,1.74303173828125,-4.835341012576222,-7.29573510056436,-2.4523434680014846
1782661269313102800,1.753102783203125,-6.80260846902728,-5.344679358723759,-2.6098589655295013
1782661269323174000,1.763173828125,-9.42626302793622,-3.3206834683567283,-2.651449159285426
1782661269333245700,1.77324560546875,-11.859634668964146,-1.71372611836344,-2.94864872957468
1782661269343316700,1.783316650390625,-13.585582847779989,-0.6352621891036629,-3.2189585393726823
1782661269353388800,1.793388916015625,-13.2133067014575,-0.529753065405786,-3.2535768482893705
1782661269363459800,1.8034599609375,-10.496274770671128,-1.392029235677421,-3.706106388761103
1782661269373531000,1.81353076171875,-7.098536119684576,-2.5362767197072507,-4.033732953757047
1782661269383606000,1.82360595703125,-2.828289242747426,-4.416242617063224,-3.912711788150668
1782661269393676800,1.8336767578125,-1.519060163092613,-4.305188426458836,-3.484547458128631
1782661269403747800,1.843747802734375,-0.7003530854344368,-3.162197664491832,-2.789983769750595
1782661269413820000,1.85381982421875,-0.5069307004839182,-1.6282894763574003,-2.030593242805451
1782661269423891000,1.863890869140625,-0.4818400983691215,-0.55371086409837,-1.4751682682655751
1782661269433962800,1.873962646484375,-0.07545242360830307,-0.22667232812345026,-1.1574454037770627
1782661269444033800,1.88403369140625,0.7595008554518222,-0.26085049205720423,-1.0902714175619184
1782661269454104800,1.894104736328125,1.9458926599889992,-0.2347729247316718,-0.883628754901886
1782661269464177000,1.904177001953125,2.596699916487932,-0.04412000449448824,-0.3957503992818296
1782661269474248000,1.914248046875,3.0018524964958426,0.3144382898598909,0.37033845625817774
1782661269484320000,1.924320068359375,3.7838071758180853,0.7323363696724176,0.8307948442064225
1782661269494391000,1.93439111328125,4.283274116292596,0.5816659157335757,1.0491659385830163
1782661269504461800,1.9444619140625,4.682724685266614,0.1814721271768212,1.384781748767197
1782661269514533600,1.95453369140625,5.41806549745202,0.04858049103468656,1.9635000667415559
1782661269524604700,1.964604736328125,6.038657648429274,0.18558248510509728,2.4140857796691355
1782661269534676700,1.9746767578125,6.341544032183289,0.6139709792718291,2.845982135826349
1782661269544747800,1.984747802734375,6.188898478779197,1.1774050727441907,3.245800076808035
1782661269554818800,1.99481884765625,5.816421256926655,1.607417807111889,3.283388049185276
1782661269564891000,2.004890869140625,5.501549251824617,1.7628358939692377,3.124403940409422
1782661269574962000,2.0149619140625,5.391065846845508,1.7271344659909604,2.848205364833772
1782661269585033000,2.025032958984375,5.440348640930653,1.5263722396716475,2.4487033579334616
1782661269595105000,2.03510498046875,5.722652255383133,1.2357348043769598,1.8632628920972347
1782661269605175800,2.04517578125,6.0551382431089875,1.055287344072759,1.4222007943183184
1782661269615247600,2.05524755859375,6.441130195572972,0.9658826752185821,1.1543962453395127
1782661269625318700,2.065318603515625,6.717973206532001,1.0635945691689848,0.9850811505548656
1782661269635389700,2.0753896484375,7.009152785879373,1.5249778627038002,0.8708033947940915
1782661269645462800,2.085462890625,7.369783502593636,2.1493100769922138,0.6526062687449157
1782661269655533800,2.095533935546875,7.657507973051071,2.585883046658337,0.2286228046040982
1782661269665606000,2.10560595703125,7.690971851235628,2.773514280986786,0.11744630279429256
1782661269675677000,2.115677001953125,7.511136093088984,2.9106667894437908,0.7538787777863443
1782661269685748000,2.125748046875,7.024566043588519,3.0807913009151813,1.135675908908993
1782661269695819800,2.13581982421875,5.99791530367434,3.121172995664179,0.5945858222570269
1782661269705890800,2.145890869140625,5.513328536945581,2.744462081764638,-0.4999012402385473
1782661269715963000,2.155962890625,5.31082794252634,2.265044242106378,-1.0381821877539157
1782661269726034000,2.166033935546875,4.970705176311731,2.1464131865069267,-0.5748157210452481
1782661269736104700,2.176104736328125,4.069779834172129,2.2984786019355057,-0.10112517299260944
1782661269746177000,2.186177001953125,2.4903859061479565,2.402064064094424,0.07895279641207308
1782661269756247800,2.196247802734375,0.2330500464618206,2.2027274866640565,0.7516177740518003
1782661269766319900,2.20631982421875,-2.2496733622342346,1.0094634582698345,1.7577397398740051
1782661269776391000,2.216390869140625,-3.9297915177673097,-2.003465728035569,1.894154289445281
1782661269786462000,2.2264619140625,-3.1597745289981365,-5.869898580092191,1.0024908427782355
1782661269796533800,2.23653369140625,-0.6132283442109823,-9.392359589290619,-0.15057422702275217
1782661269806604800,2.246604736328125,-2.1642402273595334,-11.259317828774451,0.46697760641053315
1782661269816676900,2.2566767578125,-5.635130039274692,-10.626059672969578,0.5651327871490269
1782661269826748000,2.266747802734375,-6.818925982099771,-8.445459262439607,-0.2936339136969298
1782661269836819000,2.27681884765625,-7.800535218760371,-6.326673210787773,0.021383783486112952
1782661269846891000,2.28689111328125,-11.200428417432308,-4.042482661923766,0.5709815131772309
1782661269856961800,2.2969619140625,-14.450017072868347,-2.227628119164705,0.19349552325196562
1782661269867033900,2.307033935546875,-14.487452192771434,-1.2915946387648582,-0.8229732837352901
1782661269877104600,2.317104736328125,-12.255278831392525,-1.0589993503332138,-1.6488079482510685
1782661269887175700,2.32717578125,-9.744812260246276,-1.4000477069601416,-2.625533504523337
1782661269897247700,2.337247802734375,-6.768778680139779,-1.7877882566571235,-3.2594591843262313
1782661269907318800,2.34731884765625,-4.70499964543879,-1.1756079601943492,-3.500062130385637
1782661269917390800,2.357390869140625,-4.089180700212717,0.13308452836573123,-2.854203728465736
1782661269927462000,2.3674619140625,-4.154092440584302,1.6876126029416918,-1.1541251002479345
1782661269937533000,2.377532958984375,-4.943088270589709,2.9624963454023003,0.46944428878501054
1782661269947605000,2.38760498046875,-5.230682392665743,3.3501956863060594,1.224980770650506
1782661269957676000,2.397676025390625,-4.156507100510597,2.821491253170371,1.3694742895200849
1782661269967747800,2.407747802734375,-1.9511369903832674,1.4888625932276247,1.1137395330414175
1782661269977818600,2.417818603515625,0.5436076954960822,0.036892683589458464,0.626982947992906
1782661269987889700,2.4278896484375,2.9469255590438843,-0.9268331058561802,0.1838240240652114
1782661269997961700,2.437961669921875,5.049341490653157,-1.5331217139318585,0.0012513883005827666
1782661270008032800,2.44803271484375,6.4391422366261475,-1.873042527833581,0.3738467566400766
1782661270018104800,2.458104736328125,7.201317864245176,-1.736982783049345,1.1193071040406823
1782661270028176000,2.46817578125,7.5772186308056115,-1.2064826986685395,2.120654183611274
1782661270038247000,2.478246826171875,7.34802993594706,-0.49946635595262046,3.1432004108160734
1782661270048319000,2.488319091796875,6.292901874089241,0.1992572285838425,3.859898774112761
1782661270058390000,2.49839013671875,4.5556344288796184,0.7337937288738787,4.033554382319748
1782661270068461800,2.5084619140625,3.1777772186785933,1.0687414305381475,3.38325186047256
1782661270078532900,2.518532958984375,2.5579478687673807,1.1676643077135085,2.409688567623496
1782661270088603600,2.528603759765625,2.759992536112666,1.012132239087671,1.6091368859894573
1782661270098675700,2.53867578125,3.477120815259218,0.6966425404787063,1.1028417799953372
1782661270108746800,2.548746826171875,4.2279654860466716,0.46499885368347166,0.858927590496093
1782661270118818800,2.55881884765625,4.82999146824181,0.38174014023840425,0.6612059009164571
1782661270128889900,2.568889892578125,5.347448238915205,0.4446177444338798,0.5504859107024968
1782661270138961000,2.5789609375,5.7603556708335875,0.5673538972645997,0.5405905396319926
1782661270149032700,2.58903271484375,5.996567980718613,0.6762871501922607,0.6936547568395733
1782661270159103700,2.599103759765625,6.1903989464700215,0.8240010924130677,0.8209425816252827
1782661270169174800,2.6091748046875,6.369059815618395,1.0925403854072093,0.9611091772064566
1782661270179246800,2.619246826171875,6.413857573243975,1.370025785923004,1.0017740728110074
1782661270189318000,2.62931787109375,6.296437646999955,1.6624442594155668,1.1055409559514373
1782661270199390000,2.639389892578125,5.974503448426723,1.9389450328081845,1.237006139487028
1782661270209460700,2.649460693359375,5.433828883773088,2.0811893114462494,1.1840109738152473
1782661270219531800,2.65953173828125,4.946753807359934,2.202797337029874,1.0639417021062225
1782661270229603800,2.669603759765625,4.3716053106963635,2.2849448743626475,0.8464442487590015
1782661270239675000,2.6796748046875,3.419986138629913,2.0826228513807057,0.5738451589800417
1782661270249746700,2.68974658203125,1.8093921856999395,1.6315791655525564,0.056127326217666265
1782661270259817700,2.699817626953125,-0.2858031470060348,0.9313926688566804,-0.5526994220335036
1782661270269888800,2.709888671875,-2.98169701269567,-0.16586714628785848,-0.8100101956572383
1782661270279960800,2.7199609375,-5.929366083583235,-1.8535612900331615,-0.6853671132266521
1782661270290031900,2.730031982421875,-7.405307235917449,-4.031867744407058,-0.718900257255137
1782661270300104000,2.74010400390625,-5.779850644898414,-5.4568742437958715,-1.5083857704736292
1782661270310175000,2.750175048828125,-4.193775631675124,-5.476655049064755,-2.095999927087128
1782661270320245800,2.760245849609375,-5.609003079849481,-6.194937174421549,-1.1331396684296429
1782661270330317800,2.77031787109375,-7.586030882814526,-6.0656339181601995,-1.7660408274903892
1782661270340388900,2.780388916015625,-8.216594977229834,-3.845271113823354,-2.968186958259344
1782661270350460700,2.790460693359375,-8.486396252983807,-1.8423507447108625,-2.745061508962512
1782661270360531700,2.80053173828125,-10.395267050045728,-0.8482651805758475,-1.8873624373480677
1782661270370602800,2.810602783203125,-12.715626059877872,-0.5523354840919376,-1.4986998043701052
1782661270380674800,2.8206748046875,-12.905793242424727,-0.20631839914172886,-1.1154504286125302
1782661270390745900,2.830745849609375,-11.603875947088003,0.28807518359124656,-0.5776438206106423
1782661270400818000,2.84081787109375,-9.450283954992889,0.5984943009376525,-0.31650618217512966
1782661270410889000,2.850888916015625,-6.3851183854937545,0.4475128813534975,-0.1695505109757185
1782661270420960000,2.8609599609375,-2.676873523399234,-0.2140679903551936,-0.23881730475164947
1782661270431032000,2.871031982421875,0.17953356032967566,-1.2068670218110085,-0.5452509326584637
1782661270441102800,2.881102783203125,0.9465069436192513,-1.8742419667512178,-0.9758837716858834
1782661270451174700,2.891174560546875,-0.0919815336048603,-1.7638696209311484,-1.4432821607917545
1782661270461245700,2.90124560546875,-1.2628624652773142,-1.0132081977561116,-1.4308273144967854
1782661270471316700,2.911316650390625,-1.8327309757113455,-0.04391965961679816,-0.8991881430834531
1782661270481388800,2.921388916015625,-2.017574332886934,0.7176350596249104,-0.12066007720902562
1782661270491459800,2.9314599609375,-1.9442998378396033,0.9769071964494883,0.6565637741990387
1782661270501532000,2.941531982421875,-1.724871489495039,0.7462298704683781,1.2195609375588594
1782661270511603000,2.95160302734375,-1.34140525611639,0.09585866729915142,1.4545868141382932
1782661270521674000,2.961674072265625,-0.5860188502460718,-0.6534156854316592,1.3645900246098637
1782661270531745800,2.971745849609375,0.688798841241002,-1.300495591970533,1.1059596197549253
1782661270541816800,2.98181689453125,2.3218454489976166,-1.7429243019275367,0.8317392854496836
1782661270551889000,2.991888916015625,4.04378030051887,-1.9261697223871945,0.6209462981771677
1782661270561959700,3.001959716796875,5.644653069901466,-1.8582851036846637,0.43134252166673537
1782661270572030700,3.01203076171875,6.954526877200603,-1.5381109005212783,0.32578605169579383
1782661270582102800,3.022102783203125,7.661690227171778,-1.0590943351402877,0.35668570541553196
1782661270592173800,3.032173828125,7.625983538496494,-0.565438126771152,0.5169645301770418
1782661270602246000,3.042245849609375,7.060167518323659,-0.17044614464119076,0.5579817463506013
1782661270612317000,3.05231689453125,6.3748851607710115,0.14496420512124894,0.6638516661848872
1782661270622388000,3.062387939453125,5.863508002272248,0.40033655802831053,0.8564563780769705
1782661270632459800,3.072459716796875,5.820059321168065,0.477754874882102,0.8863308534674346
1782661270642530600,3.082530517578125,6.236222540012002,0.3918365868389606,0.8055997588038444
1782661270652602400,3.092602294921875,6.747830000135302,0.7716381602302194,0.8384882482532411
1782661270662673400,3.10267333984375,7.725757333412766,0.8514189684316515,0.18091025551036
1782661270672744200,3.112744140625,8.043014772346615,0.6784037039548159,0.18204744284674523
1782661270682816500,3.12281640625,7.607249027410149,0.9108440940856933,0.348122971188277
1782661270692887300,3.13288720703125,7.082221529221535,1.6593582760989665,0.14018164701983332
1782661270702959400,3.14295947265625,6.458073731589317,2.7703070093780755,0.13941913821473717
1782661270713030400,3.153030517578125,5.928814294919372,4.031827120135724,0.7406549929454922
1782661270723101400,3.163101318359375,5.488103494796157,5.1060886292696,1.8080227970428764
1782661270733173200,3.17317333984375,5.272812392386794,5.830041786000132,2.8293738231137393
1782661270743244300,3.183244384765625,5.167966116511821,6.027728842657804,3.522514785212278
1782661270753316400,3.19331640625,5.101214885753393,5.972876139485836,3.885421045643091
1782661270763387400,3.203387451171875,4.732117369467019,5.863687450492382,3.7595652994871136
1782661270773458400,3.21345849609375,4.044696246320009,5.4497711337924,3.0718858176648616
1782661270783530500,3.223530517578125,3.3138165051966904,4.177648088216781,1.8504671234101056
1782661270793601300,3.233601318359375,1.9182710780918597,1.7047002236038444,-0.241301011326164
1782661270803673600,3.243673583984375,-2.545757664757967,-1.5048428371697664,-2.3608212224714458
1782661270813744400,3.253744384765625,-6.210012578478455,-4.493080649811029,-3.9046874716490505
1782661270823815400,3.2638154296875,-5.564065621492266,-6.594927841621637,-4.005671226876974
1782661270833887200,3.27388720703125,-3.94094361090064,-8.287798511222004,-1.7994636430121957
1782661270843958300,3.283958251953125,-3.633966158440709,-8.902509202945232,-0.3136765847723931
1782661270854030300,3.2940302734375,-4.664263145902753,-7.0683186760753385,-0.7370450588200241
1782661270864101400,3.304101318359375,-5.861548684898018,-4.926830378749966,-1.4282137709975242
1782661270874172400,3.31417236328125,-7.729669538420438,-4.086090917503833,-1.9900427673608063
1782661270884244500,3.324244384765625,-11.23389814083576,-3.44705300925374,-2.5960665870204567
1782661270894315500,3.3343154296875,-15.987426547122,-2.1929069343954324,-2.5734365298002957
1782661270904387600,3.3443876953125,-17.644609232747555,-0.8075327726930379,-2.373371053573489
1782661270914458400,3.354458251953125,-14.80132174283266,-0.5808367714330553,-1.868835139271617
1782661270924529400,3.364529296875,-8.589092657348512,-2.4316101843133566,-2.240672601915896
1782661270934601200,3.374601318359375,-2.3472867642462254,-4.846278293915093,-3.7128470951929686
1782661270944672300,3.38467236328125,0.04921791215538978,-5.604432118672132,-4.56739851643145
1782661270954744300,3.394744384765625,-0.17916063536405563,-4.457776696717739,-4.6276592161267995
1782661270964815400,3.4048154296875,-0.9570517185091971,-2.419032150030136,-3.4569828671157357
1782661270974886400,3.414886474609375,-3.124181822091341,-0.5013607913970947,-2.1394060842238365
1782661270984958500,3.42495849609375,-3.905667130336165,0.4082698352456093,-1.2846283068835735
1782661270995029500,3.435029541015625,-2.4070003514528273,0.7438193021953106,-0.9706791157148777
1782661271005101600,3.4451015625,-0.2660843010574579,0.8825266388788818,-0.9788324654236435
1782661271015172600,3.455172607421875,0.8549252229869365,0.10610095211118459,-1.1809823467090725
1782661271025243400,3.465243408203125,1.7294599863290785,-1.0588733858659862,-1.5265274302333594
1782661271035315200,3.475315185546875,2.8482255308389663,-2.038786193872243,-1.5847797127157448
1782661271045386200,3.48538623046875,4.302529436382651,-2.4938109121605754,-1.3087424651816486
1782661271055458300,3.495458251953125,5.2449751219123595,-2.1779136556640264,-0.3528203352242708
1782661271065529300,3.505529296875,4.6782180214971305,-1.2218289555560797,1.5972332438364625
1782661271075600400,3.515600341796875,3.1809856593310832,0.02139525472819805,3.674419749382138
1782661271085672400,3.52567236328125,2.0952157909721136,1.2735887342140078,4.929167881786823
1782661271095743500,3.535743408203125,1.3685761716365814,1.9838858521662652,5.330820344719291
1782661271105815300,3.545815185546875,1.2720727766931057,2.059530145084858,5.208414446756243
1782661271115886300,3.55588623046875,1.8551181640863417,1.6184752076990903,4.661312479403615
1782661271125957400,3.565957275390625,3.0158927122861146,0.846326248402521,3.838581260795891
1782661271136029400,3.576029541015625,4.565270272231102,0.02091039382070303,2.9220351556763053
1782661271146100200,3.586100341796875,6.1077013740390536,-0.7708670297272503,2.090211845204979
1782661271156172300,3.59617236328125,6.836414877039194,-1.2816418384186923,1.4528515147782861
1782661271166243300,3.606243408203125,6.52565556795299,-1.3425289994493126,1.1325788196764885
1782661271176314400,3.616314453125,5.817627710106969,-1.0004900243498385,1.1003871533848344
1782661271186386400,3.626386474609375,5.147524216985702,-0.3364119289979338,1.2962613154016434
1782661271196457500,3.63645751953125,4.630543831652402,0.32060207318663597,1.4879042695894837
1782661271206529300,3.646529296875,4.978225050422549,0.5404783114291727,1.5117629918217659
1782661271216600300,3.656600341796875,5.686838014680147,0.18887422012686728,1.3843255294322967
1782661271226671400,3.66667138671875,6.108290572103858,-0.1162435759410262,1.2128085406892002
1782661271236743400,3.676743408203125,6.224170867690444,0.1905221334643662,1.1596157335534691
1782661271246814500,3.686814453125,5.6309629827231165,1.0661882389239967,1.310950204358995
1782661271256886500,3.696886474609375,5.031161690840125,1.7307170006528496,1.1932793720938264
1782661271266957300,3.706957275390625,4.315949474447965,1.6994139537639914,0.7735835221443325
1782661271277028400,3.7170283203125,3.157667912107706,1.0414081640630959,0.021667568863555788
1782661271287100400,3.727100341796875,2.019893131223321,0.1180015255242586,-0.6710597709327936
1782661271297171500,3.73717138671875,0.5298620787382126,-0.4764864623814821,-0.8984437544569372
1782661271307243300,3.7472431640625,-1.9350719907671212,-0.25268618256300684,-0.9251830005615949
1782661271317314300,3.757314208984375,-4.955885792842507,0.17835341063439844,-0.9800478325627744
1782661271327385300,3.76738525390625,-8.207157871320844,0.14724720149189233,-1.1857632243100553
1782661271337457400,3.77745751953125,-10.275798959100246,-0.7919403590247035,-1.57537972394675
1782661271347528400,3.787528564453125,-8.886125638899207,-2.4268305488213895,-1.8019056293368338
1782661271357600500,3.7976005859375,-5.662520735025406,-4.731075459198653,-1.2803279793411493
1782661271367671600,3.807671630859375,-4.094234476470947,-6.555035976216197,-0.8780151528038084
1782661271377742300,3.817742431640625,-2.7106530434042213,-5.681370981445908,-1.5512757947817444
1782661271387814400,3.827814453125,-1.7118389894425867,-3.5639828138932583,-1.1729951473474503
1782661271397885400,3.837885498046875,-3.0829274361610413,-1.9859207189947365,-0.0008706453546881675
1782661271407957200,3.847957275390625,-6.109369014990329,-0.5225400652870535,1.1324087238065899
1782661271418028300,3.8580283203125,-8.843460217127204,1.0094377393066882,1.3278088385708628
1782661271428099300,3.868099365234375,-9.7293271063447,1.9040306635543702,0.46981604470685123
1782661271438171400,3.87817138671875,-8.451756901279092,1.8736571526005863,-0.8258739005476236
1782661271448242400,3.888242431640625,-6.685228874793649,1.1817717435210942,-1.8836909092284737
1782661271458314500,3.898314453125,-4.456813404643535,0.2978932516418397,-2.2427931012012063
1782661271468385500,3.908385498046875,-1.89963885833621,-0.7406767663858831,-2.1078458477035165
1782661271478456600,3.91845654296875,0.19782032764852045,-1.6982060392789542,-1.560727659868449
1782661271488528400,3.9285283203125,1.810180121207237,-2.306540181707591,-0.827185129276663
1782661271498599200,3.93859912109375,1.316063894110918,-2.2570088196888562,-0.3264792946569621
1782661271508670200,3.948670166015625,-1.77487032289505,-1.3511350613616406,-0.24374781995639203
1782661271518742300,3.9587421875,-4.211552111384273,-0.10837255030497908,-0.17424948244690894
1782661271528813300,3.968813232421875,-4.907214408653974,1.006014632990211,0.4907794838890433
1782661271538885400,3.978885498046875,-3.692822252035141,1.4610574714571236,0.6233522633403539
1782661271548956400,3.988956298828125,-1.5149796157807112,0.9593724896069615,0.1090937041863799
1782661271559027500,3.99902734375,-0.027653146079182622,-0.6085392365466803,-0.3943364408306777
1782661271569099500,4.009099609375,1.0366910724133251,-2.367162115930766,-0.40229587540253997
1782661271579170600,4.019170654296875,2.075081934481859,-3.5746357253327963,0.03738748136907816
1782661271589242400,4.029242431640625,2.984170124810934,-4.00749639647752,0.5450308601669966
1782661271599313400,4.0393134765625,3.9553970836669206,-3.7555987339437005,1.0578257765091954
1782661271609384200,4.04938427734375,4.722284542238712,-3.306647928741574,1.6703616084113717
1782661271619456300,4.059456298828125,5.275405331489443,-3.048756871011853,2.1174175397776067
1782661271629527300,4.06952734375,5.7230532373994585,-2.666765094099939,2.3558884422443804
1782661271639599900,4.079599853515625,5.708619638377428,-2.0135253497570753,2.4190692671701313
1782661271649671000,4.0896708984375,4.994287127429247,-1.2292761297568677,2.342054270420223
1782661271659741700,4.09974169921875,3.6046085465312,-0.33978955220486967,2.1742004803597927
1782661271669813800,4.109813720703125,3.3942098923385142,0.15339268197696654,1.8246973068594932
1782661271679884800,4.119884765625,4.516253435605764,0.12086020289100706,1.436011585266888
1782661271689956600,4.12995654296875,5.140122416296601,-0.2834342989828437,1.277857205313444
1782661271700027600,4.140027587890625,5.629877525573969,-0.7830993193127215,1.1350369534183293
1782661271710098700,4.1500986328125,6.133638948372006,-1.141337514867261,0.9236536721024662
1782661271720170800,4.160170654296875,6.217285199829936,-1.2579404987052083,0.8097154504943639
1782661271730241800,4.17024169921875,6.245749077770114,-1.2057863869674503,0.6179803610436618
1782661271740313900,4.18031396484375,6.293909005305171,-1.088738362775743,0.4289454704623669
1782661271750385000,4.190385009765625,6.38531361580491,-0.7585757034309208,0.4561955156333744
1782661271760455700,4.20045556640625,6.297201617109775,-0.34569852052032946,0.622244302098453
1782661271770527500,4.210527587890625,5.435835547420382,-0.27025384182706474,0.9288581819429993
1782661271780598500,4.2205986328125,4.41383584818244,-0.30945977079495784,1.2266622939966618
1782661271790670600,4.230670654296875,3.1362726573795077,-0.3075881317041814,1.2325881769143043
1782661271800741600,4.24074169921875,2.2433266235560176,-0.21800869080498814,1.3516579161919653
1782661271810812700,4.250812744140625,1.2860644771665335,-0.13935542532876133,1.3584113359749317
1782661271820884700,4.260884765625,-1.5247791252613068,0.04987140762805938,1.610433647801727
1782661271830955800,4.270955810546875,-5.71335134307444,0.1843275166079402,1.9488333896160124
1782661271841026800,4.28102685546875,-8.3180919426769,0.1490184489481151,2.045978151202947
1782661271851099000,4.291098876953125,-8.878388907167315,0.6923503962427378,2.109711641575396
1782661271861170000,4.301169921875,-9.525586740997433,1.6631354565501213,2.233515569768101
1782661271871241700,4.31124169921875,-11.18916117348671,2.3311802635759116,2.2566117831952868
1782661271881312500,4.3213125,-12.533320696747301,3.0839909737393256,1.7184037547856568
1782661271891383600,4.331383544921875,-13.23624450945258,3.720675889122486,0.9542531007666141
1782661271901455600,4.34145556640625,-12.934923475319147,4.388499746873975,-0.354144642630592
1782661271911526700,4.351526611328125,-11.840226204138993,4.578643548545241,-1.6126374414563178
1782661271921598700,4.3615986328125,-10.728244620680808,4.03339217749536,-2.3485949242353437
1782661271931669800,4.371669677734375,-9.42799555081725,3.0025206050157545,-2.9193600912481545
1782661271941740800,4.38174072265625,-8.698906784763931,1.643317095749825,-3.378861808820069
1782661271951812900,4.391812744140625,-8.618777016994356,-0.006620441053062677,-3.2632968627929686
1782661271961884000,4.4018837890625,-7.455708804899453,-1.2569330752283334,-2.97955240188241
1782661271971955700,4.411955810546875,-4.897991237756609,-2.1046976128056643,-3.172726072768867
1782661271982026800,4.42202685546875,-1.8477637096703052,-2.680640182456374,-3.2793367279678582
1782661271992097500,4.43209765625,0.3411339890837669,-1.9509812152996657,-2.3004633460119366
1782661272002169600,4.442169677734375,0.39861178006231784,-1.1562713915616274,-0.8333223168574273
1782661272012240600,4.45224072265625,-0.4925923785299062,-1.0829723465949297,-0.2631025087676942
1782661272022312700,4.462312744140625,-0.6727712510257959,-0.8845616518378258,-0.42539924922287464
1782661272032383700,4.4723837890625,-0.5154693962484598,-0.6753500154726206,-0.8644701731845736
1782661272042454800,4.482454833984375,-0.9033183747559785,-0.4725603749789297,-1.1175196361020208
1782661272052526600,4.492526611328125,-1.3929472273051737,-0.23727570133283732,-1.1275102842405438
1782661272062597600,4.50259765625,-1.524750483688712,-0.0788503954835236,-0.9154378516167402
1782661272072668700,4.512668701171875,-1.144692012926936,0.24548428836017847,-0.5970934942290187
1782661272082740700,4.52274072265625,0.4312164110690355,0.4837295653775334,-0.031003041028976438
1782661272092811800,4.532811767578125,2.6771950104385613,0.6563362490534782,0.6476122598499059
1782661272102883800,4.5428837890625,4.357282186311483,0.7916144880712032,1.4985551352024078
1782661272112954600,4.55295458984375,5.457931643894314,1.2960513259127735,2.238740172548592
1782661272123025700,4.563025634765625,5.959392388534545,1.980237120400369,2.83660903506428
1782661272133097700,4.57309765625,6.190451553440093,2.4708114371061325,2.9823297576412555
1782661272143168800,4.583168701171875,5.94741085883975,2.1810712429121137,2.494428459537029
1782661272153240600,4.593240478515625,5.10469045290947,1.8501140721887348,2.511478670798242
1782661272163311600,4.6033115234375,4.473921775832772,1.8884207142293452,2.819420292115211
1782661272173382700,4.613382568359375,3.9195863500952717,1.9094857140898704,2.928646390509605
1782661272183454700,4.623454833984375,3.4743729778558015,1.8006775488466022,2.847776618027687
1782661272193525800,4.63352587890625,3.4950907717138526,1.5188687321737409,2.546777363194525
1782661272203597800,4.643597900390625,4.047022643440962,1.2016384735077619,1.9926729697339236
1782661272213668900,4.6536689453125,4.95940461461842,0.766580876840651,1.3851767394341528
1782661272223739600,4.66373974609375,7.5562313723564145,0.1587368560165167,0.7384217540007084
1782661272233811700,4.673811767578125,9.604395489296316,-0.23295389261096713,0.28160847179517146
1782661272243882800,4.6838828125,8.83824219021797,0.060791737832128996,-0.39986536031998693
1782661272253953800,4.693953857421875,7.876250677219033,0.769563107521832,-1.104807527110353
1782661272264025600,4.704025634765625,7.226099254280328,1.7387074148848651,-1.2031857029497623
1782661272274096600,4.7140966796875,6.503170179900526,2.936343667013943,-0.938604353801161
1782661272284168700,4.724168701171875,4.499228066524863,4.224055326865614,-0.6885450126104057
1782661272294239700,4.73423974609375,4.531920375815034,4.427035521495342,-0.48365434471685437
1782661272304310800,4.744310791015625,4.6977141646057365,3.762666480372846,-0.380497592831403
1782661272314382800,4.7543828125,4.102684909430146,3.2858471327751873,-0.35260778845213353
1782661272324454000,4.764453857421875,3.98635687007606,3.133890730679035,-0.47665085916295646
1782661272334525700,4.774525634765625,3.8974376466512677,2.500311087834835,-0.6272637376956641
1782661272344596700,4.7845966796875,2.973264699915051,0.6061416008204221,-0.3950065221119672
1782661272354667800,4.794667724609375,0.9825573311656713,-2.47189747877717,0.5353531139025465
1782661272364739600,4.804739501953125,-1.2248755567103624,-5.635786457356811,1.253815235468745
1782661272374810600,4.814810546875,-2.60722189502418,-7.135175705295801,0.11838243286693469
1782661272384881700,4.824881591796875,-3.7820454268425703,-7.533194780161977,-1.2346923095867037
1782661272394953700,4.83495361328125,-5.059490544223785,-8.484961836266518,-0.6141354491185397
1782661272405024800,4.845024658203125,-6.031162324237823,-8.748730261597037,0.020779881042521445
1782661272415096800,4.855096923828125,-5.672187558037042,-6.938676981639862,-0.5831865494295955
1782661272425168000,4.86516796875,-5.119975115802884,-5.000277892276644,-1.2235569483924655
1782661272435239000,4.875239013671875,-4.5804228331774475,-4.326196143174172,-1.116803742917627
1782661272445310700,4.885310791015625,-3.6335657609462735,-4.19784858020246,-0.8189845794253051
1782661272455381500,4.895381591796875,-2.786604064184427,-4.299819592902064,-1.3094178802251815
1782661272465453600,4.90545361328125,-3.291130626136064,-4.573421429982782,-2.6156582994580266
1782661272475524600,4.915524658203125,-5.007686707228422,-5.12427193621397,-3.8852839752599593
1782661272485595600,4.925595703125,-6.219199509018659,-5.56333087747693,-4.614611518505216
1782661272495667700,4.935667724609375,-5.972628886726498,-5.582154820412397,-4.8418423572942615
1782661272505738800,4.94573876953125,-4.421576671567559,-4.992822315573692,-4.4121869119316335
1782661272515809800,4.955809814453125,-2.2981413328051565,-3.5733880633592605,-3.442739529968798
1782661272525881900,4.9658818359375,-0.38100305813550944,-1.3748223725497721,-1.9620709107212722
1782661272535953000,4.975952880859375,0.971464859265089,0.8191513142943382,-0.11696721404045819
1782661272546024700,4.986024658203125,1.8231079918414352,2.398078793850541,1.477599440935254
1782661272556095700,4.996095703125,2.169405062776804,3.0180554432779547,2.421354163236916
1782661272566166500,5.00616650390625,1.767824496036768,2.7508655190661546,2.4324504345297813
1782661272576238600,5.016238525390625,1.0428326439082622,1.863892714433372,1.6963174490533768
1782661272586309600,5.0263095703125,0.4581172774761915,1.1101324484601616,0.7948052469365299
1782661272596381700,5.036381591796875,0.18512042055130004,0.7517179464906454,0.2464397624541074
1782661272606452700,5.04645263671875,0.3116068658262491,0.6079609252020717,0.1668915208995342
1782661272616523800,5.056523681640625,0.4324719640880823,0.753585493928194,0.44735674094371497
1782661272626595800,5.066595947265625,0.8102782720088958,1.0902142805472015,1.0226496145140378
1782661272636667000,5.0766669921875,1.4952940875798464,1.263741001677513,1.6119558889329433
1782661272646737000,5.08673681640625,2.422159342139959,1.2565581044360994,1.8537068359836935
1782661272656809000,5.09680908203125,3.399488709524274,1.3484902459412813,1.885509502957761
1782661272666880000,5.1068798828125,4.223523704206944,1.47657214371413,1.8185167185284197
1782661272676951800,5.116951904296875,4.743804300129414,1.6449384133413434,1.7178151412427425
1782661272687022800,5.12702294921875,4.870891049385071,1.9041884844645858,1.706054414691776
1782661272697094000,5.137093994140625,4.699294711795449,2.236760981430113,1.6975896609462797
1782661272707166000,5.147166015625,4.416292009162903,2.3710575159341096,1.6001308649741113
1782661272717236700,5.15723681640625,4.168222088223695,2.3281717294096946,1.4273662142574786
1782661272727307800,5.167307861328125,4.143795502975583,2.232852283553779,1.2524907088667154
1782661272737379800,5.1773798828125,4.365097243976593,2.2494237713873386,1.0435746944472193
1782661272747451000,5.187450927734375,4.6637201250672335,2.316491813009977,0.8907948471389711
1782661272757523000,5.19752294921875,5.0252328853130335,2.4335315077647564,0.8477543084442615
1782661272767594000,5.207593994140625,5.330265633445978,2.745286842150986,1.0045682335741817
1782661272777665000,5.2176650390625,5.428730683851242,3.043042000496387,1.3127161911182106
1782661272787736800,5.22773681640625,5.313772763806581,3.094624888217449,1.6992540870271622
1782661272797807900,5.237807861328125,5.143911287185549,2.9468349581509825,1.9503708283163605
1782661272807878700,5.247878662109375,4.72885223019123,2.7849115810528398,1.9389447405472398
1782661272817951000,5.257950927734375,4.0307998229146005,2.577595403045416,1.6648288164645433
1782661272828021800,5.268021728515625,2.7919676370441913,2.123460473203659,1.1149288889564573
1782661272838093800,5.27809375,1.2468226001024245,1.480158477768302,0.2863730558484793
1782661272848164900,5.288164794921875,-0.23148469684123993,0.7779951280415057,-0.5135702846288681
1782661272858236000,5.29823583984375,-1.6194348465114832,0.00073415949344635,-0.7466414469439536
1782661272868307700,5.3083076171875,-3.079785046482086,-1.2488070519179104,0.12325513520352542
1782661272878375700,5.318375732421875,-3.1500258729219435,-1.1388041239321232,0.047197658374160525
1782661272888447700,5.32844775390625,-4.241555035459995,-2.8396517637610432,1.2735529322482644
1782661272898518800,5.338518798828125,-3.740776427865028,-3.7941000217735765,0.817263162460178
1782661272908590800,5.3485908203125,-2.034240805527568,-3.7982407748401164,-1.2938158219456672
1782661272918662000,5.358661865234375,-1.4235592231899499,-4.859764090692996,-2.171652987834066
1782661272928733000,5.36873291015625,-3.299427329838276,-6.598547201162576,-1.1083504604142158
1782661272938805000,5.378804931640625,-6.101239484548568,-6.452440694138407,-0.06901793358139693
1782661272948876000,5.3888759765625,-6.70633654475212,-4.588074224713444,0.03661863415474072
1782661272958946800,5.39894677734375,-6.196433550459147,-2.921744356036186,0.008875270775146781
1782661272969019000,5.409018798828125,-5.696820479512215,-2.044526052698493,0.6551360794834792
1782661272979089700,5.419089599609375,-5.020453834342956,-1.8861855025231837,1.0826972559805959
1782661272989161700,5.42916162109375,-5.504754769867659,-2.339357140290737,0.3208259085377678
1782661272999232800,5.439232666015625,-7.195759061074257,-3.2207840012341737,-1.0977427032906562
1782661273009303800,5.4493037109375,-8.845942681592703,-4.040248034739494,-2.4792016643106938
1782661273019375900,5.4593759765625,-9.270642842635512,-4.3241041393309825,-3.477227490504086
1782661273029447000,5.469447021484375,-7.924896926966309,-4.100728514665365,-3.7003368654489517
1782661273039518000,5.47951806640625,-5.574217597672343,-3.6976492338001727,-3.269260155111551
1782661273049589800,5.48958984375,-3.5957524553805587,-3.0111469790637493,-2.653486218070984
1782661273059660800,5.499660888671875,-2.0375012686282394,-1.962462101995945,-2.167116075056791
1782661273069732900,5.50973291015625,-0.9231903654396534,-0.7891992436230182,-1.6296755238883196
1782661273079804000,5.519803955078125,-0.48023617030382154,0.3333002267181873,-1.076342553191632
1782661273089874700,5.529874755859375,-0.6544377219557762,1.059884900996089,-0.6757588885344564
1782661273099946800,5.53994677734375,-1.0186860446453094,1.196526245060563,-0.39406105795539914
1782661273110017800,5.550017822265625,-0.992035938128829,1.0703776534378528,-0.0661924278318882
1782661273120088800,5.5600888671875,-0.6129150404781103,1.0753048807069658,0.33476401566043495
1782661273130161000,5.570160888671875,-0.2838672105073929,1.2660679833203554,0.7620579925887286
1782661273140232000,5.58023193359375,-0.21110475663542747,1.10575262594074,0.8620739256978035
1782661273150303000,5.590302978515625,-0.2765805606305599,0.8124915641441941,0.6478121663361788
1782661273160374800,5.600374755859375,-0.46776188865602014,0.5546551592111587,0.32389658468738197
1782661273170445800,5.61044580078125,-0.3719815472900867,0.6216846223890781,0.11493863082230091
1782661273180518000,5.620517822265625,0.056661798420548436,1.1601315741211176,0.2356748420074582
1782661273190589000,5.6305888671875,0.5417687896311283,1.838664457413554,0.6340468219645321
1782661273200659700,5.64065966796875,1.351888656207919,2.443258536531031,0.9839864871859549
1782661273210731800,5.650731689453125,2.2923452137470246,2.6983301529258488,1.1671046280041337
1782661273220802800,5.660802734375,3.3877585242420434,2.6369816579937932,1.2084111825130879
1782661273230873900,5.670873779296875,4.333876176282764,2.7261297217383977,1.217813363239169
1782661273240946000,5.68094580078125,5.106027254471183,2.98005625975132,1.2763124600894749
1782661273251017000,5.691016845703125,5.427339521753788,2.9942607261925933,1.2051808953549712
1782661273261088800,5.7010888671875,4.462128462186455,2.7249872737050054,0.9932983592800796
1782661273271159800,5.711159912109375,5.853522614830732,2.2419307852834462,1.1861512007143349
1782661273281230800,5.72123095703125,7.003031672650575,2.2658096735209226,1.0940982093084604
1782661273291303000,5.731302978515625,6.575107288864254,2.7883804262071847,0.34844065883532166
1782661273301374000,5.7413740234375,5.839926051154732,3.006117168202996,-0.10857041096463799
1782661273311444700,5.75144482421875,5.175708108940721,2.723651056665182,-0.33113610748685895
1782661273321516800,5.761516845703125,5.168059055492281,2.204351288473606,-0.26522235046587883
1782661273331587800,5.771587890625,5.304606291532516,1.8260580738186836,-0.3020482524294406
1782661273341660000,5.781659912109375,5.029719675338268,1.6885528064012527,-0.27560053661726414
1782661273351731000,5.79173095703125,3.2468647834300994,1.7779373092502355,0.21054821873120963
1782661273361802000,5.801802001953125,0.4234340866297483,1.8847604381561278,1.1178422921851277
