time,seconds_elapsed,z,y,x
1782811275428561200,0.07256103515625,-0.04711456969380379,-0.010163651779294014,-0.22001972794532776
1782811275438633200,0.08263330078125,-0.04147879034280777,0.12685279548168182,-0.31157147884368896
1782811275448705300,0.092705322265625,-0.04529278352856636,0.2133178412914276,-0.35852885246276855
1782811275458776300,0.1027763671875,-0.07463256269693375,0.23873238265514374,-0.36967629194259644
1782811275468848000,0.11284814453125,-0.11387156695127487,0.22450077533721924,-0.35641753673553467
1782811275478919200,0.122919189453125,-0.14770729839801788,0.18702930212020874,-0.32188141345977783
1782811275488991200,0.1329912109375,-0.17048132419586182,0.11328583210706711,-0.27437275648117065
1782811275499063300,0.143063232421875,-0.1894981563091278,0.042810868471860886,-0.21751080453395844
1782811275509134300,0.15313427734375,-0.19179563224315643,0.008060191757977009,-0.15914598107337952
1782811275519206400,0.163206298828125,-0.17231540381908417,0.005744040943682194,-0.10578154772520065
1782811275529278200,0.1732783203125,-0.14329248666763306,0.014584362506866455,-0.06176598370075226
1782811275539349200,0.183349365234375,-0.11269517242908478,0.0002831874880939722,-0.03516819328069687
1782811275549421300,0.19342138671875,-0.08418147265911102,-0.03611412271857262,-0.02356901206076145
1782811275559492400,0.203492431640625,-0.06903740763664246,-0.0715932846069336,-0.02890758402645588
1782811275569564400,0.213564453125,-0.05277838930487633,-0.07384464144706726,-0.04592759162187576
1782811275579636200,0.22363623046875,-0.03357353433966637,-0.03810954838991165,-0.06483124196529388
1782811275589707300,0.233707275390625,-0.010204861871898174,-0.004503227304667234,-0.072617307305336
1782811275599779300,0.243779296875,0.0036582229658961296,-0.0014613649109378457,-0.07647969573736191
1782811275609850400,0.253850341796875,0.005187248811125755,-0.012018010020256042,-0.08165173977613449
1782811275619922400,0.26392236328125,0.007821647450327873,-0.02386428415775299,-0.07305318862199783
1782811275629994500,0.273994384765625,0.004830126650631428,-0.02420005016028881,-0.059275396168231964
1782811275640065300,0.284065185546875,-0.0036403234116733074,-0.046368204057216644,-0.03627713397145271
1782811275650137000,0.29413720703125,-0.021293554455041885,-0.06970153003931046,-0.009300809353590012
1782811275660208000,0.3042080078125,-0.038746047765016556,-0.06940565258264542,0.020935123786330223
1782811275670280200,0.3142802734375,-0.053393229842185974,-0.052558720111846924,0.041210465133190155
1782811275680352300,0.324352294921875,-0.05940025672316551,-0.028599858283996582,0.04233591631054878
1782811275690423300,0.33442333984375,-0.059993352741003036,-0.0070488182827830315,0.01886342093348503
1782811275700495400,0.344495361328125,-0.06138218939304352,0.024083534255623817,-0.015900418162345886
1782811275710566400,0.35456640625,-0.06402933597564697,0.07368534803390503,-0.03727017715573311
1782811275720638200,0.36463818359375,-0.06816975027322769,0.12044939398765564,-0.049035489559173584
1782811275730710300,0.374710205078125,-0.0792720839381218,0.15231327712535858,-0.060747068375349045
1782811275740781300,0.38478125,-0.08916492760181427,0.15883669257164001,-0.07919345796108246
1782811275750853400,0.394853271484375,-0.09478110074996948,0.14505824446678162,-0.09594117105007172
1782811275760925200,0.40492529296875,-0.09614357352256775,0.11287686973810196,-0.10727052390575409
1782811275770996200,0.414996337890625,-0.09173651039600372,0.0601981021463871,-0.11588060855865479
1782811275781068300,0.425068359375,-0.09083530306816101,0.017870351672172546,-0.11162114888429642
1782811275791139300,0.435139404296875,-0.09432673454284668,0.0029469532892107964,-0.09111698716878891
1782811275801211400,0.44521142578125,-0.092910997569561,0.0185735821723938,-0.06467313319444656
1782811275811283500,0.455283447265625,-0.09185002744197845,0.03229328244924545,-0.040016841143369675
1782811275821354500,0.4653544921875,-0.08495963364839554,0.0469510518014431,-0.016186879947781563
1782811275831426300,0.47542626953125,-0.0798051580786705,0.05685108155012131,0.0033345913980156183
1782811275841497300,0.485497314453125,-0.0712079405784607,0.07708071172237396,0.02744472213089466
1782811275851569400,0.4955693359375,-0.06760813295841217,0.09915179759263992,0.04587869718670845
1782811275861641500,0.505641357421875,-0.05637146160006523,0.1148519366979599,0.034230563789606094
1782811275871712300,0.515712158203125,-0.03247975930571556,0.13272009789943695,0.00605636416003108
1782811275881784300,0.525784423828125,-0.01090575847774744,0.12586991488933563,-0.030439330264925957
1782811275891856100,0.535856201171875,0.007996339350938797,0.09404565393924713,-0.05439802259206772
1782811275901927200,0.54592724609375,0.01710594817996025,0.05268729478120804,-0.0659489557147026
1782811275911999200,0.555999267578125,0.024597616866230965,0.0359342098236084,-0.06361374258995056
1782811275922070300,0.5660703125,0.031828366219997406,0.035062290728092194,-0.05890341103076935
1782811275932142300,0.576142333984375,0.046090271323919296,0.04033689573407173,-0.05900339409708977
1782811275942214100,0.586214111328125,0.0632985532283783,0.027061035856604576,-0.06500589102506638
1782811275952285200,0.59628515625,0.08902698010206223,0.03240935131907463,-0.07702243328094482
1782811275962357200,0.606357177734375,0.11605619639158249,0.05372023209929466,-0.07727836072444916
1782811275972429300,0.61642919921875,0.13944900035858154,0.06426314264535904,-0.07846806943416595
1782811275982500400,0.626500244140625,0.15834811329841614,0.07275942713022232,-0.09026321023702621
1782811275992572400,0.636572509765625,0.17299602925777435,0.07059933245182037,-0.11435816437005997
1782811276002643500,0.6466435546875,0.18475735187530518,0.0662490576505661,-0.13978521525859833
1782811276012715300,0.65671533203125,0.1896427720785141,0.053840700536966324,-0.16671927273273468
1782811276022787300,0.666787353515625,0.18831650912761688,0.03424223139882088,-0.17027992010116577
1782811276032858400,0.6768583984375,0.17819452285766602,0.02093503624200821,-0.15763124823570251
1782811276042930400,0.686930419921875,0.16676369309425354,0.024025902152061462,-0.1256416290998459
1782811276053002200,0.697002197265625,0.1537032574415207,0.04282265529036522,-0.09034893661737442
1782811276063073000,0.707072998046875,0.14633508026599884,0.04085458070039749,-0.057226937264204025
1782811276073144800,0.717144775390625,0.13485723733901978,0.011099529452621937,-0.0479535348713398
1782811276083215600,0.727215576171875,0.12503843009471893,-0.01701200008392334,-0.05180366709828377
1782811276093287700,0.73728759765625,0.11841648072004318,-0.035639744251966476,-0.06759674102067947
1782811276103359700,0.74735986328125,0.11105950176715851,-0.031600527465343475,-0.0821559801697731
1782811276113430800,0.7574306640625,0.1064944639801979,-0.01071806438267231,-0.08183560520410538
1782811276123502800,0.7675029296875,0.10065095871686935,0.014895419590175152,-0.07284317910671234
1782811276133574700,0.77757470703125,0.10183415561914444,0.026564419269561768,-0.06578417867422104
1782811276143645700,0.787645751953125,0.10381714254617691,0.0407838337123394,-0.06711629778146744
1782811276153717800,0.7977177734375,0.10057840496301651,0.04521061107516289,-0.05855328589677811
1782811276163788800,0.807788818359375,0.08640453219413757,0.04202067479491234,-0.05021519586443901
1782811276173860900,0.81786083984375,0.06334909051656723,0.04227741062641144,-0.04537832736968994
1782811276183932700,0.8279326171875,0.034119296818971634,0.05211885645985603,-0.0392831526696682
1782811276194003700,0.838003662109375,0.00950179435312748,0.06508215516805649,-0.03881653770804405
1782811276204075800,0.84807568359375,-0.019487513229250908,0.07778516411781311,-0.045453403145074844
1782811276214147800,0.85814794921875,-0.03912201151251793,0.08902734518051147,-0.06315911561250687
1782811276224219000,0.868218994140625,-0.05441494658589363,0.09664345532655716,-0.07759211957454681
1782811276234291000,0.878291015625,-0.062167856842279434,0.10711037367582321,-0.09249023348093033
1782811276244362000,0.888362060546875,-0.07091394811868668,0.10024767369031906,-0.1045737937092781
1782811276254433800,0.898433837890625,-0.08754067867994308,0.08886604011058807,-0.11748502403497696
1782811276264505900,0.908505859375,-0.09967882931232452,0.08830544352531433,-0.12558847665786743
1782811276274577000,0.918576904296875,-0.09897323697805405,0.11885420978069305,-0.12754963338375092
1782811276284649000,0.92864892578125,-0.08798956871032715,0.14915458858013153,-0.12784205377101898
1782811276294720800,0.938720703125,-0.07270446419715881,0.1615147441625595,-0.1293921023607254
1782811276304791800,0.948791748046875,-0.054666075855493546,0.1545543074607849,-0.12781177461147308
1782811276314863900,0.95886376953125,-0.030443595722317696,0.1421058177947998,-0.11560257524251938
1782811276324936000,0.96893603515625,0.008849747478961945,0.12606000900268555,-0.09480968117713928
1782811276335006700,0.9790068359375,0.05570947751402855,0.11893878877162933,-0.07489461451768875
1782811276345078800,0.989078857421875,0.10251878947019577,0.1144910454750061,-0.05508042871952057
1782811276355149800,0.99914990234375,0.14541147649288177,0.10953819006681442,-0.044716257601976395
1782811276365221600,1.0092216796875,0.17582371830940247,0.09077808260917664,-0.025233101099729538
1782811276375293700,1.019293701171875,0.17434808611869812,0.04494783654808998,-0.012657858431339264
1782811276385364700,1.02936474609375,0.15466786921024323,-0.007618970703333616,-0.0076063754968345165
1782811276395436800,1.039436767578125,0.1293056756258011,-0.0516941100358963,-0.021281009539961815
1782811276405508900,1.0495087890625,0.11541488021612167,-0.07983732968568802,-0.053483687341213226
1782811276415580000,1.059579833984375,0.11324634402990341,-0.07442401349544525,-0.09423098713159561
1782811276425651700,1.069651611328125,0.13190791010856628,-0.04785897955298424,-0.1351616382598877
1782811276435723800,1.079723876953125,0.15366357564926147,-0.012404050678014755,-0.17476482689380646
1782811276445794800,1.089794921875,0.17610204219818115,0.024844519793987274,-0.19328045845031738
1782811276455867000,1.099866943359375,0.1920802891254425,0.04901448264718056,-0.19030238687992096
1782811276465938000,1.10993798828125,0.20699532330036163,0.0445568822324276,-0.16270244121551514
1782811276476009700,1.120009765625,0.21115081012248993,0.006265329662710428,-0.10764861851930618
1782811276486081800,1.130081787109375,0.2144605964422226,-0.04872894659638405,-0.04237746819853783
1782811276496152800,1.14015283203125,0.22483523190021515,-0.11458092927932739,0.015103553421795368
1782811276506225000,1.150224853515625,0.23677071928977966,-0.16205789148807526,0.05702250450849533
1782811276516297000,1.160296875,0.2447892278432846,-0.19169318675994873,0.07179443538188934
1782811276526368000,1.170367919921875,0.24861353635787964,-0.19841474294662476,0.06252477318048477
1782811276536439800,1.180439697265625,0.2440209984779358,-0.193624347448349,0.03616387024521828
1782811276546512000,1.190511962890625,0.24034316837787628,-0.18070881068706512,-0.000405326543841511
1782811276556582700,1.200582763671875,0.23692895472049713,-0.1638306826353073,-0.03895295783877373
1782811276566655000,1.210655029296875,0.23769007623195648,-0.14698459208011627,-0.06880033761262894
1782811276576725800,1.220725830078125,0.2336062788963318,-0.13381747901439667,-0.07464288175106049
1782811276586797800,1.2307978515625,0.22689032554626465,-0.12284444272518158,-0.05897710472345352
1782811276596869600,1.24086962890625,0.2017746865749359,-0.12328094244003296,-0.03349898383021355
1782811276606940700,1.250940673828125,0.16674000024795532,-0.1298440396785736,-0.019479570910334587
1782811276617012700,1.2610126953125,0.13086555898189545,-0.13298043608665466,-0.02499421499669552
1782811276627084800,1.271084716796875,0.09925276786088943,-0.1292693316936493,-0.044657934457063675
1782811276637155800,1.28115576171875,0.06852399557828903,-0.126167893409729,-0.06263639032840729
1782811276647227600,1.2912275390625,0.034064825624227524,-0.12487094104290009,-0.06962212175130844
1782811276657299700,1.3012998046875,-0.0012629948323592544,-0.1258769929409027,-0.06253443658351898
1782811276667370800,1.311370849609375,-0.030666423961520195,-0.12736836075782776,-0.054496753960847855
1782811276677442800,1.32144287109375,-0.04433441534638405,-0.1434599757194519,-0.04867181181907654
1782811276687515000,1.331514892578125,-0.05515989661216736,-0.16055400669574738,-0.04009616747498512
1782811276697586000,1.3415859375,-0.06031737104058266,-0.17990534007549286,-0.03371363878250122
1782811276707657700,1.35165771484375,-0.07256897538900375,-0.20369695127010345,-0.04116756096482277
1782811276717729800,1.361729736328125,-0.08981245756149292,-0.21925798058509827,-0.05137942358851433
1782811276727800800,1.37180078125,-0.11111481487751007,-0.22749780118465424,-0.061535123735666275
1782811276737873000,1.381872802734375,-0.13803733885288239,-0.22935819625854492,-0.06974805891513824
1782811276747944000,1.39194384765625,-0.17309679090976715,-0.23466640710830688,-0.07832689583301544
1782811276758015700,1.402015625,-0.20966695249080658,-0.23913687467575073,-0.08931455761194229
1782811276768087800,1.412087890625,-0.25249189138412476,-0.23156790435314178,-0.10140211880207062
1782811276778158800,1.422158935546875,-0.302211731672287,-0.22546686232089996,-0.11425794661045074
1782811276788231000,1.43223095703125,-0.3486500680446625,-0.2137438952922821,-0.13577868044376373
1782811276798303000,1.442302978515625,-0.3807438910007477,-0.20674484968185425,-0.16942910850048065
1782811276808373800,1.452373779296875,-0.38874879479408264,-0.19760887324810028,-0.21620912849903107
1782811276818445800,1.46244580078125,-0.3778684735298157,-0.16889210045337677,-0.2570030689239502
1782811276828518000,1.472517822265625,-0.3642672002315521,-0.14940974116325378,-0.27321743965148926
1782811276838588700,1.482588623046875,-0.36868494749069214,-0.1467549204826355,-0.2642517685890198
1782811276848660700,1.49266064453125,-0.3870442509651184,-0.15262533724308014,-0.24425488710403442
1782811276858732800,1.50273291015625,-0.4107571244239807,-0.14592790603637695,-0.21323639154434204
1782811276868803800,1.512803955078125,-0.4426860213279724,-0.15104810893535614,-0.18632620573043823
1782811276878875600,1.522875732421875,-0.47880470752716064,-0.15603744983673096,-0.17297260463237762
1782811276888947700,1.53294775390625,-0.5090009570121765,-0.13376623392105103,-0.17350150644779205
1782811276899018800,1.543018798828125,-0.5364612340927124,-0.0804833173751831,-0.17012441158294678
1782811276909090800,1.5530908203125,-0.552627682685852,0.004241422284394503,-0.15002846717834473
1782811276919161900,1.563161865234375,-0.5507991909980774,0.10065583884716034,-0.09558705985546112
1782811276929233700,1.573233642578125,-0.5366228818893433,0.2074027955532074,-0.025827154517173767
1782811276939305700,1.5833056640625,-0.5128176212310791,0.31588563323020935,0.04500509053468704
1782811276949376800,1.593376708984375,-0.49171316623687744,0.39928704500198364,0.10748577862977982
1782811276959448800,1.60344873046875,-0.4645519554615021,0.4450571537017822,0.14237725734710693
1782811276969521000,1.61352099609375,-0.41437479853630066,0.4655153155326843,0.15624061226844788
1782811276979592000,1.623592041015625,-0.34687626361846924,0.4468208849430084,0.15194647014141083
1782811276989663700,1.633663818359375,-0.27450671792030334,0.3982597291469574,0.14018328487873077
1782811276999735800,1.64373583984375,-0.2202756553888321,0.34568360447883606,0.1313510537147522
1782811277009806800,1.653806884765625,-0.18420393764972687,0.29224514961242676,0.13924972712993622
1782811277019879000,1.66387890625,-0.16365672647953033,0.19988907873630524,0.16635459661483765
1782811277029951000,1.673950927734375,-0.16321463882923126,0.12227816134691238,0.22721529006958008
1782811277040022000,1.68402197265625,-0.17288348078727722,0.09603465348482132,0.2979417145252228
1782811277050093800,1.69409375,-0.19307583570480347,0.10033459216356277,0.36209407448768616
1782811277060166100,1.704166259765625,-0.21629805862903595,0.11573155224323273,0.4036138951778412
1782811277070237200,1.7142373046875,-0.24218958616256714,0.12321557104587555,0.4238438010215759
1782811277080309200,1.724309326171875,-0.2525233328342438,0.14823588728904724,0.40718016028404236
1782811277090381000,1.734381103515625,-0.2571377754211426,0.17163388431072235,0.35531750321388245
1782811277100452000,1.7444521484375,-0.27349406480789185,0.1742977648973465,0.27294525504112244
1782811277110524200,1.754524169921875,-0.296269953250885,0.15776300430297852,0.1849149763584137
1782811277120596200,1.76459619140625,-0.3345860540866852,0.1486562341451645,0.1264389008283615
1782811277130667300,1.774667236328125,-0.37252119183540344,0.15716716647148132,0.09511587768793106
1782811277140739300,1.7847392578125,-0.4064229428768158,0.17040997743606567,0.0740474984049797
1782811277150810000,1.79481005859375,-0.4246235191822052,0.19244630634784698,0.059538863599300385
1782811277160882000,1.8048818359375,-0.42420464754104614,0.22174358367919922,0.04327388107776642
1782811277170954000,1.8149541015625,-0.397207647562027,0.26134586334228516,0.03363563492894173
1782811277181025000,1.82502490234375,-0.34537339210510254,0.30456310510635376,0.03586208075284958
1782811277191097000,1.83509716796875,-0.274548202753067,0.3268028795719147,0.04291040077805519
1782811277201169000,1.8451689453125,-0.1937730461359024,0.3078545033931732,0.07565351575613022
1782811277211240000,1.855239990234375,-0.12547948956489563,0.254782497882843,0.12270437926054001
1782811277221312000,1.86531201171875,-0.0795840471982956,0.1754523664712906,0.1839587688446045
1782811277231384000,1.875384033203125,-0.05581347271800041,0.07908854633569717,0.24910421669483185
1782811277241455000,1.885455078125,-0.05215980485081673,-0.00847710482776165,0.31630632281303406
1782811277251527200,1.895527099609375,-0.06104224547743797,-0.09717022627592087,0.3705596923828125
1782811277261599000,1.905598876953125,-0.08112160116434097,-0.17644762992858887,0.4194270372390747
1782811277271670000,1.915669921875,-0.1106821596622467,-0.23882658779621124,0.4482962489128113
1782811277281742000,1.9257421875,-0.14417605102062225,-0.2801576852798462,0.4573853015899658
1782811277291814100,1.935814208984375,-0.17038367688655853,-0.2997172772884369,0.42715710401535034
1782811277301885200,1.94588525390625,-0.19270892441272736,-0.3125344514846802,0.3623422384262085
1782811277311957200,1.955957275390625,-0.21558734774589539,-0.3232824504375458,0.26435816287994385
1782811277322029000,1.966029052734375,-0.2267858386039734,-0.3122243285179138,0.1535787135362625
1782811277332100000,1.97610009765625,-0.22317218780517578,-0.26113638281822205,0.043004006147384644
1782811277342172200,1.986172119140625,-0.21161474287509918,-0.19067643582820892,-0.056174758821725845
1782811277352244200,1.996244140625,-0.19730772078037262,-0.13604728877544403,-0.12798424065113068
1782811277362315300,2.006315185546875,-0.17701119184494019,-0.105758436024189,-0.15660685300827026
1782811277372387000,2.016386962890625,-0.16077841818332672,-0.10407398641109467,-0.14275549352169037
1782811277382459100,2.026459228515625,-0.14047572016716003,-0.10676056146621704,-0.08348878473043442
1782811277392530200,2.0365302734375,-0.119635671377182,-0.09248469024896622,0.007461360655725002
1782811277402602200,2.046602294921875,-0.10762801021337509,-0.06691297143697739,0.11756329983472824
1782811277412674300,2.05667431640625,-0.09335613250732422,-0.03082846850156784,0.2195567786693573
1782811277422745000,2.0667451171875,-0.08123113960027695,-0.003212887793779373,0.2943797707557678
1782811277432817000,2.07681689453125,-0.06270459294319153,0.013795390725135803,0.32534754276275635
1782811277442889200,2.08688916015625,-0.033494703471660614,0.011574681848287582,0.31197279691696167
1782811277452960000,2.0969599609375,0.0011623441241681576,-0.003801344893872738,0.2713111340999603
1782811277463032000,2.107031982421875,0.04196318984031677,-0.01866675168275833,0.2195696383714676
1782811277473104100,2.117104248046875,0.08857889473438263,-0.021991973742842674,0.17525331676006317
1782811277483175000,2.1271748046875,0.12919481098651886,-0.025667330250144005,0.15639419853687286
1782811277493247000,2.1372470703125,0.1681179702281952,-0.02082277461886406,0.16792328655719757
1782811277503319000,2.147319091796875,0.2061266005039215,-0.002793328370898962,0.19827178120613098
1782811277513390000,2.15739013671875,0.2527258098125458,0.036058731377124786,0.23733103275299072
1782811277523462100,2.167462158203125,0.2976568043231964,0.0353919193148613,0.2812129259109497
1782811277533534000,2.177533935546875,0.31695857644081116,-0.011082369834184647,0.32681235671043396
1782811277543605000,2.18760498046875,0.3154407739639282,-0.08165932446718216,0.3736781179904938
1782811277553677000,2.197677001953125,0.29888150095939636,-0.16392436623573303,0.40775883197784424
1782811277563749000,2.2077490234375,0.2785840928554535,-0.20699770748615265,0.437961220741272
1782811277573820200,2.217820068359375,0.25025632977485657,-0.18543356657028198,0.44658586382865906
1782811277583892200,2.227892333984375,0.23059199750423431,-0.12583781778812408,0.4241776466369629
1782811277593964000,2.237964111328125,0.21040870249271393,-0.024729309603571892,0.37066489458084106
1782811277604035000,2.24803515625,0.2115042507648468,0.11397883296012878,0.31175461411476135
1782811277614107100,2.258107177734375,0.2311064451932907,0.2522440254688263,0.26725292205810547
1782811277624179200,2.26817919921875,0.26040977239608765,0.3571367561817169,0.24485628306865692
1782811277634250200,2.278250244140625,0.29478904604911804,0.415112167596817,0.24983321130275726
1782811277644322000,2.288322021484375,0.334522008895874,0.4540194571018219,0.2800873816013336
1782811277654393000,2.29839306640625,0.3681252598762512,0.4797578454017639,0.31912851333618164
1782811277664465200,2.308465087890625,0.3806861340999603,0.47850921750068665,0.3478173613548279
1782811277674537200,2.318537109375,0.3745259642601013,0.4485531747341156,0.35185444355010986
1782811277684608000,2.32860791015625,0.3618127703666687,0.3892865777015686,0.3185688257217407
1782811277694680300,2.338680419921875,0.35553330183029175,0.31417396664619446,0.2548266053199768
1782811277704752000,2.348752197265625,0.3612223267555237,0.24488116800785065,0.172079935669899
1782811277714824200,2.35882421875,0.3733775317668915,0.17328926920890808,0.08264247328042984
1782811277724895000,2.36889501953125,0.39068663120269775,0.10625093430280685,-0.0054738218896090984
1782811277734967000,2.378967041015625,0.4024657905101776,0.05430678278207779,-0.09021720290184021
1782811277745038000,2.3890380859375,0.41886869072914124,0.01737973839044571,-0.16328473389148712
1782811277755110100,2.399110107421875,0.4267047941684723,0.007153200451284647,-0.22463305294513702
1782811277765182000,2.409181884765625,0.4279519319534302,0.0017714845016598701,-0.26329416036605835
1782811277775253000,2.4192529296875,0.4239591062068939,0.017017578706145287,-0.2686821222305298
1782811277785325000,2.429324951171875,0.4285094141960144,0.042825277894735336,-0.24791072309017181
1782811277795397000,2.439397216796875,0.43139174580574036,0.0712428092956543,-0.2078956514596939
1782811277805469000,2.449468994140625,0.4393048584461212,0.11701143532991409,-0.15173165500164032
1782811277815540000,2.4595400390625,0.4467337429523468,0.16211099922657013,-0.09240760654211044
1782811277825612000,2.469612060546875,0.451301634311676,0.19226285815238953,-0.047256842255592346
1782811277835683000,2.47968310546875,0.45803382992744446,0.19764403998851776,-0.033278707414865494
1782811277845755100,2.489755126953125,0.4796954393386841,0.20354022085666656,-0.03852027282118797
1782811277855827200,2.4998271484375,0.5139447450637817,0.22430409491062164,-0.051597725600004196
1782811277865898200,2.509898193359375,0.5603022575378418,0.23808079957962036,-0.06500886380672455
1782811277875970000,2.519969970703125,0.602959156036377,0.23282106220722198,-0.08201314508914948
1782811277886042000,2.5300419921875,0.6359506249427795,0.21843847632408142,-0.10195939242839813
1782811277896113200,2.540113037109375,0.6552324891090393,0.19468387961387634,-0.11223094165325165
1782811277906185200,2.550185302734375,0.6581135392189026,0.17935973405838013,-0.11050616204738617
1782811277916257000,2.560257080078125,0.6489160656929016,0.1650468409061432,-0.10088496655225754
1782811277926329000,2.5703291015625,0.6287925243377686,0.1736632138490677,-0.08406514674425125
1782811277936400100,2.580400146484375,0.5994410514831543,0.17896422743797302,-0.06297077983617783
1782811277946472200,2.59047216796875,0.5686663389205933,0.16853982210159302,-0.05734458938241005
1782811277956543200,2.600543212890625,0.5422901511192322,0.14793334901332855,-0.07485353946685791
1782811277966615300,2.610615234375,0.5280636548995972,0.08784870058298111,-0.12106873840093613
1782811277976687000,2.62068701171875,0.5267930626869202,0.012087095528841019,-0.1781964749097824
1782811277986759200,2.63075927734375,0.5390627384185791,-0.06514474004507065,-0.23465098440647125
1782811277996830000,2.640829833984375,0.5498796701431274,-0.11815256625413895,-0.28867775201797485
1782811278006902000,2.650902099609375,0.5520610213279724,-0.14708159863948822,-0.32694390416145325
1782811278016974300,2.660974365234375,0.541041910648346,-0.1764293611049652,-0.35659393668174744
1782811278027045000,2.671045166015625,0.5174558162689209,-0.22779947519302368,-0.371389776468277
1782811278037117000,2.681116943359375,0.4609141945838928,-0.28115537762641907,-0.3592880964279175
1782811278047189000,2.69118896484375,0.38613924384117126,-0.34349551796913147,-0.3360382318496704
1782811278057260000,2.701260009765625,0.3114708662033081,-0.43515726923942566,-0.3169369697570801
1782811278067331800,2.711331787109375,0.25450757145881653,-0.5521344542503357,-0.30126067996025085
1782811278077404000,2.72140380859375,0.19025640189647675,-0.6640543341636658,-0.26738500595092773
1782811278087474700,2.731474609375,0.11076062172651291,-0.7346965074539185,-0.21423234045505524
1782811278097546500,2.74154638671875,0.01925281062722206,-0.7599462270736694,-0.14667513966560364
1782811278107618600,2.75161865234375,-0.08901841938495636,-0.7375820279121399,-0.08644256740808487
1782811278117689600,2.761689697265625,-0.21633748710155487,-0.6251489520072937,-0.06243523955345154
1782811278127761700,2.77176171875,-0.36155059933662415,-0.44795113801956177,-0.09965381026268005
1782811278137833500,2.78183349609375,-0.5145915746688843,-0.2535824477672577,-0.18901458382606506
1782811278147904500,2.791904541015625,-0.6556066870689392,-0.09148478507995605,-0.2920927405357361
1782811278157976600,2.8019765625,-0.7808884382247925,0.049080051481723785,-0.36062386631965637
1782811278168048600,2.812048583984375,-0.8734656572341919,0.16477660834789276,-0.3699462413787842
1782811278178119700,2.82211962890625,-0.9270495176315308,0.24490153789520264,-0.33653634786605835
1782811278188191700,2.832191650390625,-0.9341956377029419,0.29187101125717163,-0.2600160241127014
1782811278198263600,2.842263671875,-0.9007349014282227,0.2795110046863556,-0.15177050232887268
1782811278208334600,2.85233447265625,-0.8357774615287781,0.1948024332523346,-0.03385374695062637
1782811278218406700,2.86240673828125,-0.7703494429588318,0.03391501307487488,0.0770338922739029
1782811278228478700,2.872478759765625,-0.7267194986343384,-0.14609868824481964,0.17857538163661957
1782811278238549800,2.8825498046875,-0.7235657572746277,-0.2907823622226715,0.27557462453842163
1782811278248621800,2.892621826171875,-0.7417892217636108,-0.36890172958374023,0.3589341342449188
1782811278258693600,2.902693603515625,-0.7647560238838196,-0.38933002948760986,0.412712424993515
1782811278268764700,2.9127646484375,-0.7783953547477722,-0.350322425365448,0.4223737418651581
1782811278278836700,2.922836669921875,-0.7698692083358765,-0.2552257180213928,0.3728210926055908
1782811278288908800,2.93290869140625,-0.7313618063926697,-0.11656211316585541,0.2933717966079712
1782811278298979800,2.942979736328125,-0.6588535308837891,0.023006439208984375,0.20248395204544067
1782811278309051600,2.9530517578125,-0.5812103748321533,0.10334618389606476,0.12617909908294678
1782811278319123700,2.963123779296875,-0.5113623142242432,0.10917238146066666,0.08273468166589737
1782811278329194800,2.97319482421875,-0.4403049945831299,0.06901715695858002,0.07442881166934967
1782811278339266800,2.983266845703125,-0.3712620139122009,-0.027995411306619644,0.09895652532577515
1782811278349339000,2.9933388671875,-0.3270444869995117,-0.16643786430358887,0.1565621942281723
1782811278359409700,3.00340966796875,-0.3306450843811035,-0.27225375175476074,0.25312814116477966
1782811278369481500,3.0134814453125,-0.35338717699050903,-0.3153038024902344,0.3706282675266266
1782811278379553800,3.0235537109375,-0.3822270929813385,-0.293474406003952,0.46284422278404236
1782811278389624600,3.03362451171875,-0.39743003249168396,-0.2554115056991577,0.4981909394264221
1782811278399696600,3.043696533203125,-0.38533610105514526,-0.20366814732551575,0.46618932485580444
1782811278409768700,3.053768798828125,-0.34814727306365967,-0.14300839602947235,0.383472204208374
1782811278419839700,3.06383984375,-0.2900208532810211,-0.07779903709888458,0.27071794867515564
1782811278429911600,3.07391162109375,-0.22321867942810059,-0.03169679641723633,0.15553420782089233
1782811278439983600,3.083983642578125,-0.17749033868312836,-0.02468070201575756,0.0576409213244915
1782811278450054700,3.0940546875,-0.15571899712085724,-0.04912414401769638,-0.03130210191011429
1782811278460126700,3.104126708984375,-0.1547168642282486,-0.09449908137321472,-0.10329107195138931
1782811278470198500,3.114198486328125,-0.1724291890859604,-0.15450626611709595,-0.15819549560546875
1782811278480270600,3.1242705078125,-0.20426435768604279,-0.22023335099220276,-0.18637679517269135
1782811278490341600,3.134341552734375,-0.24041742086410522,-0.24597176909446716,-0.17699572443962097
1782811278500413700,3.14441357421875,-0.235169917345047,-0.22235192358493805,-0.13329404592514038
1782811278510484700,3.154484619140625,-0.19336555898189545,-0.15652306377887726,-0.09501069039106369
1782811278520556800,3.164556884765625,-0.17742547392845154,-0.07513659447431564,-0.07900482416152954
1782811278530628600,3.174628662109375,-0.16834881901741028,-0.018743019551038742,-0.0841071680188179
1782811278540700700,3.18470068359375,-0.14818815886974335,0.004677086137235165,-0.10405690968036652
1782811278550771700,3.194771728515625,-0.11762720346450806,0.010201334953308105,-0.12148318439722061
1782811278560843800,3.20484375,-0.07607442885637283,0.010337955318391323,-0.12564224004745483
1782811278570915600,3.21491552734375,-0.02517716959118843,0.006843597628176212,-0.12684141099452972
1782811278580986600,3.224986572265625,0.03097211942076683,0.00523771159350872,-0.11301054060459137
1782811278591058700,3.23505859375,0.08962253481149673,-0.013161441311240196,-0.09512156993150711
1782811278601130800,3.245130859375,0.12988393008708954,-0.06837036460638046,-0.06796745210886002
1782811278611201800,3.255201904296875,0.15658046305179596,-0.1433270126581192,-0.037066731601953506
1782811278621273900,3.26527392578125,0.15872430801391602,-0.19932717084884644,-0.013489768840372562
1782811278631345700,3.275345703125,0.1511068195104599,-0.24274460971355438,0.03013736754655838
1782811278641416700,3.285416748046875,0.13570761680603027,-0.24482053518295288,0.07715627551078796
1782811278651488800,3.29548876953125,0.12723863124847412,-0.25300079584121704,0.11824087798595428
1782811278661560800,3.305560791015625,0.13701322674751282,-0.2728338837623596,0.1383136510848999
1782811278671631600,3.315631591796875,0.15936507284641266,-0.285291850566864,0.14669078588485718
1782811278681703700,3.32570361328125,0.18383312225341797,-0.2853719890117645,0.1432342678308487
1782811278691775500,3.335775390625,0.20951631665229797,-0.24460244178771973,0.15192191302776337
1782811278701846500,3.345846435546875,0.22706842422485352,-0.13941237330436707,0.18431180715560913
1782811278711918600,3.355918701171875,0.24772140383720398,-0.012920237146317959,0.22309258580207825
1782811278721990700,3.36599072265625,0.27321264147758484,0.0681314691901207,0.2397027313709259
1782811278732061700,3.376061767578125,0.2926529347896576,0.048193469643592834,0.23886190354824066
1782811278742133500,3.386133544921875,0.31322187185287476,-0.052651118487119675,0.23139066994190216
1782811278752205600,3.39620556640625,0.33897361159324646,-0.15088915824890137,0.2260507047176361
1782811278762276600,3.406276611328125,0.36131539940834045,-0.2257538139820099,0.23753319680690765
1782811278772348700,3.4163486328125,0.3720230162143707,-0.2906152307987213,0.2492254227399826
1782811278782420700,3.426420654296875,0.37900689244270325,-0.35789865255355835,0.24834497272968292
1782811278792491800,3.43649169921875,0.3750366270542145,-0.414174884557724,0.2373918890953064
1782811278802563600,3.4465634765625,0.36077725887298584,-0.41944077610969543,0.2237410545349121
1782811278812635600,3.4566357421875,0.36038482189178467,-0.3784521520137787,0.21700087189674377
1782811278822707700,3.466707763671875,0.3894095718860626,-0.31731289625167847,0.21956762671470642
1782811278832778800,3.47677880859375,0.437675416469574,-0.25663477182388306,0.22061759233474731
1782811278842850600,3.4868505859375,0.48130306601524353,-0.1976289600133896,0.2242394983768463
1782811278852922600,3.496922607421875,0.4990957975387573,-0.11986763030290604,0.22672511637210846
1782811278862993700,3.50699365234375,0.4998928904533386,-0.014791539870202541,0.23458729684352875
1782811278873065700,3.517065673828125,0.49331870675086975,0.0893174335360527,0.2278016358613968
1782811278883137800,3.5271376953125,0.4781312346458435,0.1661914438009262,0.19351157546043396
1782811278893208800,3.537208740234375,0.4684564471244812,0.2169710248708725,0.12807819247245789
1782811278903280600,3.54728076171875,0.4737215042114258,0.22980345785617828,0.04675563424825668
1782811278913352700,3.557352783203125,0.4939808249473572,0.19017726182937622,-0.04123987630009651
1782811278923423700,3.567423828125,0.5195785760879517,0.10089346021413803,-0.125777930021286
1782811278933495800,3.577495849609375,0.5610307455062866,-0.016120828688144684,-0.1834072321653366
1782811278943568000,3.58756787109375,0.6012697219848633,-0.126295804977417,-0.20636020600795746
1782811278953639000,3.597638916015625,0.6299944519996643,-0.19688253104686737,-0.19204679131507874
1782811278963710700,3.607710693359375,0.647426962852478,-0.22284995019435883,-0.1505507379770279
1782811278973782800,3.61778271484375,0.645582914352417,-0.20531894266605377,-0.09232752025127411
1782811278983853600,3.627853515625,0.6254696846008301,-0.1797371506690979,-0.034344110637903214
1782811278993925600,3.637925537109375,0.5978147387504578,-0.13984236121177673,0.017050357535481453
1782811279003997400,3.64799755859375,0.5768253207206726,-0.07925625890493393,0.06103858724236488
1782811279014068500,3.658068359375,0.550843358039856,-0.010658567771315575,0.08672268688678741
1782811279024140500,3.668140625,0.5141457915306091,0.04420441389083862,0.08196654915809631
1782811279034212600,3.678212646484375,0.47875651717185974,0.06933276355266571,0.05669207125902176
1782811279044283600,3.68828369140625,0.4622822105884552,0.05020008236169815,0.01993885263800621
1782811279054355700,3.698355712890625,0.4566730558872223,0.014776825904846191,-0.01083045732229948
1782811279064428300,3.70842822265625,0.46135276556015015,-0.037482649087905884,-0.0324486680328846
1782811279074499300,3.718499267578125,0.45684894919395447,-0.07797490060329437,-0.05898934230208397
1782811279084571400,3.7285712890625,0.4314546287059784,-0.11528312414884567,-0.07155147194862366
1782811279094643500,3.7386435546875,0.39639952778816223,-0.13655699789524078,-0.07882638275623322
1782811279104715300,3.74871533203125,0.3456641733646393,-0.1525423526763916,-0.07719972729682922
1782811279114786300,3.758786376953125,0.28408199548721313,-0.15592996776103973,-0.07032272219657898
1782811279124858400,3.7688583984375,0.2108978033065796,-0.14488664269447327,-0.07844216376543045
1782811279134930400,3.778930419921875,0.11935368925333023,-0.11073382943868637,-0.10819893330335617
1782811279145001500,3.78900146484375,0.02841765806078911,-0.06735599786043167,-0.16046667098999023
1782811279155073300,3.7990732421875,-0.052093505859375,-0.0023733798880130053,-0.24034546315670013
1782811279165145300,3.809145263671875,-0.10905691981315613,0.03822917491197586,-0.33078932762145996
1782811279175216400,3.81921630859375,-0.14457367360591888,0.04082915186882019,-0.4269165098667145
1782811279185288400,3.829288330078125,-0.17473609745502472,0.0024154509883373976,-0.5094832181930542
1782811279195360500,3.839360595703125,-0.19726556539535522,-0.04791804030537605,-0.5545114278793335
1782811279205431600,3.849431640625,-0.2229730635881424,-0.09674843400716782,-0.5416103005409241
1782811279215503400,3.85950341796875,-0.2597757577896118,-0.1345050185918808,-0.48251184821128845
1782811279225575400,3.869575439453125,-0.3199615776538849,-0.18678154051303864,-0.40850579738616943
1782811279235646200,3.879646240234375,-0.39204829931259155,-0.2447829246520996,-0.3413591682910919
1782811279245718300,3.88971826171875,-0.45414015650749207,-0.29702988266944885,-0.29970279335975647
1782811279255790300,3.899790283203125,-0.5008451342582703,-0.3429168164730072,-0.29046711325645447
1782811279265861400,3.909861328125,-0.5283438563346863,-0.3768143355846405,-0.317216694355011
1782811279275933200,3.91993310546875,-0.5424844622612,-0.38872772455215454,-0.365813672542572
1782811279286005200,3.930005126953125,-0.533596932888031,-0.3880361020565033,-0.40751877427101135
1782811279296076300,3.940076171875,-0.5126374363899231,-0.3523462414741516,-0.4210198223590851
1782811279306148400,3.9501484375,-0.5026902556419373,-0.26837143301963806,-0.3888581395149231
1782811279316220200,3.96022021484375,-0.515952467918396,-0.13172601163387299,-0.3240586221218109
1782811279326291200,3.970291259765625,-0.5516313910484314,0.018631547689437866,-0.26237741112709045
1782811279336363300,3.98036328125,-0.6123902797698975,0.14649571478366852,-0.2190031111240387
1782811279346435300,3.990435302734375,-0.6897191405296326,0.25479236245155334,-0.1857423633337021
1782811279356506400,4.00050634765625,-0.7451082468032837,0.335640013217926,-0.14978554844856262
1782811279366578400,4.010578369140625,-0.7432544231414795,0.4091610908508301,-0.10302789509296417
1782811279376650200,4.020650146484375,-0.6962140798568726,0.4577268958091736,-0.051980968564748764
1782811279386722300,4.030722412109375,-0.6105329990386963,0.47559961676597595,-0.006574604660272598
1782811279396793300,4.04079345703125,-0.5024263262748718,0.4340004622936249,0.046677254140377045
1782811279406865400,4.050865478515625,-0.40017184615135193,0.3526265025138855,0.10346809774637222
1782811279416937500,4.0609375,-0.31037673354148865,0.23778395354747772,0.16278724372386932
1782811279427008500,4.071008544921875,-0.27094757556915283,0.12849901616573334,0.23328697681427002
1782811279437080300,4.081080322265625,-0.29828891158103943,0.057032421231269836,0.2596571743488312
1782811279447152400,4.09115234375,-0.3612920939922333,0.04754864051938057,0.23629219830036163
1782811279457223400,4.101223388671875,-0.4136597812175751,0.07605207711458206,0.1605069488286972
1782811279467295500,4.11129541015625,-0.4460986852645874,0.078121617436409,0.041362445801496506
1782811279477367300,4.1213671875,-0.45391032099723816,0.023593267425894737,-0.0965881198644638
1782811279487438300,4.131438232421875,-0.4555196762084961,-0.05113875865936279,-0.2225460410118103
1782811279497510400,4.141510498046875,-0.45606815814971924,-0.13085751235485077,-0.2943950891494751
1782811279507582500,4.15158251953125,-0.46577325463294983,-0.2234574854373932,-0.3005155622959137
1782811279517653200,4.1616533203125,-0.48588627576828003,-0.3002258241176605,-0.2560461759567261
1782811279527725600,4.1717255859375,-0.5128052830696106,-0.3350919187068939,-0.17564906179904938
1782811279537797400,4.18179736328125,-0.5392910838127136,-0.3075062036514282,-0.07002329081296921
1782811279547868200,4.1918681640625,-0.5465194582939148,-0.21816885471343994,0.04439622908830643
1782811279557940200,4.201940185546875,-0.5389701128005981,-0.11942065507173538,0.15006095170974731
1782811279568012300,4.21201220703125,-0.5199362635612488,-0.013011656701564789,0.22643694281578064
1782811279578083300,4.222083251953125,-0.4942336082458496,0.08206591755151749,0.2755395770072937
1782811279588155400,4.2321552734375,-0.46524643898010254,0.15466181933879852,0.29525601863861084
1782811279598227200,4.242227294921875,-0.4271584451198578,0.19262586534023285,0.2973453998565674
1782811279608299300,4.25229931640625,-0.39562979340553284,0.18659034371376038,0.26826420426368713
1782811279618370300,4.262370361328125,-0.36534783244132996,0.13589221239089966,0.23133620619773865
1782811279628442400,4.2724423828125,-0.3424696922302246,0.0677858516573906,0.19633056223392487
1782811279638514200,4.28251416015625,-0.3334084153175354,-0.001959496410563588,0.1782466471195221
1782811279648585200,4.292585205078125,-0.34716418385505676,-0.06393604725599289,0.1757451295852661
1782811279658657300,4.3026572265625,-0.3843837380409241,-0.0956619381904602,0.1863994151353836
1782811279668729300,4.312729248046875,-0.4336884617805481,-0.08136822283267975,0.20835398137569427
1782811279678800400,4.32280029296875,-0.49267375469207764,-0.05375751107931137,0.23424965143203735
1782811279688872400,4.33287255859375,-0.5477607250213623,-0.023707199841737747,0.25009170174598694
1782811279698944300,4.3429443359375,-0.5844283103942871,0.022895174100995064,0.25163722038269043
1782811279709015300,4.353015380859375,-0.6073408722877502,0.08812184631824493,0.23764443397521973
1782811279719087400,4.36308740234375,-0.6084892749786377,0.1482233703136444,0.20764762163162231
1782811279729159400,4.373159423828125,-0.5904428958892822,0.18807731568813324,0.16868716478347778
1782811279739230500,4.38323046875,-0.5456401705741882,0.18511657416820526,0.1305866837501526
1782811279749302300,4.39330224609375,-0.48165804147720337,0.15605428814888,0.08555928617715836
1782811279759374300,4.403374267578125,-0.42242732644081116,0.11016042530536652,0.04907817021012306
1782811279769445400,4.4134453125,-0.3674820363521576,0.05912946164608002,0.021340545266866684
1782811279779517400,4.423517333984375,-0.3203611969947815,0.018745344132184982,0.02749333716928959
1782811279789589500,4.433589599609375,-0.29199984669685364,-0.002206277335062623,0.07087197154760361
1782811279799660500,4.44366064453125,-0.27025991678237915,-0.019718239083886147,0.1398337036371231
1782811279809732400,4.453732421875,-0.24955861270427704,-0.022977149114012718,0.21371404826641083
1782811279819804400,4.463804443359375,-0.23078081011772156,-0.004881861619651318,0.2752871513366699
1782811279829875200,4.473875244140625,-0.20311322808265686,-0.006047260947525501,0.300534188747406
1782811279839947500,4.483947509765625,-0.1767667680978775,-0.008466757833957672,0.2826649248600006
1782811279850019300,4.494019287109375,-0.1497303545475006,0.016063619405031204,0.23412856459617615
1782811279860091400,4.50409130859375,-0.11628435552120209,0.04863617941737175,0.17117606103420258
1782811279870162200,4.514162109375,-0.07706344872713089,0.08549512922763824,0.11258331686258316
1782811279880234200,4.524234130859375,-0.04414457827806473,0.12376779317855835,0.062101975083351135
1782811279890306300,4.534306396484375,-0.024922948330640793,0.15667034685611725,0.01765088550746441
1782811279900377300,4.54437744140625,-0.02432294189929962,0.20281720161437988,-0.014272265136241913
1782811279910449200,4.55444921875,-0.04993429780006409,0.30623918771743774,-0.025899894535541534
1782811279920521200,4.564521240234375,-0.07227631658315659,0.41006776690483093,-0.02710127644240856
1782811279930592300,4.57459228515625,-0.0791986733675003,0.45368850231170654,-0.062455274164676666
1782811279940664300,4.584664306640625,-0.05876107141375542,0.42370977997779846,-0.11865822225809097
1782811279950736400,4.594736328125,-0.005397449247539043,0.3310597240924835,-0.19213350117206573
1782811279960807400,4.604807373046875,0.04831816628575325,0.22485420107841492,-0.24718694388866425
1782811279970879200,4.614879150390625,0.0846271738409996,0.14018486440181732,-0.2733738124370575
1782811279980951300,4.624951416015625,0.09120297431945801,0.092086061835289,-0.2728401720523834
1782811279991022300,4.635022216796875,0.09569226205348969,0.0797409787774086,-0.252847284078598
1782811280001094400,4.645094482421875,0.10366261005401611,0.10204394906759262,-0.22944121062755585
1782811280011166200,4.655166259765625,0.12278623878955841,0.14191359281539917,-0.18797525763511658
1782811280021237200,4.6652373046875,0.16114240884780884,0.18104863166809082,-0.13032890856266022
1782811280031309300,4.675309326171875,0.22095860540866852,0.2211529165506363,-0.057067472487688065
1782811280041381400,4.68538134765625,0.2920062243938446,0.2896352708339691,0.04221367835998535
1782811280051452400,4.695452392578125,0.3674439787864685,0.3585994243621826,0.16255126893520355
1782811280061523700,4.705523681640625,0.44282737374305725,0.3855520784854889,0.27385494112968445
1782811280071595800,4.715595703125,0.5133954882621765,0.3597777485847473,0.3599834442138672
1782811280081666800,4.725666748046875,0.5584872364997864,0.2934723198413849,0.40837785601615906
1782811280091738600,4.735738525390625,0.5765125751495361,0.20135705173015594,0.4226369559764862
1782811280101810700,4.745810791015625,0.5847969055175781,0.09169717133045197,0.41379645466804504
1782811280111882800,4.7558828125,0.5886222720146179,-0.02981860376894474,0.38876327872276306
1782811280121953800,4.765953857421875,0.5850645303726196,-0.1599542796611786,0.3377801179885864
1782811280132025600,4.776025634765625,0.5618971586227417,-0.2945038378238678,0.27094143629074097
1782811280142097700,4.78609765625,0.5275362730026245,-0.39491012692451477,0.20097504556179047
1782811280152168700,4.796168701171875,0.48340481519699097,-0.441849946975708,0.1351395845413208
1782811280162240800,4.80624072265625,0.4354700446128845,-0.4527638256549835,0.08546470105648041
1782811280172312800,4.816312744140625,0.37550151348114014,-0.4239095449447632,0.04493991285562515
1782811280182383900,4.8263837890625,0.3145250976085663,-0.3468683958053589,0.004890304058790207
1782811280192455700,4.83645556640625,0.2597566545009613,-0.22452093660831451,-0.026697183027863503
1782811280202527700,4.84652783203125,0.22125773131847382,-0.05726693570613861,-0.044797949492931366
1782811280212598500,4.8565986328125,0.20152078568935394,0.10139195621013641,-0.037753090262413025
1782811280222670800,4.8666708984375,0.19687914848327637,0.21772386133670807,-0.007885145954787731
1782811280232743000,4.876742919921875,0.2010086476802826,0.28064557909965515,0.03181140124797821
1782811280242813700,4.886813720703125,0.21303915977478027,0.30566471815109253,0.06975535303354263
1782811280252885500,4.896885498046875,0.22736456990242004,0.30003559589385986,0.10733548551797867
1782811280262957600,4.90695751953125,0.24664798378944397,0.2610953748226166,0.13451464474201202
1782811280273028600,4.917028564453125,0.2588881552219391,0.20136547088623047,0.14514172077178955
1782811280283100700,4.9271005859375,0.27270984649658203,0.11671778559684753,0.1418313980102539
1782811280293172500,4.93717236328125,0.2860355079174042,0.041704267263412476,0.12171680480241776
1782811280303243500,4.947243408203125,0.29732975363731384,-0.023025209084153175,0.09679897874593735
1782811280313315600,4.957315673828125,0.2939760386943817,-0.055398330092430115,0.07111332565546036
1782811280323387600,4.9673876953125,0.26940643787384033,-0.05984118580818176,0.03863899037241936
1782811280333459700,4.977459716796875,0.22935406863689423,-0.06331714242696762,0.0011217094724997878
1782811280343530800,4.98753076171875,0.18990254402160645,-0.082061268389225,-0.02549472078680992
1782811280353602600,4.9976025390625,0.1518092155456543,-0.109044149518013,-0.05870620533823967
1782811280363674600,5.007674560546875,0.11965733021497726,-0.12198961526155472,-0.10058754682540894
1782811280373745700,5.01774560546875,0.08806025981903076,-0.12278110533952713,-0.13437481224536896
1782811280383817700,5.027817626953125,0.046552643179893494,-0.10784509032964706,-0.14848807454109192
1782811280393889800,5.037889892578125,0.007527743466198444,-0.10123033076524734,-0.15732870995998383
1782811280403960800,5.0479609375,-0.02336590737104416,-0.0651121437549591,-0.16372308135032654
1782811280414032600,5.05803271484375,-0.04373163357377052,-0.010223593562841415,-0.15110422670841217
1782811280424104700,5.068104736328125,-0.05471409112215042,0.02241886593401432,-0.09874888509511948
1782811280434175700,5.07817578125,-0.06338454782962799,0.001216907287016511,-0.00692069623619318
1782811280444247800,5.088247802734375,-0.0730854943394661,-0.043936774134635925,0.09375253319740295
1782811280454319600,5.098319580078125,-0.06052576005458832,-0.1073000356554985,0.16674871742725372
1782811280464390700,5.108390625,-0.05923762172460556,-0.16489306092262268,0.22814562916755676
1782811280474462700,5.118462646484375,-0.08805569261312485,-0.21503213047981262,0.27858641743659973
1782811280484534800,5.12853466796875,-0.12675105035305023,-0.23945608735084534,0.3265779912471771
1782811280494605800,5.138605712890625,-0.167602077126503,-0.212056964635849,0.3551419973373413
1782811280504678000,5.148677978515625,-0.2133154273033142,-0.15361203253269196,0.354181170463562
1782811280514749700,5.158749755859375,-0.26801222562789917,-0.06489042937755585,0.29239076375961304
1782811280524820500,5.168820556640625,-0.3407536447048187,0.03669635206460953,0.16197825968265533
1782811280534892800,5.178892822265625,-0.4332750737667084,0.1257934719324112,-0.00582511629909277
1782811280544964900,5.18896484375,-0.5331769585609436,0.21256086230278015,-0.16514264047145844
1782811280555036700,5.19903662109375,-0.6241809129714966,0.2813013195991516,-0.2703375220298767
1782811280565107500,5.209107421875,-0.6722762584686279,0.3189900517463684,-0.3181712329387665
1782811280575179500,5.219179443359375,-0.6740939021110535,0.34178832173347473,-0.30228760838508606
1782811280585251600,5.22925146484375,-0.632865309715271,0.3592188060283661,-0.2264162302017212
1782811280595322600,5.239322509765625,-0.5606489181518555,0.3573465943336487,-0.1363885998725891
1782811280605394700,5.249394775390625,-0.4901615381240845,0.318313866853714,-0.05604921281337738
1782811280615466500,5.259466552734375,-0.441106379032135,0.25016677379608154,0.013389249332249165
1782811280625537500,5.26953759765625,-0.42000672221183777,0.19378812611103058,0.08421269059181213
1782811280635609600,5.279609619140625,-0.4235258102416992,0.17389830946922302,0.153263658285141
1782811280645681700,5.289681640625,-0.4416227638721466,0.19106349349021912,0.1847546100616455
1782811280655752700,5.299752685546875,-0.4524192214012146,0.2194080352783203,0.16392336785793304
1782811280665824800,5.30982470703125,-0.44404810667037964,0.2276284247636795,0.11143272370100021
1782811280675896600,5.319896484375,-0.41199660301208496,0.19246163964271545,0.053140170872211456
1782811280685967600,5.329967529296875,-0.3678092062473297,0.1364472359418869,0.001393455546349287
1782811280696039700,5.340039794921875,-0.33153802156448364,0.06954038143157959,-0.03993481025099754
1782811280706111700,5.35011181640625,-0.3167620301246643,0.002142102923244238,-0.03583068400621414
1782811280716182800,5.360182861328125,-0.3104671239852905,-0.044735655188560486,0.012910221703350544
1782811280726254600,5.370254638671875,-0.3067871332168579,-0.07768342643976212,0.06709817051887512
1782811280736326700,5.38032666015625,-0.30806463956832886,-0.0926583781838417,0.09331299364566803
1782811280746397700,5.390397705078125,-0.3291289806365967,-0.10418490320444107,0.08531078696250916
1782811280756469800,5.4004697265625,-0.3516595959663391,-0.08887598663568497,0.060200903564691544
1782811280766541800,5.410541748046875,-0.35919448733329773,-0.05098913237452507,0.03941672295331955
1782811280776612900,5.42061279296875,-0.3444666862487793,-0.01319940946996212,0.016283174976706505
1782811280786684700,5.4306845703125,-0.3385966420173645,0.03578677028417587,-0.017436960712075233
1782811280796756700,5.4407568359375,-0.34262654185295105,0.10322732478380203,-0.04216654226183891
1782811280806828800,5.450828857421875,-0.3405052125453949,0.15546739101409912,-0.03313425928354263
1782811280816899800,5.46089990234375,-0.3253805935382843,0.19539830088615417,-0.009478196501731873
1782811280826971600,5.4709716796875,-0.2989303171634674,0.21625904738903046,0.008727089501917362
1782811280837043700,5.481043701171875,-0.2684541642665863,0.2014012634754181,0.009869053028523922
1782811280847114500,5.491114501953125,-0.2499627321958542,0.16464757919311523,-0.001670881174504757
1782811280857186800,5.501186767578125,-0.24662764370441437,0.11439906060695648,-0.00921481754630804
1782811280867259000,5.5112587890625,-0.2661667764186859,0.048233434557914734,-0.021906880661845207
1782811280877329700,5.52132958984375,-0.2758721113204956,-0.011506597511470318,-0.041579652577638626
1782811280887401500,5.5314013671875,-0.286912739276886,-0.06956358999013901,-0.05366430804133415
1782811280897473500,5.5414736328125,-0.3229767382144928,-0.13772480189800262,-0.07442124933004379
1782811280907544600,5.551544677734375,-0.340904176235199,-0.20148049294948578,-0.09302882850170135
1782811280917616600,5.56161669921875,-0.32781314849853516,-0.22899121046066284,-0.11967109143733978
1782811280927688700,5.571688720703125,-0.3090134859085083,-0.22378012537956238,-0.1341479867696762
1782811280937759700,5.581759765625,-0.28266844153404236,-0.20206977427005768,-0.14556390047073364
1782811280947831600,5.59183154296875,-0.2626343071460724,-0.15110836923122406,-0.15822815895080566
1782811280957903600,5.601903564453125,-0.24579353630542755,-0.07340238988399506,-0.17179270088672638
1782811280967974700,5.611974609375,-0.23837554454803467,0.028878362849354744,-0.1784791350364685
1782811280978046700,5.622046630859375,-0.24064454436302185,0.16365614533424377,-0.18016597628593445
1782811280988118500,5.632118408203125,-0.23710300028324127,0.29931530356407166,-0.19532960653305054
1782811280998189600,5.642189453125,-0.2663900554180145,0.4006030559539795,-0.07179781794548035
1782811281008261600,5.65226171875,-0.3207814693450928,0.048795200884342194,0.011247817426919937
1782811281018335500,5.66233544921875,-0.385995090007782,-0.15789325535297394,0.09405454993247986
1782811281028406500,5.672406494140625,-0.41933777928352356,-0.10503364354372025,0.1658540517091751
1782811281038478600,5.682478515625,-0.4160972535610199,0.005748529452830553,0.19555602967739105
1782811281048550700,5.692550537109375,-0.3457058370113373,0.08035241812467575,0.13829576969146729
1782811281058621700,5.70262158203125,-0.2631901800632477,0.09628264605998993,0.04081821069121361
1782811281068694000,5.712694091796875,-0.18998634815216064,0.02774916961789131,-0.008536658249795437
1782811281078766000,5.72276611328125,-0.09834644943475723,-0.024695396423339844,0.04892823472619057
1782811281088837000,5.732837158203125,-0.03213094174861908,-0.13328658044338226,0.23367784917354584
1782811281098909200,5.7429091796875,-0.0019421456381678581,-0.2681994140148163,0.45045754313468933
