time,seconds_elapsed,z,y,x
1782811655230623000,0.080623046875,-0.9735422500610351,-0.2287269225656986,-0.7638019136466085
1782811655240695000,0.090695068359375,-0.5836445223301648,0.009511047928035258,-0.8229824168898164
1782811655250767000,0.10076708984375,-0.49583998214900493,0.23835619004592298,-0.7583125224500894
1782811655260839000,0.1108388671875,-0.7035837379187345,0.3913983415521681,-0.6180816294610499
1782811655270910000,0.120909912109375,-0.7403899122685194,0.4288960052974522,-0.37636151593998074
1782811655280982000,0.13098193359375,-0.2993067717015743,0.34024770776852964,-0.0020320903494954108
1782811655291054000,0.14105419921875,0.3442664418905973,0.408787867770344,0.6066350834257901
1782811655301126000,0.1511259765625,0.5160743764042854,0.35672669501304627,1.1902344514399765
1782811655311197000,0.161197021484375,0.09055763828158378,0.24583587827682493,1.3885767571359873
1782811655321269000,0.17126904296875,-0.2459118661224842,0.366127706695348,1.262066054202616
1782811655331341000,0.181341064453125,-0.36835166635513306,0.6061066756375134,1.0696436400748788
1782811655341413000,0.1914130859375,-0.22009645686447618,0.6848024650812149,0.8746838164240122
1782811655351485000,0.20148486328125,0.104904728063941,0.8814256918996572,0.7929933752089738
1782811655361556000,0.211555908203125,0.14175883320868016,1.405629014223814,0.8768554613746702
1782811655371628000,0.2216279296875,0.23888591300845144,1.633603657117486,0.8305240644410252
1782811655381700000,0.2317001953125,0.7547165437847375,1.6848250180497764,0.5063358033306896
1782811655391772000,0.24177197265625,1.3199965573847292,0.7893623252302407,-0.4071681576140225
1782811655401843000,0.251843017578125,1.7270973488509653,-0.3222042476862669,-1.1835194639712572
1782811655411915300,0.261915283203125,2.3063082726478576,-0.9041042644366621,-1.4820093663319944
1782811655421987300,0.2719873046875,2.8646991112560034,-0.9841539527073502,-1.2559510784536598
1782811655432059400,0.282059326171875,2.9046657954633233,-0.7037243154332041,-0.8484620183221996
1782811655442130400,0.29213037109375,2.474043843156099,-0.4208715426653623,-0.5213162225805222
1782811655452202200,0.3022021484375,2.0211726496398446,-0.2518196288615465,-0.36852585387825965
1782811655462274300,0.3122744140625,1.659013992705941,-0.1672337584659457,-0.2162984528210014
1782811655472346400,0.322346435546875,1.4423381579399108,-0.03650719140321016,0.040387028511241076
1782811655482418200,0.332418212890625,0.701262601494789,0.1780021129786968,0.26512767618605865
1782811655492489200,0.3424892578125,-2.1547043372511863,0.4918728320837021,-0.07712700575701892
1782811655502561300,0.352561279296875,-0.5308014054149389,1.3808002779155968,0.10699234799295664
1782811655512633300,0.36263330078125,0.5413192922979593,2.2249261667296287,0.37985206146948036
1782811655522705400,0.372705322265625,0.03733808926939964,1.4433026190578937,0.27098464031964536
1782811655532776400,0.3827763671875,0.2768494406998157,0.24586890376359222,0.21591862319055943
1782811655542848300,0.39284814453125,0.6482862135887145,-0.6897364143520593,0.00029638913068920375
1782811655552920300,0.40292041015625,-0.12964286347925663,-1.549281113833189,-0.1729003693928942
1782811655562992400,0.412992431640625,-2.1472809092521667,-1.8025018416643142,-0.5558435652781277
1782811655573063400,0.4230634765625,-4.523127413028479,-1.504287833635509,-1.093272937465459
1782811655583135500,0.433135498046875,-5.823074869596958,-1.0520558148056267,-1.464751357538998
1782811655593207300,0.443207275390625,-5.916492573484778,-0.7756029722079634,-1.742672811384499
1782811655603279400,0.453279296875,-5.60973256316781,-0.37447219506204127,-1.9149802198529242
1782811655613351400,0.463351318359375,-6.404059232807159,0.24917758992016315,-1.5925795728117227
1782811655623422500,0.47342236328125,-7.709260372120141,0.6103787999987602,-1.4294082414790987
1782811655633494300,0.483494384765625,-7.2786144544154405,0.6202610193267464,-1.429314717976749
1782811655643566300,0.49356640625,-5.89515343285799,0.20216566337645053,-1.2861119695700705
1782811655653638400,0.503638427734375,-5.110695246282219,-0.4697103923752904,-1.326446902567893
1782811655663709400,0.51370947265625,-4.470308846032619,-0.7162766307532787,-1.721614095134288
1782811655673781500,0.523781494140625,-3.5379175215274095,-0.4888359486058354,-2.336171349861473
1782811655683853300,0.533853271484375,-1.127472582578659,-0.08407470600306988,-1.389305217541009
1782811655693925400,0.54392529296875,0.885266000714898,-1.2664452922001481,-2.315678889191896
1782811655703996400,0.553996337890625,1.0935241357475518,-3.1745296150594946,-2.9422756874114273
1782811655714068500,0.564068359375,3.9020384184449908,-3.374754958023131,-2.9886972468465567
1782811655724140300,0.574140380859375,4.602865551131964,-1.6360585029236971,-2.5076784017324445
1782811655734212400,0.58421240234375,3.2571716579109427,-0.2009868288554251,-2.319635079471767
1782811655744284400,0.594284423828125,1.9570324781626462,0.6708122259125113,-2.300973341360688
1782811655754355500,0.60435546875,0.8855670294880866,1.197022504144907,-2.2399090701974926
1782811655764427500,0.614427490234375,-0.9043138155341148,1.3365475869521497,-2.497910456433892
1782811655774499300,0.624499267578125,-1.954494484117627,0.7069348749775439,-2.796742596361041
1782811655784571400,0.6345712890625,-1.6241080990195274,-0.2637044932488352,-2.642860779160261
1782811655794642400,0.644642333984375,-0.7178291208922862,-1.1856877479210495,-1.9609937830090522
1782811655804714500,0.654714599609375,0.15181027162373065,-1.951297003250569,-1.185041558972001
1782811655814786600,0.66478662109375,0.8263046931803226,-2.4881015946030614,-0.23182803038619457
1782811655824858400,0.6748583984375,1.627678358721733,-2.9163144399419427,0.8999633652396499
1782811655834929400,0.684929443359375,2.2647435055941343,-3.4501448377892374,1.8213579333037138
1782811655845001500,0.69500146484375,3.1360435247987506,-3.782451961816847,2.2606027525275945
1782811655855073500,0.705073486328125,3.7188363987356423,-3.6639267046794295,2.5938983030706644
1782811655865145300,0.715145263671875,3.4885236682832237,-3.0204660115510222,3.174139154437184
1782811655875217400,0.725217529296875,3.182593679049611,-2.2757161505073307,3.7843852679669854
1782811655885288400,0.735288330078125,3.412828083568811,-1.7663075156025587,4.385380445809662
1782811655895360500,0.745360595703125,4.0900025379896165,-1.4787186542235313,4.897773795613646
1782811655905432600,0.7554326171875,4.746404838016629,-1.3461448518589139,5.21256046051979
1782811655915504400,0.76550439453125,5.36047372470498,-1.0781323592178522,5.255928477603197
1782811655925575200,0.7755751953125,6.667296912261843,-0.36813495486453174,5.349194790321588
1782811655935647500,0.7856474609375,6.941719418075681,-0.5876939438514411,5.436245881786943
1782811655945719600,0.795719482421875,5.573180071318149,-1.4151323172368109,5.231674326312541
1782811655955791400,0.805791259765625,5.531369220548868,-1.073270525335148,4.882000764681399
1782811655965862400,0.8158623046875,6.114513392141461,-0.3412033645255491,4.626870988358557
1782811655975934200,0.825934326171875,6.517603194400667,0.15151446701493113,4.34255398825705
1782811655986006300,0.83600634765625,6.429674151057005,0.24541005408018826,3.837168179127574
1782811655996078300,0.846078369140625,5.352999443301558,0.18143369486257432,3.1769992200434207
1782811656006149400,0.8561494140625,3.5732810958534476,0.26452297002486885,2.384836304309219
1782811656016221200,0.86622119140625,3.735353818294406,0.3277520180065185,1.792918020761013
1782811656026293200,0.876293212890625,3.642645139458775,0.528100622023642,1.3872618751451373
1782811656036365300,0.886365234375,1.313861415630579,1.1767043040636926,1.20989455293864
1782811656046437400,0.896437255859375,-0.7792249620974063,2.2423811593994496,1.224214827779308
1782811656056508400,0.90650830078125,-3.032844431608915,3.4898096164405343,1.2899334275543688
1782811656066580200,0.916580322265625,-4.572047803542017,4.497713570308685,1.3445932385027408
1782811656076652300,0.92665234375,-5.28348751565814,4.904623807638884,1.1702694487106053
1782811656086724400,0.936724365234375,-6.173652394330501,4.692189848226309,0.5771154128223658
1782811656096795400,0.94679541015625,-7.555298475420474,3.9983217408969995,-0.18378851436041294
1782811656106867200,0.9568671875,-8.319169801041483,2.9076266910955306,-0.5003956726919859
1782811656116939300,0.966939208984375,-8.227802599942684,1.3543918712005019,-0.5852047573842107
1782811656127011300,0.97701123046875,-7.1387021258562795,-0.5395999211594462,-1.603912283208966
1782811656137082400,0.987082275390625,-6.256169349497556,-2.0421412033885717,-3.4327778156638145
1782811656147154400,0.997154541015625,-7.050519400012493,-3.3063606362327933,-4.430572755710781
1782811656157226200,1.007226318359375,-8.242434351885318,-4.787848609039187,-4.3207071903690695
1782811656167298300,1.01729833984375,-9.052605071866513,-5.693823635783791,-3.7733869040906427
1782811656177369300,1.027369384765625,-10.01372155559659,-5.60863132392764,-3.554930907909572
1782811656187441400,1.03744140625,-11.170869145470856,-4.754276302044094,-3.82953812264055
1782811656197513200,1.04751318359375,-10.671178917634487,-3.942999082125723,-4.110172050315142
1782811656207585300,1.057585205078125,-8.575071730780602,-3.4638223577469587,-4.184301116365194
1782811656217657300,1.0676572265625,-5.781507764455676,-3.1108941782340405,-3.976022815327346
1782811656227728400,1.077728271484375,-2.350028756430745,-2.980442920981347,-3.4351568197548388
1782811656237800400,1.087800537109375,0.9782558345794677,-2.6113100411206482,-2.6496447402119636
1782811656247872300,1.097872314453125,3.170484139060974,-1.655424882172793,-1.385522045740485
1782811656257944300,1.1079443359375,4.577473335722089,0.04618263611271977,0.04413271784558892
1782811656268015400,1.118015380859375,5.113503873962164,1.3638387678511439,0.7759807194791734
1782811656278087400,1.12808740234375,4.595733799555897,1.049514825085923,0.6193044492542743
1782811656288159500,1.138159423828125,3.187151196223497,-0.5311666585307568,-0.14736995108872653
1782811656298231300,1.148231201171875,1.4856260955244303,-2.4911165585100647,-0.8088172595456242
1782811656308302300,1.15830224609375,0.24097674780786035,-3.8230408695757387,-0.6144549633964895
1782811656318374400,1.16837451171875,0.22279928608238694,-4.182679068121314,0.5044344997540116
1782811656328446500,1.178446533203125,0.9694231243044137,-4.068712497201561,1.8110989896178245
1782811656338518300,1.188518310546875,1.6695073296695946,-3.3827661227822303,2.886510837830603
1782811656348589300,1.19858935546875,2.5627450399160385,-2.370420094813406,3.896973244009912
1782811656358661400,1.208661376953125,3.331882907763123,-1.4597797066062688,4.5513428691655395
1782811656368733400,1.2187333984375,3.9785184315353628,-1.044797952631861,4.590650212681293
1782811656378805500,1.228805419921875,5.271596586856246,-0.8343811782605945,4.717168806660175
1782811656388876500,1.23887646484375,6.5916334762513635,-0.7829075961329043,4.737339780290425
1782811656398948400,1.2489482421875,7.156442949730158,-0.9331639893781393,4.345871734502912
1782811656409020400,1.2590205078125,6.4792486215651035,-1.3016761800572276,3.8713863828107713
1782811656419091700,1.269091796875,5.256472082960605,-1.4067979118727147,3.6069030872091647
1782811656429162800,1.279162841796875,3.694401045659184,-0.8396272622205316,3.1837457716941833
1782811656439234800,1.28923486328125,1.8432950398236512,-0.22732224339954554,2.7626068102642893
1782811656449306600,1.299306640625,-0.07691665094196797,0.07329732793364674,2.0750272816851734
1782811656459378700,1.309378662109375,-1.2396020011991262,1.0618955832313746,1.7758067269623279
1782811656469450800,1.31945068359375,-1.3295394617557525,2.282689204390347,1.8432558768570422
1782811656479521800,1.329521728515625,-0.28833763391971584,3.4471973861604925,1.913690180042386
1782811656489593900,1.33959375,1.5645242756724356,4.374175453445315,2.2660832297652957
1782811656499665700,1.349665771484375,3.0728537859141825,4.576861925825477,2.8569737777009605
1782811656509737700,1.35973779296875,2.44349322206974,4.075976350724697,3.237387053249776
1782811656519808800,1.369808837890625,1.7734809143632648,3.8978807142436502,3.068776161211729
1782811656529880800,1.379880859375,2.558193367961049,3.7378389131084084,2.36337339117229
1782811656539952600,1.38995263671875,3.5776550731539722,3.002160247270763,1.3347019590854643
1782811656550024700,1.400024658203125,3.0273832435935732,1.7050214183822274,0.10354571467041969
1782811656560095700,1.410095703125,2.162930898326635,0.09380933355391025,-1.3736714489489792
1782811656570167800,1.420167724609375,1.2831500510245561,-0.7290478495210408,-2.5381582956701516
1782811656580240000,1.430239990234375,-0.30347967347204685,-0.5611857300236821,-3.1416239552795884
1782811656590311700,1.440311767578125,-2.280407523193955,0.4128960337415337,-3.184574331472814
1782811656600382700,1.4503828125,-4.333350691103935,1.898699970050901,-2.7992493184849616
1782811656610454800,1.460454833984375,-6.868438493287563,3.12847338180542,-2.361707503786683
1782811656620526800,1.47052685546875,-9.240820535823703,3.4141733606979248,-2.0301421380370854
1782811656630598700,1.4805986328125,-10.033935491585732,2.840466879536211,-1.778428599898517
1782811656640669700,1.490669677734375,-8.999761954951286,1.8847753434643149,-1.8349822617694735
1782811656650741800,1.50074169921875,-7.113220478597283,0.9244906343832612,-2.7885759487792847
1782811656660813800,1.510813720703125,-5.58164628636837,0.20470307289957998,-3.6026144501045345
1782811656670886000,1.520885986328125,-5.081591901394725,-0.4638070135504007,-3.299583981704712
1782811656680957000,1.53095703125,-4.661595972520113,-1.31675012280941,-2.4921897406995295
1782811656691028700,1.54102880859375,-4.52739559186697,-2.26673818654269,-2.039097013387084
1782811656701100800,1.551100830078125,-5.076370367354154,-2.86781022901386,-2.225475178914517
1782811656711172900,1.5611728515625,-6.103997843345999,-2.669321500584483,-2.594882053411007
1782811656721244000,1.571243896484375,-6.538541353011131,-1.5612234805613756,-2.810090153712034
1782811656731316000,1.58131591796875,-6.06936258329451,-0.3404991983115673,-2.906153111411631
1782811656741387800,1.5913876953125,-4.88142939453423,0.5766501333981752,-2.7306211879387496
1782811656751459800,1.6014599609375,-2.3874136074513195,1.0479274828292429,-1.9128956686638294
1782811656761530600,1.611530517578125,1.0236480509668588,0.951240694142878,-0.4938995156057179
1782811656771602700,1.621602783203125,3.333148397654295,1.2868775471150875,0.9042105012901127
1782811656781674800,1.6316748046875,3.33560105150342,2.4502226764552293,1.7406019964598118
1782811656791746800,1.641746826171875,4.191422931069136,2.8899545485436913,2.433239539080858
1782811656801817600,1.651817626953125,5.871339426550269,2.7181191415011883,2.9642168855845927
1782811656811889700,1.6618896484375,6.038693304264545,1.9875527041107415,2.6893846299260855
1782811656821961700,1.671961669921875,4.425800426742434,0.7331910137403755,1.9545184495151042
1782811656832033500,1.682033447265625,3.311909210270643,-0.2836588649863377,1.5295216436132788
1782811656842104600,1.6921044921875,3.1258722593963144,-0.8272416817694902,1.4550895029634237
1782811656852176600,1.7021767578125,2.359359479355812,-1.3641536790192126,1.4553668586000799
1782811656862248700,1.712248779296875,1.4912217235743999,-1.6836811087116599,1.5618620707258581
1782811656872320800,1.72232080078125,0.6813327431440352,-1.7179229855313896,2.0399141749888656
1782811656882392600,1.732392578125,0.5564180772304534,-1.8775724263481794,2.512526426285505
1782811656892463600,1.742463623046875,0.4770779985338449,-2.145288274130225,2.792093016989529
1782811656902535700,1.75253564453125,0.6034224049896001,-2.4673446377784014,2.752672860749066
1782811656912607700,1.762607666015625,1.5154326202452182,-2.633805950567126,2.598480370163917
1782811656922679600,1.772679443359375,2.7311849593013524,-2.642058815127611,2.4269252413675186
1782811656932750600,1.78275048828125,3.845373112893104,-2.7442227200508116,2.2736145020529626
1782811656942822700,1.79282275390625,4.5180876652956,-2.892498095546663,2.2281723090440035
1782811656952894700,1.802894775390625,4.7214165272325275,-3.071448303030431,2.2124103840276597
1782811656962966800,1.812966796875,4.615153370296955,-3.1199466687396167,2.18070474768728
1782811656973037800,1.823037841796875,4.517607772824168,-2.9630852512061594,2.1849463307797907
1782811656983109600,1.833109619140625,4.309741267457604,-2.7442893555462358,2.1447183652877806
1782811656993181700,1.843181640625,4.026646210366487,-2.50059136608094,1.9985130740642547
1782811657003253800,1.853253662109375,3.919822496938705,-2.168701444552094,1.8720894648924469
1782811657013324800,1.86332470703125,3.9023295103460547,-1.842875937628746,1.754120088072121
1782811657023396600,1.873396728515625,3.7961639685660598,-1.59847798320055,1.5453241929009556
1782811657033468700,1.88346875,3.9064720169782636,-1.2862602919995785,1.4126660732537508
1782811657043540700,1.893540771484375,3.736440444487333,-0.936382147707045,1.4128127882480621
1782811657053611800,1.90361181640625,3.147810534960031,-0.644003421702981,1.3555340269729494
1782811657063683800,1.913683837890625,2.460593994474411,-0.39687545778900385,1.1797364383012057
1782811657073755600,1.923755615234375,1.436861772355437,0.17049159121811389,0.8071819134287536
1782811657083827700,1.93382763671875,-0.10509820480942726,0.927249285441637,0.18069719728156924
1782811657093898800,1.943898681640625,-1.8624597590208052,1.8111799458995461,-0.36583354605436325
1782811657103970800,1.953970703125,-3.5068554437875745,2.722201442378759,-0.7519314431108534
1782811657114043000,1.96404296875,-4.421976484540105,3.058092854633927,-1.0806157004661858
1782811657124114700,1.97411474609375,-5.480690588191151,2.4625045042708513,-1.176176626927778
1782811657134185700,1.984185791015625,-7.3148103879123925,1.3766717998087405,-1.0873243312593548
1782811657144257800,1.9942578125,-8.668601662871241,0.23077216465771197,-0.5799765744071453
1782811657154329900,2.004329833984375,-8.885404338887334,-1.1033213071405887,-0.13266586456224322
1782811657164401700,2.014401611328125,-7.789082681375741,-2.169665467278659,-0.5995232055939733
1782811657174473700,2.0244736328125,-6.3617573836505406,-2.3841218724295494,-1.8501842148154972
1782811657184544800,2.034544677734375,-6.217066588643193,-2.3958602410182355,-2.680631122367084
1782811657194616800,2.044616943359375,-7.621001658430695,-2.4151991477385164,-2.686080912205577
1782811657204689000,2.05468896484375,-9.90432126967907,-1.8829539732560514,-2.3072467225417492
1782811657214760700,2.0647607421875,-12.43975861595273,-0.5299710920706391,-2.467136547985673
1782811657224831700,2.074831787109375,-14.624734172827004,0.8353282498523592,-3.346459714648127
1782811657234903800,2.08490380859375,-15.369014078271388,1.3962994603425263,-4.479935629294812
1782811657244975900,2.094975830078125,-14.063701879799366,0.9571993102863431,-5.152908832633495
1782811657255047700,2.105047607421875,-10.765300970399378,-0.12179653389304876,-5.0173681432873005
1782811657265118700,2.11511865234375,-5.97048135330379,-1.2779682644724846,-4.063385749220848
1782811657275190800,2.125190673828125,-1.1353314793854952,-2.042032774578035,-2.7080954678758977
1782811657285262800,2.135262939453125,2.2520424294531343,-2.065870746283233,-1.404719644293934
1782811657295335000,2.1453349609375,3.9570319913923737,-1.389600839486718,-0.33376360644623637
1782811657305406000,2.155406005859375,4.468865661486983,-0.5039722890697419,0.49903103327527637
1782811657315477800,2.165477783203125,4.091946657794714,0.09204992266595363,1.0079932395868003
1782811657325549800,2.1755498046875,3.3372119938313958,0.3260026170559227,0.9444749994002282
1782811657335622000,2.185621826171875,2.585668819385767,0.7431114461869001,0.7813705958239734
1782811657345692700,2.195692626953125,2.0417554189413787,1.2888055925682187,0.8578086694687604
1782811657355764700,2.2057646484375,2.2433961816608905,1.4720102426260708,1.073792138056457
1782811657365836800,2.2158369140625,2.987405453470349,1.400230516181141,1.3052701128959654
1782811657375908900,2.225908935546875,3.9511329964816566,1.2185270644664763,1.4907465072780848
1782811657385979600,2.235979736328125,4.733447156766057,0.8289370875105261,1.7504726714804768
1782811657396051700,2.2460517578125,5.04993244228363,0.005684621507674455,1.8305150532275438
1782811657406123500,2.25612353515625,5.093037424516678,-0.7062997188791632,1.7198682743802665
1782811657416196000,2.266196044921875,5.072660406920313,-1.1546873372405766,1.482118087403476
1782811657426267100,2.27626708984375,5.111699454888701,-1.4059113382965325,1.1975161328807473
1782811657436339200,2.286339111328125,5.179273692467809,-1.2468088638380168,1.0285238403096795
1782811657446411000,2.296410888671875,5.250739092266559,-0.7838067369297146,1.026881626060605
1782811657456483000,2.306483154296875,5.4389101325601334,-0.333391266002506,0.9896586876034736
1782811657466554000,2.31655419921875,5.713581644698977,-0.007846183455735444,1.0345926388293505
1782811657476626200,2.326626220703125,6.052557578966021,0.2653722072653472,1.22069301032871
1782811657486698200,2.3366982421875,6.690943745309114,0.48959231993108987,1.3156418693065643
1782811657496770000,2.34677001953125,7.301135498303174,0.6953598071917891,1.3566707759179175
1782811657506841000,2.356841064453125,7.761951513344049,0.8738646089956164,1.5041820351734756
1782811657516913200,2.3669130859375,8.093633783471583,0.940729529261589,1.6520676806993781
1782811657526985200,2.376985107421875,8.339621052917838,0.8970908785432576,1.601905619561672
1782811657537057300,2.387057373046875,8.417860476896166,0.8750053034633397,1.3878729927808044
1782811657547128300,2.39712841796875,8.433205930066109,0.9187743025630712,1.1434813219629227
1782811657557200100,2.4072001953125,8.385182780653238,0.946315220439434,0.8673639949299394
1782811657567272200,2.417272216796875,7.3436992132663725,1.0491247297897934,0.6780326786853372
1782811657577344300,2.42734423828125,4.526099706837535,1.1699635245665907,0.9487811721615492
1782811657587415300,2.437415283203125,3.6462101384639736,1.0767410509899258,0.3332717312760651
1782811657597487000,2.447487060546875,3.1724791122704743,1.2383522933989763,0.16807868485748767
1782811657607559200,2.45755908203125,2.689942848330736,1.222218320199847,-0.014863661002367735
1782811657617631200,2.46763134765625,1.5606383741497993,1.1958391395792365,-0.2754613473422825
1782811657627702300,2.477702392578125,0.3064233257085085,1.012699955973029,-0.5159978771019726
1782811657637774300,2.4877744140625,-1.8906687854170798,0.506328642937541,-0.6860461815319955
1782811657647846100,2.49784619140625,-4.024594538533687,-0.34737200669050217,-0.7582207525134086
1782811657657918200,2.507918212890625,-5.743149684488773,-1.7041700622498988,-0.49320758781880136
1782811657667989000,2.517989013671875,-7.683478865131735,-3.5948745035022496,0.42640042562205344
1782811657678061000,2.52806103515625,-8.554366796404123,-5.626114373648166,1.7444124946586788
1782811657688133000,2.538133056640625,-8.199299559035897,-6.745221278941631,2.2116860152758657
1782811657698205200,2.548205078125,-7.885478524291515,-6.091646311295032,1.4319421438708901
1782811657708276000,2.55827587890625,-8.664322378116845,-5.020944832730293,0.4280834468055516
1782811657718348000,2.56834814453125,-10.166476999115943,-4.490679726149142,-0.20997991732396185
1782811657728420000,2.578420166015625,-11.356028144466876,-4.037161759161949,-0.31462997650709
1782811657738492000,2.588491943359375,-12.052462595152853,-2.9828987897008656,-0.3024505861526355
1782811657748563000,2.59856298828125,-12.085778004777431,-1.7937877893328666,-0.7810922903392463
1782811657758635000,2.608635009765625,-10.86710831696987,-1.0514558030858636,-1.2295083310775459
1782811657768707000,2.61870703125,-8.187472343119978,-0.6580874766349792,-0.9413243533495813
1782811657778779100,2.628779052734375,-4.376044754448532,-0.4204465952515602,-0.09697873910395428
1782811657788850200,2.63885009765625,-0.43793724375665183,-0.15851269187182188,0.7283326869890093
1782811657798922000,2.648921875,2.0182856960266826,0.16415625071674583,1.1541988230712712
1782811657808994000,2.658994140625,2.7526825053602457,0.8120058264538645,1.0851005907952784
1782811657819066000,2.669066162109375,2.4261188934206963,1.6323849289774894,0.8689602511454373
1782811657829137200,2.67913720703125,1.9640058243066072,1.9300655607819557,0.9439869966875761
1782811657839209000,2.689208984375,1.9518436773478984,1.803736644156277,0.9824943489320576
1782811657849281000,2.699281005859375,1.802030132499337,1.399871473610401,0.6883826616555452
1782811657859353000,2.70935302734375,1.086267296487093,0.9911332902006804,0.10283975835815072
1782811657869424000,2.719424072265625,0.4497521847128868,0.704153646761179,-0.42660526401177046
1782811657879496200,2.72949609375,0.07751110970377921,0.7481561623558401,-0.6355531348742545
1782811657889568000,2.739568115234375,0.29325170944631096,1.2657526337608693,-0.32907398732528087
1782811657899640000,2.74964013671875,1.2598960166871547,1.7083683907225726,0.5246938823200762
1782811657909711000,2.759711181640625,2.51766437369585,1.727693707308918,1.69218531768471
1782811657919783200,2.769783203125,3.626198447048664,1.326002519801259,2.83285085157454
1782811657929855200,2.779855224609375,4.206196721830964,0.568020398349315,3.3043469583228227
1782811657939927000,2.789927001953125,4.3689884061962365,-0.20729104356616734,3.0522400369524956
1782811657949998000,2.799998046875,4.45784976195395,-0.549731877464801,2.565891813509166
1782811657960070100,2.810070068359375,4.438006997364759,-0.4116908957354724,2.089780321919918
1782811657970142200,2.82014208984375,4.266982906705141,-0.07099135254621505,1.8458368332609534
1782811657980214000,2.830214111328125,3.976224183118343,0.21145766172632574,1.898352033396065
1782811657990285000,2.84028515625,3.682717622128129,0.3771053200446069,2.025911076338589
1782811658000357000,2.850357177734375,3.6934342464536427,0.5140948930248618,2.0728654274761675
1782811658010429200,2.86042919921875,3.9883687944203614,0.5613198777973651,1.9131731704309582
1782811658020501200,2.870501220703125,4.49986811799407,0.30511341215372084,1.690700339823961
1782811658030572300,2.880572265625,5.03590859310627,-0.28448081236109135,1.4233639928787947
1782811658040644000,2.89064404296875,5.387012772062421,-0.895941416247189,1.178094516313076
1782811658050716200,2.900716064453125,5.506640437483787,-1.2626768795773387,1.0337272541716693
1782811658060788200,2.910788330078125,5.413606764477491,-1.396716224449873,0.8568424547851086
1782811658070859300,2.920859375,5.467019205713272,-1.381807116870582,0.6459354126788676
1782811658080931000,2.93093115234375,5.518732441815733,-1.2688586369521915,0.5099515096098184
1782811658091003100,2.941003173828125,5.34624470834434,-1.1545523126840591,0.5933158753864467
1782811658101075200,2.9510751953125,4.686063474300504,-1.2314544967092573,0.8171468426041305
1782811658111146200,2.961146240234375,3.3470915828108785,-1.8050825058072804,0.6972486896783113
1782811658121218300,2.97121826171875,1.6910913849681615,-2.557760529501736,0.20632979731857776
1782811658131290000,2.9812900390625,-0.37076924889087676,-3.184561179730296,-0.49347953662797805
1782811658141362200,2.991362060546875,-1.9795494303971528,-3.380601930485666,-1.3453103007309137
1782811658151433200,3.00143310546875,-3.6514158904135225,-2.9200328759431837,-1.858648822430521
1782811658161505300,3.01150537109375,-5.4867883205443615,-2.2672160331875086,-1.7842272031746804
1782811658171577000,3.0215771484375,-7.01613431532979,-2.041385124324262,-0.8998201573766768
1782811658181649200,3.031649169921875,-8.588215874513983,-2.7256679494455454,0.5075282279856502
1782811658191720000,3.041719970703125,-10.094477930831909,-4.5604199095904825,1.537953810263425
1782811658201792000,3.0517919921875,-11.583173350799083,-5.973932955062389,0.9093841045357286
1782811658211864300,3.0618642578125,-13.327715170925854,-5.409513357684016,-1.9732110211558638
1782811658221936000,3.07193603515625,-14.7519717287302,-4.260745473620295,-4.691345214095711
1782811658232007000,3.0820068359375,-15.022414809519052,-4.330675042153895,-5.760111340683698
1782811658242079000,3.092078857421875,-13.963563927745819,-4.932302672681212,-5.409501082724333
1782811658252151000,3.102151123046875,-12.99545305508375,-5.024757669016719,-4.725743742781877
1782811658262223000,3.11222314453125,-11.876979771518707,-4.080604595047236,-4.567290964403748
1782811658272294100,3.122294189453125,-9.606918870294093,-2.581041159585118,-4.729666176922619
1782811658282366000,3.132365966796875,-6.051161740693449,-1.6602011566638946,-4.610805988742411
1782811658292438000,3.14243798828125,-2.019516114604473,-1.6241528149440885,-3.7624662816256285
1782811658302510000,3.152510009765625,0.48821781670749187,-1.5967606578886508,-2.4956343281954525
1782811658312581000,3.1625810546875,1.3619739968925713,-1.068348193436861,-1.3054045529305933
1782811658322653000,3.17265283203125,1.2404355294138192,-0.21159341693520545,-0.6574656914748251
1782811658332725000,3.18272509765625,0.934634719517827,0.42490722792223096,-0.39821971200481054
1782811658342796000,3.192796142578125,0.4556804057180881,0.652350978809595,-0.2338508414506912
1782811658352868000,3.2028681640625,0.05421089813709259,0.5360903056032955,-0.14744038597643375
1782811658362940200,3.212940185546875,0.6938812590718269,0.36673444041684267,0.21733897484987974
1782811658373012000,3.223011962890625,2.083442351070046,0.26157880633175373,0.9264394303634762
1782811658383084000,3.233083984375,3.56484702950716,0.2837481141723692,1.8241215527981518
1782811658393155000,3.243155029296875,4.656708200478554,0.4895284609146416,2.940288312986493
1782811658403227100,3.25322705078125,4.867766779884696,0.948694078399986,4.172758562609553
1782811658413299200,3.26329931640625,5.1606666071534155,1.0819155310183763,4.227205899851024
1782811658423370200,3.273370361328125,5.9639826389342545,0.9725881642065942,3.8964863372758027
1782811658433442000,3.283442138671875,6.986767935591936,0.8407784780822694,3.51411929731071
1782811658443514000,3.29351416015625,7.780404869401455,0.7585719040386378,3.1524054615348573
1782811658453586200,3.303586181640625,8.238521562355757,0.6327290173642337,2.844197590497136
1782811658463657200,3.3136572265625,8.36305921165049,0.519341707637161,2.549521401205659
1782811658473729000,3.32372900390625,8.085532310080527,0.639559009514749,2.3601582285180687
1782811658483801000,3.333801025390625,7.686070050668716,0.8714877968616783,2.2659895601324735
1782811658493873200,3.343873046875,7.249332245829701,1.0951952838301657,2.236744322556257
1782811658503944200,3.353944091796875,6.8580620607018465,1.2230983179047703,2.2579845328532158
1782811658514016300,3.364016357421875,6.734240450721979,1.178886397343129,2.274228396167606
1782811658524088000,3.374088134765625,7.316016841092705,1.1628805805683136,2.1596540686130523
1782811658534160100,3.38416015625,8.022455968442559,1.2918661491826176,2.0328652793906627
1782811658544231200,3.394231201171875,8.34491272958517,1.3639083259560167,1.9538382121659814
1782811658554303200,3.40430322265625,7.958776984736323,1.4743392700955271,1.947347827233374
1782811658564375000,3.414375,7.071340654245018,1.5878595585525035,1.8931477427512406
1782811658574447000,3.424447021484375,6.382662809035182,1.6982713596001267,1.5395233976677059
1782811658584518100,3.43451806640625,6.2278007486253975,1.843416912637651,0.98134737085402
1782811658594590200,3.444590087890625,6.041161740204691,2.0985078182548285,0.5280213462423533
1782811658604662300,3.454662353515625,5.096145911926031,2.6992700641244647,0.3896223448555916
1782811658614734000,3.464734130859375,3.5730800203233954,3.5328389030888676,0.7684591648679227
1782811658624805000,3.47480517578125,1.613441159054637,4.173068359211087,1.3071645483404397
1782811658634877200,3.484877197265625,-0.8769026615172624,4.0373032134592535,1.2826314339779317
1782811658644949200,3.49494921875,-3.3495401450067757,3.069609689426422,0.33903321741223336
1782811658655021300,3.505021240234375,-5.259127565905452,1.8841732859179376,-1.128815156294033
1782811658665092400,3.51509228515625,-6.900035408556461,0.560320637626946,-2.271289858497679
1782811658675164200,3.5251640625,-8.449588325068355,-0.6972182945400476,-2.5649904807552693
1782811658685236200,3.535236328125,-9.13043591504395,-1.5535449087575077,-1.9253601595699785
1782811658695307000,3.54530712890625,-9.119742087072133,-1.609744350363314,-1.3800830695569515
1782811658705379000,3.555379150390625,-9.220053642126917,-1.0039049473598598,-2.246014839726686
1782811658715451000,3.565450927734375,-9.72856255171299,-0.8089347484454512,-3.738840783627331
1782811658725523200,3.575523193359375,-10.020618913894891,-1.7681676103860138,-4.287785456237197
1782811658735594000,3.585593994140625,-9.464379700362683,-3.3175837487757205,-3.6682121269136667
1782811658745666000,3.595666015625,-7.791782003462314,-4.465481279745697,-2.617380885466933
1782811658755738000,3.605738037109375,-6.183212834358215,-4.727415183125436,-1.9533755630902945
1782811658765810000,3.615809814453125,-5.6795887742042535,-4.7210535391390325,-1.9308178404539822
1782811658775881000,3.625880859375,-5.992610183003545,-4.565278455537557,-2.361695959479362
1782811658785953000,3.635953125,-7.0153007871150965,-3.515976615615189,-2.5563287431329487
1782811658796025000,3.646025146484375,-7.648472433680295,-2.1719629305660724,-2.468786653280258
1782811658806097200,3.65609716796875,-7.0564248246639965,-1.1531009448319673,-2.231123706195503
1782811658816168200,3.666168212890625,-5.872520745289325,-0.10967413442283869,-1.6933566995516418
1782811658826240000,3.676239990234375,-4.9768923405140635,1.1282552573889493,-1.0304290894091128
1782811658836312000,3.68631201171875,-3.66233125218153,2.1303037632271646,-0.3766292269654572
1782811658846384000,3.696384033203125,-1.741503475344181,2.6486861243128774,0.33172757057398555
1782811658856455200,3.706455078125,0.3648638242393732,2.6034637115344403,0.9672096860386431
1782811658866527000,3.71652685546875,2.1673060446709393,2.007122789238393,1.2219473943039774
1782811658876599000,3.72659912109375,3.5520196966379878,1.2517524577200412,1.0941856683962046
1782811658886670000,3.736670166015625,4.643680961123109,0.7023603336036205,0.8967591623708605
1782811658896742100,3.7467421875,5.255318236750364,0.5328437248975039,0.9425504610784351
1782811658906814200,3.756814208984375,5.493760497644543,0.6731593735605478,1.13011447538957
1782811658916886000,3.766885986328125,5.591813460117578,0.9126122728019952,1.3866763303421437
1782811658926957000,3.77695703125,5.678368292498588,0.9367965737268328,1.596801574420929
1782811658937029000,3.787029052734375,5.728025180593133,0.7214043490305543,1.6095554036624729
1782811658947101200,3.79710107421875,5.901416584905982,0.5485843148648738,1.4719590969607232
1782811658957173000,3.807173095703125,6.237089385974407,0.4507642843648791,1.2752885238692164
1782811658967244000,3.817244140625,6.4337658042848105,0.3705591132715344,1.220489888972044
1782811658977316000,3.827316162109375,6.537073034024238,0.3019341975957155,1.3191368718154728
1782811658987388200,3.83738818359375,6.5090206594944,0.3234112853884697,1.464827929906547
1782811658997460200,3.847460205078125,6.284069163814187,0.4980640879392624,1.603323377405107
1782811659007531300,3.85753125,5.903488130483031,0.7423176654607058,1.5801882932722568
1782811659017603000,3.86760302734375,5.7404532850116485,0.8320242398709058,1.388316060373187
1782811659027675100,3.877675048828125,5.880767180109023,0.8108835444256662,1.201212576245889
1782811659037747200,3.887747314453125,6.141385032454132,0.7277405663147568,1.036348250325024
1782811659047818200,3.897818359375,6.393768140417337,0.6530149956762791,0.9592262860693037
1782811659057890300,3.907890380859375,6.4850745512396095,0.5534335084617138,0.9288125161703675
1782811659067962000,3.917962158203125,6.498282992380857,0.4025266154184937,0.9142933577567338
1782811659078033200,3.928033203125,6.336648076835274,0.13958236595243215,0.9006948213193565
1782811659088105200,3.938105224609375,6.128642455258965,-0.2191980467200279,0.8970314034409821
1782811659098177300,3.94817724609375,5.81852027503252,-0.5858256657615304,0.972963792585954
1782811659108249000,3.9582490234375,5.191939697295427,-0.7351470431789755,1.0702182250924408
1782811659118320000,3.968320068359375,4.33498209169805,-0.6859779386013746,1.153153551802039
1782811659128392200,3.97839208984375,3.2473125271975993,-0.6413005924850702,1.2337890771366655
1782811659138464300,3.98846435546875,1.9317717801779508,-0.968615022791922,1.0472991217978298
1782811659148536300,3.998536376953125,-0.06089490594565868,-1.7138593893542884,0.5313291556160896
1782811659158607000,4.008607177734375,-2.936959460824728,-2.6597525849893686,-0.4869234660480171
1782811659168679200,4.01867919921875,-6.190340494281053,-3.1634397735074162,-1.6445311477147042
1782811659178751200,4.028751220703125,-9.017766982719301,-2.8981352246508,-2.201112160421908
1782811659188823300,4.0388232421875,-10.10779100139141,-2.489197280885279,-1.6146481967568396
1782811659198894000,4.04889404296875,-9.498807455143332,-2.5915517399445176,-0.4590411143228411
1782811659208966100,4.058966064453125,-8.208797455221415,-2.478828154823184,-0.20541085584275423
1782811659219038000,4.069037841796875,-6.67571344295144,-1.49256437035501,-1.7668945217102765
1782811659229109000,4.07910888671875,-6.250277368849516,-0.7695464486479758,-3.1711458178400993
1782811659239181000,4.08918115234375,-8.038844208663702,-0.4637576214507222,-3.562592236317694
1782811659249253000,4.099253173828125,-11.17229888601303,0.03322510099261999,-4.006599447637796
1782811659259325000,4.109324951171875,-14.4374942759037,0.8019020733296871,-4.938924136647581
1782811659269396000,4.11939599609375,-15.92901527468562,1.377256613959372,-5.6445975403219455
1782811659279468000,4.129468017578125,-14.960098930859564,1.297434304703772,-5.858230938652158
1782811659289540000,4.1395400390625,-12.392286086159944,0.5489522713944316,-5.506830407097936
1782811659299612200,4.149612060546875,-8.61054811783135,-0.21174802297502754,-4.420127057281136
1782811659309683200,4.15968310546875,-4.467946793076396,-0.583329172770679,-3.15891002112329
1782811659319755000,4.169755126953125,-1.0997966401457786,-0.8169637411221862,-1.9623539654463529
1782811659329827000,4.1798271484375,1.0351637167155743,-1.0519280967727302,-1.0360587658591567
1782811659339899100,4.189899169921875,2.007611157277226,-0.8823334543943404,-0.3670632339797914
1782811659349970200,4.19997021484375,2.125699776563048,-0.14775953492820262,0.2187092402897775
1782811659360042000,4.2100419921875,1.934120973652601,0.5197185781255365,0.7496124986439943
1782811659370114000,4.220114013671875,1.9149387187987565,0.8299532788157462,1.3625950514003633
1782811659380185000,4.23018505859375,2.103735782036185,0.9958386914126575,2.0452558282777664
1782811659390257200,4.240257080078125,2.3728987598866222,1.1972368775479494,2.717928879626095
1782811659400329200,4.2503291015625,2.70161107429266,1.3584459688968955,3.3223502325251695
1782811659410401000,4.260401123046875,3.1124159809738394,1.4478157125681639,3.7773578535482284
1782811659420471800,4.270471923828125,3.5001451324939725,1.4675820509202777,3.958174731686711
1782811659430544000,4.2805439453125,3.8904911885142326,1.4374511165507138,3.9612648066565392
1782811659440616000,4.290615966796875,4.232117929551005,1.2640557667151093,3.7648438244119284
1782811659450688000,4.30068798828125,4.638853394836187,0.7636335713423789,3.3186244900003072
1782811659460759000,4.310759033203125,5.288861025390029,0.14570084883272647,2.6649606750264763
1782811659470830800,4.320830810546875,5.877071832722425,-0.35508769563436504,2.1188620394974946
1782811659480903000,4.33090283203125,5.951436461094022,-0.6252975521892309,1.7778905474990605
1782811659490975000,4.34097509765625,5.686915756091476,-0.5950039746038616,1.7281059413716195
1782811659501046000,4.3510458984375,5.366403114753961,-0.3776135618276894,1.7891513617038726
1782811659511117800,4.361117919921875,5.307138440358639,-0.11621566502079367,1.959530140197277
1782811659521190000,4.37118994140625,5.550832045909762,0.13943886582851409,2.259571948175132
1782811659531260700,4.3812607421875,5.874360235676169,0.279056156963855,2.6035774010419845
1782811659541332700,4.391332763671875,6.04539893938303,0.2445543140336871,2.825648372849822
1782811659551404800,4.40140478515625,5.919389463970065,0.08978650777861476,2.8234444330647586
1782811659561476900,4.411476806640625,5.4295045908331865,0.04660875257030129,2.6040058555871246
1782811659571547600,4.421547607421875,4.74860380936563,0.11682283713370561,2.272382183779031
1782811659581619700,4.43161962890625,4.200623305612802,0.09416282316669822,1.9319540048770605
1782811659591691800,4.44169189453125,3.940710971188545,0.0018836217895150183,1.6982231365442275
1782811659601762800,4.4517626953125,4.038565780740976,-0.08452508011907339,1.5935808588087559
1782811659611835000,4.4618349609375,4.201197306108474,-0.03096504710614681,1.5844991422086954
1782811659621906700,4.47190673828125,3.763424897524714,0.07050006189793348,1.5946467344745994
1782811659631978800,4.481978759765625,2.241949489983916,-0.08199877651184796,1.3886793407276272
1782811659642049800,4.4920498046875,0.17976795360744,-0.6061024378538131,0.7769615472100675
1782811659652121900,4.502121826171875,-1.888141312766075,-1.1822247479856014,-0.013275807289034127
1782811659662193700,4.512193603515625,-3.503091122817993,-1.4490487614944576,-0.6755059366866946
1782811659672265700,4.522265625,-4.277199764814973,-1.2449524223163724,-1.014184349311888
1782811659682336800,4.532336669921875,-4.297795978119969,-0.8958420475259423,-0.7915325088761747
1782811659692408800,4.542408935546875,-3.6437522239178417,-1.2084911158815026,-0.2399995733387768
1782811659702481000,4.55248095703125,-2.8041771302759644,-2.5824364133358,0.25264146663844583
1782811659712552700,4.562552734375,-3.441303651946783,-4.225890433338284,-0.0710403062544763
1782811659722623700,4.572623779296875,-5.257663338571787,-5.178813673740625,-1.2323619669429957
1782811659732695800,4.58269580078125,-6.397254813489318,-4.773943417805433,-3.1135207273453473
1782811659742767900,4.592767822265625,-6.250022517305612,-3.5845199904873963,-5.186940281572937
1782811659752839000,4.6028388671875,-6.2597431163311,-2.8748057869896293,-6.233199392798543
1782811659762910700,4.61291064453125,-7.149201308038831,-2.5348896492630244,-6.114962304952741
1782811659772982800,4.622982666015625,-8.885864357614517,-2.2145056027412413,-5.542412008088827
1782811659783054800,4.633054931640625,-11.127058060795068,-1.834154871034622,-5.450049366211891
1782811659793126000,4.6431259765625,-12.655918317890167,-1.4110899099782108,-5.817583870965242
1782811659803198000,4.653197998046875,-12.61171209641695,-1.1192463137641548,-5.815220648965239
1782811659813269800,4.663269775390625,-10.27553007903099,-1.3374804838880896,-5.123018136760592
1782811659823341800,4.673341796875,-6.748414522024989,-1.8414128793388604,-3.9184821882456538
1782811659833412900,4.683412841796875,-3.3947055669009685,-2.3095114526033402,-2.5420176014468074
1782811659843485000,4.69348486328125,-0.6780138278543949,-2.556147541347146,-1.3150111701875924
1782811659853557000,4.703556884765625,1.0328215375036,-2.3134414855286476,-0.5758581062376499
1782811659863628000,4.7136279296875,1.1001555365860463,-1.8878218715533612,-0.39610681150406596
1782811659873699800,4.723699951171875,-0.04071721031367779,-1.1005217395499347,-0.2428098084539175
1782811659883772000,4.73377197265625,-1.6605588840603827,-0.03385024715363979,-0.061468029658496376
1782811659893844000,4.743843994140625,-2.4297791694939135,0.9050850921675563,0.31717531360834833
1782811659903915000,4.7539150390625,-2.096703399181366,1.397814541080594,0.9259452171057462
1782811659913986800,4.76398681640625,-1.0142881019473076,1.4241934294402598,1.4910899138882756
1782811659924059000,4.774058837890625,0.5399608634263277,1.1321661472223699,1.8099425130590796
1782811659934131000,4.784130859375,2.1775036135584114,0.5521189187318086,1.791175853268802
1782811659944202000,4.794201904296875,3.8087224213659763,-0.04190700462013483,1.7227981903523206
1782811659954274000,4.804274169921875,5.184729035264254,-0.440078055177629,1.7524246823310852
1782811659964345900,4.814345947265625,6.332058410957456,-0.5310021886840463,1.7716598364159464
1782811659974416600,4.824416748046875,7.174258592405915,-0.3056698769927025,1.869030954104662
1782811659984488700,4.83448876953125,7.395845580089092,0.004189852905273437,2.263257066428661
1782811659994560800,4.844560791015625,7.068899106311798,0.28633842292651535,2.785720267087221
1782811660004632800,4.8546328125,6.387090562349558,0.6838904648028313,3.191618697026372
1782811660014703900,4.864703857421875,5.6101195166587825,1.071760193837434,3.3284397815719244
1782811660024775700,4.874775634765625,4.9762861913144585,1.2926765887826681,3.1255975341081617
1782811660034847700,4.88484765625,4.767029108372331,1.3547390772029757,2.8233950409650803
1782811660044919800,4.894919921875,4.550210650265217,1.2138058811634778,2.4679390965402126
1782811660054990800,4.904990966796875,4.405194861087203,1.0365876120388506,1.9863947662472723
1782811660065062700,4.915062744140625,4.57135280701518,0.922653774344921,1.5894322146967053
1782811660075134700,4.925134765625,4.877575641715526,0.847300134935975,1.2301872532524167
1782811660085205800,4.935205810546875,5.112749840724468,0.7476520122259854,0.9284414178356528
1782811660095277800,4.94527783203125,5.393597995671629,0.7167129763439297,0.8214424939714372
1782811660105350000,4.955349853515625,5.702608999785781,0.8574199624121188,0.9369453345477581
1782811660115421700,4.965421630859375,5.896275130364298,1.1371300532400608,1.2177357679583132
1782811660125492700,4.97549267578125,5.835661379447579,1.4095669381946325,1.4467042441949247
1782811660135564800,4.985564697265625,5.433383478093147,1.4994582215219736,1.6046446891367434
1782811660145636900,4.995636962890625,4.688291671743989,1.2858064107522367,1.5706041801080106
1782811660155708700,5.005708740234375,3.6892929088652133,0.7695528783887624,1.1977017185807228
1782811660165779700,5.01577978515625,2.8253771546930073,0.10458587137311696,0.7257099372699857
1782811660175851800,5.025851806640625,1.739468754646182,-0.5114171982482075,0.38109753148593006
1782811660185923800,5.035923828125,0.047096682217717165,-0.7940615889623761,0.22851802905537186
1782811660195995000,5.045994873046875,-1.7875702299922704,-0.7289815062865614,0.1881885028850287
1782811660206067000,5.05606689453125,-3.6961896826416254,-0.660208414311707,0.18170717804171144
1782811660216138800,5.066138671875,-6.0821945923388,-1.1256573498502374,0.06738090696409345
1782811660226210800,5.0762109375,-8.044075095054506,-2.1950471612945197,-0.4729159834835678
1782811660236281900,5.08628173828125,-8.71285990679264,-3.6654347711548207,-1.2227596605349331
1782811660246354000,5.09635400390625,-8.083465440678596,-5.152733476066589,-1.8044564828634262
1782811660256426000,5.106426025390625,-7.4846496527016155,-6.294104820138216,-2.0855513060480355
1782811660266497000,5.1164970703125,-6.832888456478715,-6.016686055117845,-2.503207393798232
1782811660276568800,5.12656884765625,-6.341178121480345,-5.1804696242541075,-2.547656484116614
1782811660286641000,5.136640869140625,-6.589376637235284,-4.876489015522599,-1.7705061363361776
1782811660296713000,5.146712890625,-7.701587353274226,-4.4782183039829135,-1.157981629545614
1782811660306784000,5.156783935546875,-8.517413907060027,-3.6813846199586986,-1.0760435702450573
1782811660316855800,5.166855712890625,-8.684242884117364,-2.8676287349671123,-1.233175767543912
1782811660326928000,5.176927978515625,-8.59364842095673,-2.3739327791094778,-1.3222533964008092
1782811660337000000,5.187,-7.719481321883201,-2.052683347930014,-1.2546041938893495
1782811660347071000,5.197071044921875,-5.9546852337569,-1.9499834364339708,-1.204090835095942
1782811660357143000,5.20714306640625,-3.757439977896213,-2.025954330958426,-1.2920963046766816
1782811660367214800,5.21721484375,-1.634634753730893,-1.9386770295217632,-1.4477867787346244
1782811660377285600,5.22728564453125,-0.06148293496668338,-1.4734636563047765,-1.5095857939131556
1782811660387357700,5.237357666015625,0.8794552686095237,-0.9410241282939911,-1.535264425048977
1782811660397430000,5.247429931640625,1.3716104247659444,-0.5135729149773717,-1.4752376802399754
1782811660407501800,5.257501708984375,1.1998773090541361,0.1315890291109681,-1.120252129805833
1782811660417572900,5.26757275390625,0.21428981641232966,1.2245002936571836,-0.4001872126854956
1782811660427644700,5.277644775390625,-0.8255711182087659,2.2948408299550414,0.5317831099286675
1782811660437716700,5.287716796875,-1.1178764867156743,2.6892048894450067,1.267055971444398
1782811660447787500,5.29778759765625,-0.3268798382818699,2.327558565947413,1.4687836817950009
1782811660457859600,5.307859619140625,0.8255570896834135,1.520214886085689,1.2881293007418513
1782811660467928600,5.317928466796875,2.0312702652841805,0.7551733476415277,1.106990935564041
1782811660478000600,5.328000732421875,3.1797236765712498,0.1531052798703313,0.9263159501142799
1782811660488071700,5.33807177734375,4.430688783305883,-0.38268385082930323,0.8802037488892674
1782811660498143700,5.348143798828125,5.6368397658020255,-0.4912424252256751,1.1051428234793246
1782811660508215600,5.358215576171875,6.538536092314124,-0.15175941821932792,1.4087879166461525
1782811660518287600,5.36828759765625,6.885637465369701,0.33093291306495665,1.7455162181168793
1782811660528358700,5.378358642578125,6.693435562124848,0.8529840257912874,2.117664061884582
1782811660538430700,5.3884306640625,6.362953899958729,1.3087962411954999,2.439157238692045
1782811660548502800,5.398502685546875,6.049234572023153,1.5861147607117891,2.580024676018953
1782811660558574600,5.40857470703125,5.768011154022813,1.697847581230104,2.477691844269633
1782811660568645600,5.418645751953125,5.483771603071689,1.6665332822948693,2.1902095120050014
1782811660578717700,5.4287177734375,5.405614596679807,1.503489376734197,1.8505644463047384
1782811660588789800,5.438789794921875,5.711726372221112,1.4012155816957355,1.648558941926062
1782811660598860500,5.448860595703125,6.218925952774286,1.427665781725943,1.597408454272896
1782811660608932600,5.4589326171875,6.49600101892352,1.8260194953739641,1.7337053688138722
1782811660619004700,5.469004638671875,6.006464520832896,2.5166797465726733,1.7986698622860013
1782811660629076700,5.47907666015625,5.0091024192452425,3.1289640879318115,1.687590829501301
1782811660639147500,5.4891474609375,4.385457310438156,3.441196976701915,1.4052012903310358
1782811660649219600,5.499219482421875,4.085303566518426,3.3759120191037653,0.876383021557331
1782811660659291400,5.50929150390625,4.122012125712633,3.301846373678744,0.4692907056584954
1782811660669362400,5.519362548828125,4.13721787815094,3.4061057895764706,0.34645737606361504
1782811660679434500,5.5294345703125,3.9068841049104925,3.667411039663851,0.44807234186716377
1782811660689506600,5.539506591796875,3.2053684054374694,3.5491482328549027,0.4758073210109025
1782811660699578600,5.54957861328125,2.5707202565789222,2.8518393374219535,0.18448190345205365
1782811660709649700,5.559649658203125,1.9313246209323405,1.9136404956817625,-0.3883852773413062
1782811660719721500,5.569721435546875,1.2899135538101196,0.726373077353835,-0.9018592619888484
1782811660729793500,5.57979345703125,0.5629477712601423,-0.598418897613883,-0.8708991833187639
1782811660739864600,5.589864501953125,-0.9451520218789576,-1.5331939023852348,-0.24726850489582866
1782811660749936600,5.5999365234375,-2.8949937117546796,-2.151826735988259,0.43564938854780044
1782811660760008400,5.610008544921875,-4.819374797159433,-2.923314966353774,0.7222030251275747
1782811660770080500,5.62008056640625,-6.538258444416522,-3.801999835112691,0.2636123579859733
1782811660780151600,5.630151611328125,-7.673425673151016,-4.666675467741489,-0.5411709698684514
1782811660790223600,5.6402236328125,-7.44254829455316,-5.2974809696972365,-1.045458243171498
1782811660800295700,5.650295654296875,-5.543833565324545,-5.215853656846285,-0.7477326762467622
1782811660810366700,5.66036669921875,-4.3539135866612195,-4.863872110533714,0.362173671839945
1782811660820438500,5.6704384765625,-5.106206702691316,-4.530367301154136,1.4207396357245743
1782811660830510600,5.680510498046875,-6.485401298975944,-4.351631028681993,1.8982547105014322
1782811660840582700,5.690582763671875,-7.576694314670562,-4.50660064111948,1.5025493194051085
1782811660850653700,5.70065380859375,-8.828723835766315,-4.96343255496025,0.2565986432990059
1782811660860727600,5.7107275390625,-10.2309369040668,-5.014806183844804,-1.0301171008504926
1782811660870799600,5.720799560546875,-10.739053599464892,-4.693137650470435,-1.723274575692415
1782811660880870700,5.73087060546875,-9.822704478222132,-4.4779725125283,-2.1267247356966137
1782811660890942500,5.7409423828125,-8.160815222340823,-3.9153345378696915,-2.382225975680351
1782811660901014500,5.7510146484375,-6.768243842610716,-2.975379792372882,-2.5105165477678177
1782811660911086600,5.761086669921875,-5.2647705402284855,-2.284719833435118,-2.462939680817723
1782811660921157600,5.77115771484375,-3.3374797048568725,-2.132494259008765,-2.432853170111775
1782811660931229700,5.781229736328125,-1.3262813367426394,-1.8985718136265872,-2.0169380808100104
1782811660941301500,5.791301513671875,-0.3751297821879387,-0.830778039202094,-1.0001667106796055
1782811660951372500,5.80137255859375,-0.38732583141624927,0.5557593210607766,0.23064444662481545
1782811660961444600,5.811444580078125,1.0929255853325128,2.093288622301817,1.8759945095069706
1782811660971516700,5.8215166015625,0.1591097809821367,3.132275404436886,2.465918112106621
1782811660981588500,5.83158837890625,0.25715105301737784,2.8968472306668756,1.9767296968013046
1782811660991659500,5.841659423828125,1.6709791557878255,1.897218353191018,1.4677607684880494
1782811661001731600,5.851731689453125,3.4396500395208593,0.9468184937864541,1.1372159048926085
1782811661011803600,5.8618037109375,4.6765129711449145,0.6208990249693394,1.0575096232321113
1782811661021874700,5.871874755859375,5.209179585909843,0.6845373844042419,1.1358061842251568
1782811661031946800,5.88194677734375,5.00431460044682,1.1064815247371793,1.1788571712486444
1782811661042018600,5.8920185546875,4.717918163722754,1.5555144552648066,1.3626312917575238
