time,seconds_elapsed,z,y,x
1782661630971714000,0.071714111328125,0.014421324062347411,-0.023201902291364967,0.10712014822424389
1782661630981786000,0.0817861328125,0.005442483314871788,-0.013310769004561006,0.08751439812816679
1782661630991857200,0.091857177734375,-0.0005488660544157028,0.012535071924328803,0.00103259901732672
1782661631001928200,0.10192822265625,0.006185410636663437,0.012484072389453649,-0.02639526867230888
1782661631011999000,0.1119990234375,0.006035773032903671,-0.0012655264237895606,-0.03517653645449318
1782661631022070000,0.122070068359375,0.0025929391026496885,-0.000009279284998774528,-0.01394146812353283
1782661631032141800,0.132141845703125,-0.01087561427950859,0.029532895411178466,-0.03352160428774077
1782661631042212900,0.142212890625,-0.0014513678520917891,0.044319545654579996,-0.00503413997599855
1782661631052284000,0.152283935546875,-0.003846738556027412,0.03304956176262349,0.011073356208158656
1782661631062355000,0.16235498046875,-0.0017500585377216338,0.0033591194358654317,0.017616170014324598
1782661631072426000,0.172426025390625,-0.005642974323034286,-0.047708713168837125,0.02883123168153688
1782661631082496800,0.182496826171875,-0.014919921234250068,-0.06570318301022052,0.038475820028479206
1782661631092569000,0.192569091796875,0.013812836775183676,-0.08022699933266267,0.06806030406299977
1782661631102639900,0.202639892578125,-0.01042377885878086,-0.05036302706990391,0.07314511478031054
1782661631112711000,0.2127109375,0.003645663025975227,-0.026980452715698627,0.068449837670126
1782661631122782000,0.222781982421875,-0.010265957948565482,-0.021229104381054638,0.01749735224051401
1782661631132853000,0.23285302734375,-0.002484218031167984,0.0011621208482421935,0.022661849731067194
1782661631142925000,0.242925048828125,-0.015803133809566498,0.021850761677045374,0.0030980756131932137
1782661631152996000,0.25299609375,0.004244797962903976,0.051033181416429575,0.010093565090303309
1782661631163067100,0.263067138671875,0.005887888994812965,0.04017031702063977,0.014948243146436288
1782661631173138000,0.273137939453125,-0.0035439562171697614,0.026907168283779172,0.03691137915677391
1782661631183209000,0.283208984375,0.014255904367566108,-0.020224018991738556,0.08672586896582506
1782661631193280000,0.293280029296875,-0.0008645078748464583,-0.020119243443012236,0.1315176717746537
1782661631203352000,0.30335205078125,0.0042144028246402735,-0.02882279264675453,0.13787400939827785
1782661631213423000,0.313423095703125,-0.0005862754553556442,-0.03864093376258388,0.14455226331949234
1782661631223494100,0.323494140625,0.010177110621333122,-0.05708208792554214,0.129050359212514
1782661631233565200,0.333565185546875,-0.007643208229541778,-0.048601862616278226,0.09879531440609134
1782661631243636000,0.343635986328125,-0.01872866586744785,-0.03286136398045346,0.046894560941471715
1782661631253707000,0.35370703125,0.004451134189963341,-0.012604757893364876,0.04593639256695751
1782661631263778800,0.36377880859375,-0.00019873744249343872,0.03431618416495621,0.013156423259642907
1782661631273849900,0.373849853515625,-0.006642506754398345,0.04662345694908872,-0.014162896888446993
1782661631283921000,0.3839208984375,0.009357026410102843,0.013995207604765891,-0.03952877228066791
1782661631293992000,0.393991943359375,0.01234042613506317,-0.005421495325770229,-0.06713858154162299
1782661631304063000,0.40406298828125,-0.030012276425957676,-0.014348459755536168,-0.08219847293556667
1782661631314135000,0.414135009765625,-0.004725274956226349,-0.01937626132229343,-0.08875184923494234
1782661631324206000,0.4242060546875,0.016072013878822327,-0.01175444294065237,-0.0680011714540189
1782661631334276900,0.43427685546875,0.0027519290566444393,-0.05441241205856204,-0.014976144933514296
1782661631344348000,0.444347900390625,0.008737433207035064,-0.05090193798588589,-0.01655208901334554
1782661631354419000,0.4544189453125,-0.008320084577798844,-0.06679857703149318,0.018525316181918605
1782661631364490000,0.464489990234375,0.005299275451898574,-0.06158318047076463,0.03817690558056347
1782661631374562000,0.47456201171875,0.00036591070294380185,-0.05485051121488213,0.07715719996588304
1782661631384633000,0.484633056640625,0.024461072039604185,-0.0451178746917285,0.0534516681344714
1782661631394704100,0.4947041015625,-0.012947159856557845,-0.006840002087876201,0.046028436498274095
1782661631404775000,0.50477490234375,0.015035656568408011,-0.0011882599364966154,0.01816306787393987
1782661631414846000,0.514845947265625,-0.013991115951538085,-0.012248418736364692,0.027875643423176368
1782661631424918000,0.52491796875,0.04735796350240707,-0.6619129532072693,0.18041856300327927
1782661631434989000,0.534989013671875,-0.0840951642692089,-1.3694108688950537,0.9157058549031615
1782661631445060000,0.54506005859375,-0.12980126891136168,0.3715662444874644,-0.48550819242261345
1782661631455131100,0.555131103515625,0.42058746502697464,1.0037385778170078,-1.7087952378325164
1782661631465202200,0.5652021484375,-0.22928221836090087,0.5100782777946442,-0.8118327349092811
1782661631475273000,0.57527294921875,0.09474573762118815,0.7395153213910758,-0.7146613045111299
1782661631485344800,0.5853447265625,0.03811374981701374,0.3622450200431049,-0.6770417679518461
1782661631495415800,0.595415771484375,-0.20694880599975585,-0.3916144685208797,0.5718440482906997
1782661631505486800,0.60548681640625,0.09567688099145889,-0.23491627872511744,0.5887286937266588
1782661631515558000,0.615557861328125,-0.18514906212389468,-0.4121520104411989,0.5488368283212185
1782661631525629000,0.62562890625,-0.026389994275569914,0.2829112432231195,1.6167559826910496
1782661631535701000,0.635700927734375,0.38495617967545986,0.022843718237150458,1.1391948037501425
1782661631545772000,0.64577197265625,-0.3536725681394338,-0.44233328675851225,-0.14165984807992354
1782661631555843000,0.655843017578125,-0.033738603472709655,-0.17299124428043142,-0.006373348123929463
1782661631565914000,0.6659140625,0.2909925323426723,-0.25419633139763026,0.2586355742204003
1782661631575985200,0.675985107421875,-0.11557692872583865,0.022284696114901453,0.23218309090156106
1782661631586056000,0.686055908203125,-0.07729074495136737,-0.21349594435459002,0.2331971633149311
1782661631596128000,0.6961279296875,0.02649988439083099,-0.14925655028661713,0.6638759969085455
1782661631606199000,0.706198974609375,-0.18857143778800964,0.27975548260593786,-0.10433228933769277
1782661631616270000,0.71627001953125,0.039546997490525246,0.9472111463658511,-0.12607097807554526
1782661631626341000,0.726341064453125,0.01660509784221649,0.27255671194195746,-0.2756881053028628
1782661631636412200,0.736412109375,0.09722527947723865,0.4762044305697083,0.17215532317925245
1782661631646483200,0.746483154296875,-0.251012988653779,0.04571425141599029,-0.5443612172771245
1782661631656555300,0.75655517578125,0.23149112658202647,-0.4295165483485907,0.4395159643154591
1782661631666626000,0.7666259765625,-0.07692951042354107,-0.48341041642576454,-0.33881241426840425
1782661631676697000,0.776697021484375,0.13654372890889643,-0.23886313492106273,-0.07394387307572178
1782661631686768000,0.78676806640625,-0.07774374941587447,0.0014837540180422364,-0.768752521791309
1782661631696839200,0.796839111328125,0.31611294507384297,-0.21027846187911928,-0.1896919662505388
1782661631706911000,0.806910888671875,-0.17768413307070732,-0.41093755661752074,-0.33899219128210095
1782661631716982000,0.81698193359375,0.11351765810847282,-0.4285023298047483,-0.0775044151015114
1782661631727053000,0.827052978515625,0.0490472317636013,-0.03435081708692014,-0.3450785254584625
1782661631737123800,0.837123779296875,-0.07619067475497722,0.17021560555463655,-0.3581150440989062
1782661631747195000,0.84719482421875,0.1255477031201124,0.21757187029030173,-0.4139549682099372
1782661631757266000,0.857265869140625,0.010817162090539931,0.11171782387858256,-0.2181924316077493
1782661631767338000,0.867337890625,-0.06546528260111809,-0.09941343717128037,-0.1857641983475536
1782661631777409000,0.877408935546875,-0.02547814012765884,-0.011099577494803815,-0.16012209982983766
1782661631787480000,0.88747998046875,0.06359305898845195,0.07702113422974943,-0.1450745701605454
1782661631797551000,0.897551025390625,0.012758359286189078,0.06899754838049411,-0.18840039207004008
1782661631807622100,0.9076220703125,0.002777063497900963,-0.04351938998652622,-0.011776170715270564
1782661631817694200,0.917694091796875,-0.02141220586299896,-0.21332267014691605,0.1165964536324609
1782661631827765000,0.927764892578125,-0.018230068695545196,-0.2679359202735126,0.24921554731037465
1782661631837836000,0.9378359375,-0.01804652882218361,-0.09888641762249172,0.19448345657708122
1782661631847907000,0.947906982421875,-0.34646482871770856,0.12022864525550976,0.2602440323303453
1782661631857978000,0.95797802734375,0.04768178862929344,0.8827562829162925,1.7457083796881139
1782661631868049200,0.968049072265625,0.4866559742182493,0.7196528291881084,1.7384098932430148
1782661631878121200,0.978121337890625,-0.5778928269356489,-0.6242187439765781,-1.194614858481288
1782661631888192300,0.988192138671875,0.0707715723156929,-0.31778774641826746,0.02446845619503874
1782661631898263000,0.998262939453125,0.22460312063395976,-0.4370511816371232,-0.26845687540769575
1782661631908334000,1.008333984375,-0.09532382977008819,-0.23165910356007516,-0.39810989495478566
1782661631918405000,1.018405029296875,0.02948503768146038,-0.007144611057639121,-0.2328068670894019
1782661631928476200,1.02847607421875,0.06332125630974769,-0.013270290863700211,-0.22214270360348745
1782661631938548000,1.0385478515625,-0.24325112248063085,0.0674380439788103,0.029044856165908274
1782661631948619000,1.048618896484375,0.08640344121158122,0.4848853843491524,0.8823755399703979
1782661631958690000,1.05868994140625,0.162835523506999,0.31074834930077194,0.6414098250132054
1782661631968761000,1.068760986328125,-0.29312311463057994,-0.1709661864599213,-0.6402521794106811
1782661631978832100,1.07883203125,0.10774199731647968,0.036765915404632685,0.19307406470319255
1782661631988904000,1.088904052734375,-0.020795535269379616,-0.20865518979253248,-0.32303536474816497
1782661631998975000,1.09897509765625,0.06344926660358906,-0.168002550881356,0.02626371928108856
1782661632009046000,1.1090458984375,-0.02078969005048275,-0.2094790003308095,-0.2668125605330802
1782661632019117000,1.119116943359375,0.0681049834549427,-0.08048972365576773,-0.14010592403565533
1782661632029188000,1.12918798828125,-0.10305997698009013,-0.04737277747904881,-0.21238630261225624
1782661632039259100,1.139259033203125,-0.00009469254612922667,0.27741335819289087,0.5399166224258021
1782661632049331200,1.149331298828125,0.17960019582509992,0.3205756235711276,0.8232446480225771
1782661632059402000,1.159402099609375,-0.09051204557418822,-0.17553955879006533,-0.23484065620563924
1782661632069473000,1.16947314453125,-0.02258651033937931,-0.21932293347502127,-0.19572969377851113
1782661632079544000,1.1795439453125,0.0429559291511774,-0.16666664436878637,-0.14993402942307293
1782661632089615000,1.189614990234375,-0.02078618291914463,-0.12026729676546528,-0.16888174486868082
1782661632099686100,1.19968603515625,-0.0652209524512291,0.1032913015179336,0.10859726243894546
1782661632109758200,1.20975830078125,0.07872223905920982,0.28943421525107693,0.42264925639498974
1782661632119829200,1.219829345703125,-0.005074234524369239,0.11350753857325761,-0.05436846331898123
1782661632129900000,1.229900146484375,-0.03469488128423691,-0.020356321868207305,-0.24962622873680665
1782661632139971000,1.23997119140625,-0.011048048236966132,-0.05792544341450557,-0.17715088471053167
1782661632150042000,1.2500419921875,-0.010747603985667228,-0.01158540651667863,0.04666234135448467
1782661632160114200,1.2601142578125,0.01004910032749176,0.023647234906069934,0.21716226657610385
1782661632170185200,1.270185302734375,0.02006722099483013,-0.04482822582907974,0.13646332974960096
1782661632180256300,1.28025634765625,-0.01674070692062378,-0.13311828450486063,0.018158693092921747
1782661632190327000,1.2903271484375,-0.005063128608465194,-0.13663206477947532,0.0397955243249191
1782661632200398000,1.300398193359375,-0.007303016489744186,-0.07506943390639498,0.10129294904125853
1782661632210469000,1.31046923828125,0.009603694647550582,-0.029842253621295094,0.07386230487264692
1782661632220541000,1.320541015625,-0.007905658558011055,0.007927395465783775,0.003066036507114768
1782661632230612000,1.330612060546875,-0.005513210463523864,0.03151385836163535,-0.017156219785800203
1782661632240683000,1.34068310546875,-0.018231822261214257,0.05905795457577333,-0.027824324227892792
1782661632250754000,1.350754150390625,0.0018184475988149641,0.044988695354107766,-0.006486955433082767
1782661632260825000,1.3608251953125,0.0015156652599573135,0.022690171643253414,-0.006618093832349404
1782661632270896000,1.370896240234375,-0.01584697295129299,0.021197832459956406,-0.029239958612900227
1782661632280968200,1.38096826171875,0.009587912556529044,0.017453184305224568,0.007976477038208394
1782661632291039000,1.3910390625,0.0033066403299570083,-0.005305796524230391,0.06379057258823886
1782661632301110000,1.401110107421875,0.004205634996294975,-0.0506211848157458,0.06725136230029165
1782661632311181000,1.41118115234375,0.0037631519258022306,-0.09122185607766732,0.04945005867714062
1782661632321252000,1.421252197265625,-0.005057867911458016,-0.08160871774833649,0.05257878972350154
1782661632331323100,1.4313232421875,0.010658756658434868,-0.029774850940890607,0.041675451753428204
1782661632341395200,1.441395263671875,0.004679682248830795,0.00023758988184854386,0.061154954254487526
1782661632351466200,1.45146630859375,-0.011480594435334205,0.006369114906806498,0.042823923102230765
1782661632361537000,1.461537109375,-0.008183306455612183,-0.0063138410556130104,-0.006825690434733405
1782661632371608000,1.471608154296875,0.004835165071487427,-0.002118727453332394,-0.03589802369603421
1782661632381679000,1.48167919921875,0.00348433498442173,0.011667878902051598,-0.008188092228583991
1782661632391750100,1.491750244140625,0.003469721937179565,0.02279803419820964,0.027003226236510088
1782661632401822200,1.501822265625,-0.003574351355433464,0.008640311241801828,0.03547216296677943
1782661632411893200,1.511893310546875,-0.007017769807577133,-0.02727196474187076,0.021209659895068032
1782661632421964300,1.52196435546875,-0.0049193362236022945,-0.0430558458616957,0.007544638659316115
1782661632432035000,1.53203515625,-0.009408464336395262,-0.04181726224375888,-0.0050134807804599404
1782661632442106000,1.542106201171875,0.003909866920113563,-0.008696078283339738,0.0236523357728729
1782661632452177200,1.55217724609375,0.010190554624795914,0.006336947936564683,0.030464052481180986
1782661632462249000,1.5622490234375,0.008994622838497161,-0.013787501404527574,0.025291189021081663
1782661632472320000,1.572320068359375,-0.014346505260467528,-0.014018405817262828,0.007406385532673448
1782661632482391000,1.58239111328125,0.005410919132828712,-0.012907138373423367,0.0066838068791665135
1782661632492462000,1.592462158203125,0.015735329270362853,0.012193638075515626,0.022749907040433025
1782661632502533000,1.602533203125,0.007947159612178801,0.006670344609394669,0.03044906497460324
1782661632512605200,1.612605224609375,0.0012046996146440505,-0.03771391857815906,0.051834250399935985
1782661632522676200,1.62267626953125,-0.008371522504091263,-0.052831791803613304,0.06165485290091019
1782661632532747300,1.632747314453125,0.005245499438047409,-0.07015787913044914,0.030693194195092654
1782661632542818300,1.642818359375,0.005992518413066863,-0.07919491633856669,0.02941821952294558
1782661632552889000,1.65288916015625,0.013621698117256163,-0.03273043107716366,0.03309454254866578
1782661632562960100,1.662960205078125,-0.014211480703949928,0.004580624054837972,0.03246088885420467
1782661632573032200,1.6730322265625,-0.01600654742717743,0.01024643126418814,0.019804250076552853
1782661632583103200,1.683103271484375,-0.00478314262330532,0.02337446411298588,0.0009708360598422586
1782661632593174300,1.69317431640625,-0.013167524608969687,0.023057671515084803,-0.03189445517705753
1782661632603245300,1.703245361328125,0.0007464344531297683,0.03998434772817418,-0.04722841427202802
1782661632613316400,1.71331640625,0.00208440505862236,0.05866732955668121,-0.048023706535296515
1782661632623387100,1.72338720703125,-0.025157237610220907,0.02681110576447099,-0.021640269864676518
1782661632633459200,1.733459228515625,-0.009148936617374419,-0.000664820584282279,0.004891475535719655
1782661632643530200,1.7435302734375,-0.014084054931998252,-0.04126094353524968,0.05337851613329257
1782661632653601300,1.753601318359375,-0.003311316505074501,-0.059596792426519093,0.03680019670014735
1782661632663672300,1.76367236328125,0.0037239889591932293,-0.05683483516620472,0.05553876747367903
1782661632673743400,1.773743408203125,-0.007046411380171776,-0.04701030084220692,0.07007774483263492
1782661632683814400,1.783814453125,0.0007347440153360367,-0.05941739900531247,0.05185067637835163
1782661632693885400,1.793885498046875,0.0016378303349018097,-0.031477928531728684,0.009722836648346856
1782661632703957200,1.803957275390625,-0.009431845211982726,-0.0027580848027952015,-0.014683084837649948
1782661632714028000,1.814028076171875,-0.0013519991308450698,0.026436134972237048,0.01214388521623332
1782661632724099000,1.82409912109375,-0.003449263671040535,0.024674952252302318,0.04108677427843213
1782661632734170000,1.834170166015625,0.014202128353714942,-0.00376665905714035,0.023259637527703308
1782661632744241200,1.8442412109375,-0.005553542473912239,-0.0038492593066766856,0.005612739014974795
1782661632754313200,1.854313232421875,-0.00106616792678833,-0.01054914053780958,-0.0017614338816842063
1782661632764384300,1.86438427734375,0.0061129299223423,-0.015116137926094233,0.03858240394180175
1782661632774455300,1.874455322265625,-0.012596446722745895,-0.04493192366557196,0.05288499242872931
1782661632784526000,1.884526123046875,0.03499240292608738,-0.038427108348812904,0.024993128523114135
1782661632794597000,1.89459716796875,-0.01722936722040176,0.005447926674969494,0.04589135698198806
1782661632804668200,1.904668212890625,0.008504793494939803,-0.015368030327931046,0.02265497246570885
1782661632814739200,1.9147392578125,0.013885317489504813,-0.007579093484766781,0.03379539342755451
1782661632824811300,1.924811279296875,0.013432897546887397,-0.021817060336843132,-0.010981832866650073
1782661632834882300,1.93488232421875,-0.011411036330461501,0.010389876589179038,-0.006761123598809354
1782661632844953300,1.944953369140625,-0.006622633010149002,0.017505773008987306,0.026968086424469948
1782661632855024000,1.955024169921875,0.00040273558199405667,0.018063534755911676,0.02173740096306428
1782661632865095200,1.96509521484375,0.003836217162013054,-0.0033878158073872328,0.024132324142428115
1782661632875167200,1.975167236328125,0.03137479695081711,-0.014473255178984254,0.04745247795202304
1782661632885238300,1.98523828125,-0.03596563187241554,-0.03310271672196686,0.022189314015605487
1782661632895309300,1.995309326171875,0.01760638383924961,-0.02726284985365346,-0.0017576527557102962
1782661632905380400,2.00538037109375,0.04962766200006008,0.007350326230190694,-0.07581453491896391
1782661632915451400,2.015451416015625,-0.03686228845119476,0.007559256273135542,-0.08224473236324265
1782661632925522200,2.025522216796875,-0.026087211936712262,0.05179395492216572,-0.03795159065839834
1782661632935594200,2.03559423828125,0.07267886724174022,0.05707085414547473,0.11614148553973064
1782661632945665000,2.0456650390625,-0.03685468966662884,0.018151815827563405,0.06676931897096801
1782661632955736000,2.055736083984375,0.01656768844127655,-0.034110943916440005,-0.004802527743787505
1782661632965807000,2.06580712890625,0.014623568636178969,-0.05090886091701686,0.00678976973798126
1782661632975878100,2.075878173828125,0.017016601252555847,-0.06201402790239081,0.043576517868088555
1782661632985949200,2.08594921875,0.007141103926301002,-0.040709574996493754,0.08104846265022643
1782661632996020200,2.096020263671875,0.02360065581798553,-0.028222269470337777,0.08145018445206806
1782661633006092300,2.10609228515625,-0.02338555176258087,-0.04768504003230482,0.021662417764402926
1782661633016163000,2.1161630859375,0.021059154641628264,-0.034711193098220974,0.004313963342132046
1782661633026234000,2.126234130859375,-0.0007844283759593963,-0.002771273077931255,0.00044936490242835134
1782661633036305200,2.13630517578125,0.003551555001735687,0.01760084914760664,-0.003883298573596403
1782661633046376200,2.146376220703125,0.005194646033644676,0.037624030071310696,0.011473744569439441
1782661633056448300,2.1564482421875,0.012676526221632957,0.016811835928075013,-0.017141602171980776
1782661633066519300,2.166519287109375,-0.002586509361863136,0.02004904601732269,-0.0064963214830495416
1782661633076590300,2.17659033203125,0.006988543713092803,0.008826097871176898,0.004405221822159365
1782661633086661000,2.1866611328125,-0.012768880680203437,-0.008687493118084966,0.018085668955906294
1782661633096732200,2.196732177734375,0.011316928306221961,-0.019895371559262274,0.028714898125757463
1782661633106803200,2.20680322265625,0.0011409867286682129,-0.034386363324336706,0.04203005561106838
1782661633116875300,2.216875244140625,0.013866612789034843,-0.04233306627878919,0.04167129616811871
1782661633126946300,2.2269462890625,0.020607319220900533,-0.0389178510078229,0.047882256804569624
1782661633137017300,2.237017333984375,0.02390402267873287,-0.03501055963728577,0.03402443467676639
1782661633147088400,2.24708837890625,0.0025075989067554474,-0.01627316247411072,0.01422531286648009
1782661633157159200,2.2571591796875,0.011036942321062088,0.00810099846702069,0.013812019357853568
1782661633167230200,2.267230224609375,0.004002221378684044,0.0031242877666838465,0.012247331890976055
1782661633177302000,2.277302001953125,0.004000467813014984,0.008379724076855928,-0.01194935815797653
1782661633187373000,2.287373046875,0.012971709775924682,0.016468630247283726,-0.005654687593714334
1782661633197444000,2.297444091796875,-0.007234627428650856,0.019456450419034807,-0.010215826063370332
1782661633207515100,2.30751513671875,-0.005291676667332649,0.00008435381520539522,-0.0007848393679130822
1782661633217586200,2.317586181640625,0.00443242948949337,-0.005416654753871261,0.0019332102520158514
1782661633227657200,2.3276572265625,-0.011729016238451004,-0.010874408703111111,-0.0010579161216737701
1782661633237729300,2.337729248046875,0.01490939984023571,-0.015647303927037864,0.028666597438044845
1782661633247800000,2.347800048828125,-0.0008007949888706207,-0.02094475274803117,0.02037759298509918
1782661633257871000,2.35787109375,-0.016359598648548124,-0.01623622799720615,0.030043525514169594
1782661633267942100,2.367942138671875,0.0010036240845918655,-0.01757445433102548,0.032801363721792584
1782661633278013200,2.37801318359375,0.010587444987893104,-0.009990757736377417,0.006133758081239647
1782661633288084200,2.388084228515625,0.013282675421237945,0.006830850667040794,0.022744344949326478
1782661633298156300,2.39815625,-0.009764438167214394,0.013486600495502352,0.016357388425152747
1782661633308227300,2.408227294921875,-0.00452829107940197,0.008409169367048889,0.003275441474094987
1782661633318298000,2.418298095703125,0.0020586860954761505,0.07728864432582631,-0.047891490423795764
1782661633328369200,2.428369140625,0.014482114338874816,-0.00996593382237479,-0.01894034498990513
1782661633338440200,2.438440185546875,0.011042787539958953,0.0005887048744596541,-0.0000386515099555254
1782661633348511200,2.44851123046875,-0.013950199419260024,-0.024929310605861246,0.004683906332799233
1782661633358583300,2.458583251953125,-0.0075146134138107295,-0.0013611688179895282,0.041678054702468215
1782661633368654300,2.468654296875,0.01972176855802536,-0.0535271171240136,0.039751936344942077
1782661633378725400,2.478725341796875,-0.014843348866701125,-0.058950366015452886,0.06518635606188326
1782661633388796200,2.488796142578125,0.014935703325271606,-0.06576408288460224,0.06579443235709331
1782661633398867200,2.4988671875,0.0007183774024248123,-0.05603873461876064,0.049057232567807654
1782661633408938200,2.508938232421875,0.023308979395031928,-0.01905181514089927,0.056389201157400384
1782661633419010000,2.519010009765625,0.00027004911303520204,0.0589892549874261,-0.006248954559280537
1782661633429081000,2.5290810546875,0.0029606033712625502,0.0493432738344185,0.00858590047371108
1782661633439152000,2.539152099609375,0.01238660336434841,-0.04656423757513985,0.04737558135748841
1782661633449223200,2.54922314453125,-0.000633037206530571,-0.06793070460027083,0.008221492174686864
1782661633459294200,2.559294189453125,-0.020834698235988616,0.00279324744772166,-0.028347311488958075
1782661633469365000,2.569364990234375,0.024353520011901855,0.003347063671890646,0.06339554538866504
1782661633479437000,2.57943701171875,0.005046177473664284,0.007681256951298564,0.07133407416981645
1782661633489508000,2.589508056640625,0.0026508067697286605,-0.01667577019194141,0.061868276455882
1782661633499579100,2.5995791015625,-0.017096096229553222,-0.033080925015266986,-0.01770535070169717
1782661633509650000,2.60964990234375,-0.0034779052436351775,0.0009460852110758423,-0.030841575990105046
1782661633519720700,2.619720703125,0.005795534536242485,0.06296153788557275,-0.03327630602347199
1782661633529791700,2.629791748046875,0.017014847686886787,0.05934979539550841,0.010396498126210645
1782661633539862800,2.63986279296875,-0.004981880065798759,0.015044004271645098,0.035209456909983415
1782661633549934800,2.649934814453125,-0.0033376199901103973,-0.03595118322195485,0.04627341966871172
1782661633560006000,2.660005859375,-0.0043850832164287566,-0.028908169375266878,0.011786221751826814
1782661633570077000,2.670076904296875,0.0066857613742351526,-0.033733982096519316,0.022564394405693747
1782661633580148000,2.68014794921875,0.005934650745987892,-0.020919600040465593,0.030825602102838454
1782661633590218800,2.69021875,0.005785013142228126,-0.05339053993122652,0.049276930599939074
1782661633600290800,2.700290771484375,-0.005283493360877037,-0.03573476399229839,0.03841651388956233
1782661633610361900,2.71036181640625,-0.0015390461355447769,-0.01693630255796015,0.02197246552768629
1782661633620433000,2.720432861328125,0.005792611926794052,0.011516378134768456,-0.010452119037276133
1782661633630504000,2.73050390625,-0.010821253743767738,0.027568573068268595,-0.017817999029625206
1782661633640575000,2.740574951171875,-0.0042418753534555435,0.03090845808070153,-0.014559056599182076
1782661633650646000,2.75064599609375,-0.006938859352469444,0.019094667901936917,-0.004332001322321593
1782661633660716800,2.760716796875,-0.00409691392481327,-0.002372720480710268,-0.007374058732227422
1782661633670788900,2.770788818359375,0.014600772282481193,-0.004070299912523478,-0.002981714657950215
1782661633680860000,2.78085986328125,0.01983458128273487,-0.024072949504852295,0.00019789719227701424
1782661633690931000,2.790930908203125,0.005765723919868469,-0.04006428109658882,0.017701692873309364
1782661633701002000,2.801001953125,-0.00904781433045864,-0.0369705711312592,0.05226647237131837
1782661633711073000,2.811072998046875,0.008610591956973076,-0.007917823919840156,0.09541854058252647
1782661633721144000,2.82114404296875,0.0059200376987457275,-0.045518893240671605,0.05476904804308433
1782661633731216000,2.8312158203125,-0.0014116203635931015,-0.032716877475846555,0.03258430060474202
1782661633741287000,2.841286865234375,0.021183657804131506,-0.0016183584494516253,0.021017151263961566
1782661633751357700,2.851357666015625,-0.004257072922587394,-0.016365809193626044,0.00968933167096693
1782661633761428700,2.8614287109375,0.004121463844180107,-0.003116049661301076,-0.010477267178264447
1782661633771499800,2.871499755859375,0.0035158991664648053,0.03659127122377977,-0.02832881685104221
1782661633781570800,2.88157080078125,0.01578209102153778,0.052620450607873494,-0.045797454453725364
1782661633791643000,2.891642822265625,0.02551438048481941,0.039032271167729046,-0.0203455082132481
1782661633801714000,2.9017138671875,-0.0033685996502637863,0.008864402321260421,0.002695728190266527
1782661633811785000,2.911784912109375,-0.025816578301787376,-0.01101076670018956,0.01610497086693067
1782661633821855700,2.921855712890625,-0.004866729253530502,-0.025067951891571284,0.0017109366703080013
1782661633831926800,2.9319267578125,0.004557517173886299,-0.014266571892052889,0.0260859424282331
1782661633841997800,2.941997802734375,-0.0015776245802640915,-0.010544373031146824,0.03623191355920862
1782661633852070000,2.95206982421875,0.011145078870654105,0.00041276378566399216,0.054298060397314836
1782661633862141000,2.962140869140625,0.009050152418017387,-0.03788827049806714,0.05735844348177779
1782661633872212000,2.9722119140625,0.006955810487270355,-0.043519828377943486,0.02274307087427005
1782661633882283000,2.982282958984375,0.016082535272836686,-0.024815548033080993,-0.014053349266480653
1782661633892353800,2.992353759765625,0.0006669394761323928,0.018095519063062965,0.004409112545987591
1782661633902424800,3.0024248046875,-0.007117138528823852,0.046843438109010455,0.014067185995588078
1782661633912497000,3.012496826171875,0.004852700728178024,0.03982594229606911,0.023787442527781238
1782661633922568000,3.02256787109375,-0.002781155151128769,0.014827676373533903,0.012189053231943399
1782661633932639000,3.032638916015625,0.00021685762107372282,-0.011830010661203413,-0.00562102735270746
1782661633942710000,3.0427099609375,0.009345335972309111,-0.00431746134031564,-0.02168542874723207
1782661633952781000,3.052781005859375,0.009793079739809035,-0.012010262598935515,0.0006367361341137438
1782661633962851800,3.062851806640625,0.012335749959945679,-0.002700125804170966,0.0313663031171076
1782661633972923600,3.072923583984375,0.008298457267880439,-0.004453508810140192,0.04373218792041298
1782661633982994700,3.08299462890625,-0.0068108490586280815,-0.012749883718788622,0.026061648237193
1782661633993065700,3.093065673828125,-0.0005213935256004333,-0.029118231929372993,0.011201690728985704
1782661634003136800,3.10313671875,-0.001720247921347618,0.016615911497175694,-0.0017280293690040706
1782661634013207800,3.113207763671875,-0.007110124266147613,0.05625993962138891,0.007457216104189865
1782661634023278800,3.12327880859375,0.00530862780213356,0.060722672917600716,-0.01992019090668764
1782661634033350000,3.133349853515625,0.03658405603170395,0.014718169850762932,-0.06416574887644964
1782661634043422000,3.143421875,-0.03493453525900841,-0.04315205451147631,-0.06874503035757225
1782661634053492700,3.15349267578125,-0.005903671085834503,-0.03833420590097084,0.03852092867868487
1782661634063563800,3.163563720703125,0.02477145316302776,-0.014325937396474182,0.034362923083244824
1782661634073634800,3.173634765625,0.026712065836787223,0.03739816715987399,0.02034207871372346
1782661634083705900,3.183705810546875,-0.0003705868780612945,0.07882719727102666,-0.02728529001432471
1782661634093777000,3.19377685546875,0.031209377256035804,0.03209322915216908,0.07644255345708224
1782661634103849000,3.203848876953125,0.03660276073217392,-0.02497106738835573,0.10378781633060424
1782661634113920000,3.213919921875,0.01461480080783367,-0.035073340941499914,0.11869022017447277
1782661634123990800,3.22399072265625,0.008639818051457405,-0.1312856805165298,0.1415859791261144
1782661634134061800,3.234061767578125,0.038410102415084836,-0.2745631563935429,0.15595102469027042
1782661634144132900,3.2441328125,-0.05316928012967109,-0.12094618240771815,-0.13934465733957477
1782661634154204000,3.254203857421875,0.015510872864723205,0.1855199047302827,-0.17386099458597598
1782661634164276000,3.26427587890625,-0.04688099364042282,0.20483197824256494,-0.12756108876913785
1782661634174347000,3.274346923828125,0.12759879043102262,0.12836824043355882,0.32445619133152065
1782661634184418000,3.28441796875,-0.09551613747179508,-0.1251452963316813,-0.04379676845606882
1782661634194488800,3.29448876953125,0.04604045116305351,-0.10416762769473716,-0.10641787257324904
1782661634204560000,3.304559814453125,-0.037604631251096726,0.027269717985857277,-0.24637915484067052
1782661634214631000,3.314630859375,0.048586043992638585,0.11666801189817487,0.241007124679815
1782661634224702700,3.32470263671875,-0.02279693821966648,0.013010160356480628,0.21786500801797956
1782661634234773800,3.334773681640625,0.06369184318780899,-0.12186315112216398,0.17484348455099388
1782661634244844800,3.3448447265625,-0.0902864201247692,-0.1790973791358061,-0.20685378466006368
1782661634254915800,3.354915771484375,0.037062194937467575,-0.015896766909770668,-0.05900596409363206
1782661634264987000,3.36498681640625,0.006836568021774292,0.1098213608738035,0.1221086685821414
1782661634275058000,3.375057861328125,0.04020750722587108,0.0722578470843844,0.25199494889583435
1782661634285129700,3.385129638671875,-0.010821838265657423,-0.05351056784801185,0.020752865171432495
1782661634295200800,3.39520068359375,0.0035439562171697614,-0.09430393040413036,-0.12177539064032025
1782661634305271800,3.405271728515625,-0.03461597082912922,-0.0032782910183072086,-0.05688647402189672
1782661634315342800,3.4153427734375,-0.03312193287909031,-0.013475805106852203,-0.02436551641037222
1782661634325414000,3.425413818359375,0.05710895766615867,-0.003036737347394228,0.010998409542115405
1782661634335485000,3.43548486328125,-0.029237784922122954,0.04489416720476001,-0.14186675056256354
1782661634345555700,3.4455556640625,-0.06980243502259253,0.14374785160142928,-0.31030148231610655
1782661634355627800,3.455627685546875,-0.017728548914194106,0.21895636518495157,-0.1029017907436937
1782661634365698800,3.46569873046875,0.07445113761126995,0.08403190804095938,0.12747014081636443
1782661634375769900,3.475769775390625,0.02836217113137245,-0.006574519552104175,0.20362377149658276
1782661634385841000,3.4858408203125,0.009513093754649161,-0.13228166928393764,0.21993560374695806
1782661634395912000,3.495911865234375,0.053064650711417194,-0.20226994573483242,0.2322420180145651
1782661634405983000,3.50598291015625,-0.016662965509295462,-0.2493475396595895,0.10707930475720204
1782661634416055000,3.516054931640625,0.04274959292411804,-0.15809457605760543,0.3044644101930782
1782661634426125800,3.526125732421875,0.06759469584524631,-0.13452711012316868,0.2444425790212117
1782661634436196900,3.53619677734375,-0.020994272711873055,-0.12230625524716451,0.1404231641581282
1782661634446268000,3.546267822265625,-0.05826163483262062,-0.3053763008736074,0.03841841815228108
1782661634456339000,3.5563388671875,-0.029244214662909506,-0.009692121849674731,0.013891500635119155
1782661634466410000,3.566409912109375,0.04795476035177707,0.29698777243578806,-0.2119703970214352
1782661634476481800,3.576481689453125,-0.06487959166765213,0.26172226992305364,-0.2964066115469672
1782661634486552800,3.586552734375,0.04031272116601467,0.1775555199886672,0.08443640632177703
1782661634496623900,3.596623779296875,-0.01055588080585003,0.0732367020539008,-0.1877337996537797
1782661634506695000,3.60669482421875,-0.06009703356623649,-0.03319413959877565,0.10477454407932237
1782661634516765700,3.616765625,-0.012665420305728911,0.050866684009414166,-0.09754305845582857
1782661634526836700,3.626836669921875,0.06274082607328892,0.11384153803428634,-0.003532398210116662
1782661634536908500,3.636908447265625,-0.04380173232555389,0.15815953105259686,-0.2887550556141883
1782661634546979600,3.6469794921875,0.03626198447048664,0.038721871777996415,0.03055792304340284
1782661634557050600,3.657050537109375,0.015323825860023498,-0.16111520252041517,0.024502184934704564
1782661634567121700,3.66712158203125,-0.015200491741299628,-0.17963554113311692,0.14596225798157975
1782661634577192700,3.677192626953125,0.010237900897860527,-0.09242653742600232,0.020806979112001134
1782661634587263700,3.687263671875,0.035677462580800054,-0.017852010897081345,0.051637892144196666
1782661634597335800,3.697335693359375,0.04241816901266575,0.010768025719188152,0.07047397760860621
1782661634607406600,3.707406494140625,-0.06621931583881378,-0.04404098444152623,0.08322075605485588
1782661634617477600,3.7174775390625,0.028650340422987936,-0.06330015872279182,0.051686402894463385
1782661634627548700,3.727548583984375,-0.00696516283750534,0.06411803271062672,-0.08467961309365928
1782661634637619700,3.73761962890625,0.0033493104279041287,0.13794800621625036,-0.19272294971058143
1782661634647690800,3.747690673828125,0.005437807139754295,0.05266142193907872,-0.15144014140339568
1782661634657762800,3.7577626953125,0.02280395248234272,0.03993546708514914,-0.06178052967377007
1782661634667833900,3.767833740234375,0.020569325298070908,-0.06946027052141726,-0.04145457554436289
1782661634677904600,3.777904541015625,-0.0014162965387105942,-0.11365250000189989,0.07920952938580884
1782661634687975700,3.7879755859375,0.024492051699757576,-0.1273224211750552,0.17618989419126882
1782661634698046700,3.798046630859375,-0.019637597405910492,-0.1588217030220665,0.2870180392211303
1782661634708117800,3.80811767578125,-0.003036591216921806,-0.11669740238944068,0.5361868613129481
1782661634718188800,3.818188720703125,-0.003950783452391624,-0.14361812427453696,0.46818069858998057
1782661634728260900,3.8282607421875,-0.04123100505471229,0.006417374495323747,0.11479827250353991
1782661634738332000,3.838331787109375,-0.008932078996300696,0.252932996930927,0.010707906729518435
1782661634748402700,3.848402587890625,0.031899113085865974,0.2408451025185175,-0.06454287052657455
1782661634758473700,3.8584736328125,-0.003729834178090095,0.1297167141667567,-0.009642414656165055
1782661634768544800,3.868544677734375,-0.042805122503638264,0.06173007812816649,-0.03395738362281117
1782661634778615800,3.87861572265625,0.013286182552576064,0.09591684549348428,-0.024502920153643935
1782661634788687600,3.8886875,-0.014113281026482582,0.09537632714230566,-0.039288757546292616
1782661634798758700,3.898758544921875,0.035094109734892846,0.042506066491827366,0.053038771918066774
1782661634808829700,3.90882958984375,-0.03390928386449814,0.0008223674998618662,0.07886577571574598
1782661634818900700,3.918900634765625,0.004829319852590561,-0.031489527637977154,0.11012630777028388
1782661634828971500,3.928971435546875,0.0076543141454458235,-0.013785236382205038,0.02446114967141766
1782661634839042600,3.93904248046875,0.023202011889219283,-0.036539139177743346,0.010598089679493569
1782661634849114600,3.949114501953125,0.005685644420981407,-0.0562285033035092,-0.10044784911978058
1782661634859185700,3.959185546875,0.002389525485038757,-0.08128620779570192,-0.1247268791233655
1782661634869256700,3.969256591796875,0.013014379873871803,-0.08968485576873644,-0.18565323052005842
1782661634879327700,3.97932763671875,0.01975391726195812,-0.09307300036968663,-0.1868155522977002
1782661634889398800,3.989398681640625,0.022757190731167793,-0.1060277224781923,-0.2328181922010146
1782661634899469600,3.999469482421875,0.014239537754654884,-0.0869926027437672,-0.2195273882722482
1782661634909541600,4.009541748046875,0.035353637453913685,-0.06349169923951849,-0.22620427222028372
1782661634919612700,4.01961279296875,0.004245967006683349,-0.0475282785680145,-0.1732996891750954
1782661634929683700,4.02968359375,0.01743336535990238,-0.03459764972114935,-0.1047530720330309
1782661634939754800,4.039754638671875,0.007426350608468055,-0.04511166414665058,-0.07849705200120806
1782661634949825800,4.04982568359375,0.006553074905276298,-0.02848457366833463,-0.0143269146440085
1782661634959896800,4.059896728515625,0.014951485416293143,-0.031839071728009725,0.03300246665130835
1782661634969969000,4.069968994140625,0.01720773991048336,-0.015370459747035055,0.12173109484086744
1782661634980039700,4.080039794921875,-0.036947044125199315,0.03101001875903457,0.2895888943561353
1782661634990110700,4.09011083984375,-0.0070101710230112075,0.05326539744790643,0.31096959083601833
1782661635000181800,4.100181640625,0.0027168577432632444,0.062135772852227086,0.30537257454656064
1782661635010252800,4.110252685546875,-0.05295008442103862,0.08613129147300497,0.28502545889811587
1782661635020323800,4.12032373046875,-0.0010334347009658812,0.09030075917737558,0.24666330554429441
1782661635030395000,4.130394775390625,-0.02513794838786125,0.07157437659855932,0.18188834329489617
1782661635040466700,4.140466796875,-0.0034556934118270873,0.04874629432195797,0.10748378477171062
1782661635050537700,4.150537841796875,-0.006314005452394485,0.045800011736992746,0.039837929561384954
1782661635060608500,4.1606083984375,-0.0051315176695585244,0.03226971823023632,-0.04954566453872248
1782661635070679600,4.170679443359375,0.004129062628746033,-0.004768091184645891,-0.10564301574323326
1782661635080750600,4.18075048828125,0.013400748842954635,-0.050872492695692925,-0.13890253959526308
1782661635090821600,4.190821533203125,0.01908522422015667,-0.050838225099910046,-0.15538674187101423
1782661635100893700,4.200893798828125,0.014448796591162681,-0.06701764487596229,-0.15717395408134907
1782661635110964700,4.21096484375,0.003381459131836891,-0.07662568690506741,-0.17330350683368742
1782661635121035800,4.221035888671875,0.012671850046515463,-0.07059678200436756,-0.1611163167652674
1782661635131106600,4.2311064453125,0.016575287225842474,-0.06665182550456375,-0.136734712303197
1782661635141177600,4.241177490234375,0.010308043524622917,-0.05154144146582111,-0.10161344969989732
1782661635151248600,4.25124853515625,0.014515432086586951,-0.03250321645885706,-0.07829653359358199
1782661635161320700,4.26132080078125,-0.00013210194706916807,-0.012162165225017816,-0.045415505931433287
1782661635171391700,4.271391845703125,0.0031739538609981536,-0.006675587040092796,-0.014301871534297243
1782661635181462800,4.281462890625,-0.008187982630729675,0.013060831097792833,0.006087019162951037
1782661635191533800,4.291533935546875,0.007529226461052894,0.018644038057606668,0.023674716568039728
1782661635201604600,4.3016044921875,0.00887654941678047,0.021628716424200684,0.06046650163286831
1782661635211675600,4.311675537109375,-0.0044528877556324,0.014839366811327635,0.11805828807963989
1782661635221747700,4.321747802734375,0.011090718334913253,0.002651756617799401,0.13127602677219546
1782661635231818800,4.33181884765625,-0.012121814948320387,0.022020291291363535,0.12193859097855164
1782661635241889800,4.341889892578125,-0.00315057298541069,0.02332680731266737,0.13656889988277107
1782661635251960800,4.3519609375,-0.03306640329957008,0.051444155103806406,0.15632190382927655
1782661635262032000,4.362031982421875,-0.028714053308963775,0.09355391575442626,0.15518552021048962
1782661635272102700,4.3721025390625,-0.016737784311175345,0.08582812554165721,0.14407534825643523
1782661635282173700,4.382173583984375,-0.01224982524216175,0.06339879679167643,0.17545452912142498
1782661635292245500,4.39224560546875,-0.014199790266156196,0.022697953090909866,0.15846249605454504
1782661635302316500,4.402316650390625,-0.00807750799357891,-0.013626118564046918,0.15539034033389762
1782661635312387600,4.4123876953125,0.008515314888954162,-0.04109886657502502,0.1516323212409392
1782661635322458600,4.422458740234375,-0.0070697922557592385,-0.06331400458505376,0.1301291674251668
1782661635332529700,4.43252978515625,0.008313654837012291,-0.060086439106985925,0.09131105959792621
1782661635342600700,4.4426005859375,0.009485621225833893,-0.06242554957903921,0.06068090700195171
1782661635352672800,4.4526728515625,-0.01792319470345974,-0.06564948006160556,0.027268626573891376
1782661635362743600,4.46274365234375,-0.010913608202338217,-0.04962656602151692,-0.027911349490797144
1782661635372814600,4.472814697265625,0.015104045629501342,-0.043647473345603795,-0.05537143894960172
1782661635382885600,4.4828857421875,0.018680735072493553,-0.02382902121376246,-0.08294317208933644
1782661635392956700,4.492956787109375,0.00789630620777607,-0.03820787610756233,-0.10346442046198062
1782661635403027700,4.50302783203125,0.012374328404664993,-0.017523874921258537,-0.1335376972270198
1782661635413098800,4.5130986328125,0.011019991186261176,-0.018213373289071022,-0.1515572923765052
1782661635423170800,4.5231708984375,0.005931143614649772,-0.018049725426267833,-0.17450161231076344
1782661635433241600,4.53324169921875,0.008174538627266883,-0.01585736648114398,-0.17323361993525177
1782661635443312600,4.543312744140625,0.018798808494210242,-0.03819209401654079,-0.1669700842947699
1782661635453383700,4.5533837890625,0.008183306455612183,-0.04367275391733274,-0.15259354922221974
1782661635463454700,4.563454833984375,0.010887889239192008,-0.050935767190251495,-0.12972348183426075
1782661635473525800,4.57352587890625,0.011800912430882453,-0.052270139332860704,-0.0971773304159753
1782661635483597800,4.583597900390625,-0.0014998831689357758,-0.028033085307478903,-0.06383894177461043
1782661635493668900,4.5936689453125,0.008846154278516769,-0.018902816857956348,-0.031241320463991723
1782661635503739600,4.60373974609375,0.007522796720266341,-0.0037182898707687853,-0.005306833137269131
1782661635513810400,4.613810546875,0.00006137479841709136,0.029698205508105455,0.01093314858644735
1782661635523881500,4.623881591796875,0.006367781466245651,0.04193102481653914,0.03449916691589169
1782661635533952500,4.633952392578125,-0.0189051914781332,0.04448101982660591,0.10633793920483439
1782661635544024600,4.644024658203125,-0.0010837035834789276,0.052305155847314745,0.11960106967538595
1782661635554095600,4.654095703125,-0.014391513445973395,0.05878138439040631,0.14183961596046574
1782661635564166700,4.664166748046875,-0.010791443127393722,0.03263290725313127,0.15724321992527693
1782661635574237400,4.674237548828125,0.001785129851102829,0.022854842419363558,0.16817770651886238
1782661635584308500,4.68430859375,-0.005989595803618431,0.0049809119514189655,0.1614003030721098
1782661635594379500,4.694379638671875,-0.002696399477124214,0.003709741238132119,0.15592015462797135
1782661635604450600,4.704450439453125,-0.003444587495923042,0.006043225686997175,0.15744794871713966
1782661635614522400,4.7145224609375,-0.01556815600991249,-0.005563662009127438,0.1378850513821002
1782661635624593400,4.724593505859375,0.005077157133817673,0.006039718555659056,0.13616840192363597
1782661635634664400,4.73466455078125,-0.021418051081895827,-0.0014658713014796376,0.11394329964201896
1782661635644735500,4.744735595703125,0.009846271231770514,-0.0017685623087920247,0.09681626028493046
1782661635654806300,4.75480615234375,0.013426467806100845,-0.0041434016813524065,0.07811099355937913
1782661635664877300,4.764877197265625,-0.00528816953599453,-0.0013480536080896853,0.05078058576169423
1782661635674949400,4.774949462890625,-0.009787819042801857,0.006103467974252998,0.050501974316290575
1782661635685020400,4.7850205078125,-0.002613397368788719,0.001482036984991282,0.028541998377419074
1782661635695091500,4.795091552734375,-0.0021779285609722135,-0.010917955583892762,-0.0011604494809638708
1782661635705162500,4.80516259765625,-0.004879004213213921,-0.012282777663692832,-0.026130430023930964
1782661635715233500,4.815233642578125,0.009330722925066948,-0.011303703498467802,-0.029227720185834912
1782661635725304300,4.82530419921875,0.013067571365833282,-0.0036278716409578918,-0.030599163802666588
1782661635735375400,4.835375244140625,0.01919920598864555,-0.007518723333347588,-0.05045835437027271
1782661635745447400,4.845447509765625,-0.0028039515048265454,-0.032673513258155436,-0.04716326748079154
1782661635755518500,4.8555185546875,0.008564414727687835,-0.014786321449838578,-0.03654854632690549
1782661635765589500,4.865589599609375,0.004968436062335968,-0.021004775839578358,-0.03851366325425915
1782661635775660500,4.87566064453125,0.002425181320309639,-0.01343399352543056,-0.03351095046298578
1782661635785731600,4.885731689453125,0.014848025041818617,-0.017151753673236816,-0.043965005729021504
1782661635795802400,4.89580224609375,0.0039233109235763544,-0.015024294924177228,-0.03464184505590238
1782661635805874400,4.90587451171875,0.015747604230046272,-0.015455562480911612,-0.03318678740938194
1782661635815945500,4.915945556640625,0.01664601437449455,-0.027763474585860967,-0.03617006840333342
1782661635826016500,4.9260166015625,0.0069195701301097865,-0.021016027885954826,-0.04587409988651052
1782661635836087600,4.936087646484375,0.012900982627272605,-0.014029036809131503,-0.029959696855349466
1782661635846158600,4.94615869140625,0.007336334237456321,-0.008095774302631616,-0.012086542705539613
1782661635856229600,4.956229736328125,-0.0067477206945419305,-0.0010348960056900977,0.01376465025190264
1782661635866300400,4.966300537109375,0.001765256106853485,0.006742350399680435,0.004709511131513864
1782661635876372500,4.97637255859375,-0.003771335232257843,0.01188027954371646,0.023627242430811747
1782661635886443300,4.986443359375,-0.01918459294140339,0.04123772705644369,0.023161561147822064
1782661635896514300,4.996514404296875,-0.004521276816725731,0.03457521869363263,0.014133045172877608
1782661635906585300,5.00658544921875,-0.013646832558512687,0.030577088968176392,0.04090945408330299
1782661635916656400,5.016656494140625,-0.010054945546388626,0.01033473060214892,0.05092888079173863
1782661635926727400,5.0267275390625,0.0076028762191534035,-0.005529595342744141,0.0631431232638657
1782661635936798500,5.036798583984375,0.015386369702219961,-0.014848920090962201,0.06776567763113417
1782661635946870500,5.04687060546875,-0.002266191366314888,-0.0323843575858511,0.08486713502239436
1782661635956941300,5.05694140625,-0.003312485548853874,-0.024028343178145586,0.06818256046948953
1782661635967012400,5.067012451171875,0.00836509276330471,-0.023708189579378813,0.06728730126335285
1782661635977083400,5.07708349609375,-0.007943652480840682,-0.021102902451809496,0.06027323038335889
1782661635987154400,5.087154541015625,0.00492518144249916,-0.011531173845101148,0.06736520707146264
1782661635997225500,5.0972255859375,-0.00031038112342357635,-0.021901395885739475,0.07305008430746383
1782661636007297500,5.107297607421875,0.0017874679386615752,0.007585815486498177,0.03994797950685024
1782661636017368600,5.11736865234375,0.014354104045033454,0.005125982977915555,0.02892291028667241
1782661636027439400,5.127439453125,0.0007312368839979171,0.013291498048510401,0.030531085268827154
1782661636037510400,5.137510498046875,-0.01243979485630989,0.006507135138008743,0.035753066833969206
1782661636047581400,5.14758154296875,0.0017740239351987839,-0.027903211850114164,0.03565396297420375
1782661636057652500,5.157652587890625,0.0013227730363607406,-0.0030996647820807992,0.015277283304557203
1782661636067723500,5.1677236328125,0.005812485671043395,-0.0049126324881799514,0.017842192755965516
1782661636077795600,5.177795654296875,-0.002269113975763321,-0.015202701964695005,-0.0023978914545848963
1782661636087866600,5.18786669921875,0.0005751695394515991,-0.011630104174930602,0.008864310989715159
1782661636097937400,5.1979375,0.02092471460700035,0.007123239476047456,-0.005597756074974313
1782661636108008400,5.208008544921875,-0.004959668233990669,-0.0025788923109881577,-0.007873135394742712
1782661636118079500,5.21807958984375,0.004018003469705582,-0.012111348353233188,0.0023860685860505326
1782661636128150500,5.228150634765625,0.001772270369529724,-0.011379179887473582,-0.008571643619495443
1782661636138221600,5.2382216796875,-0.012140519648790359,-0.01271786287901923,-0.004752350192819722
1782661636148293400,5.24829345703125,0.0020738836646080018,-0.013364782480429858,-0.0037168970647035162
1782661636158364400,5.258364501953125,-0.0088578447163105,-0.005780556162819266,0.003291803520428948
1782661636168435500,5.268435546875,-0.010057868155837058,-0.005803261184971779,0.01812974099307321
1782661636178506500,5.278506591796875,0.00192015440762043,-0.0018309965531341731,0.019585976816527545
1782661636188577500,5.28857763671875,0.00850362445116043,-0.0032066688205115495,0.0205158643780509
1782661636198648600,5.298648681640625,0.006998480585217476,0.004127071601059288,0.027245250264881178
1782661636208720400,5.308720458984375,0.00848667331635952,0.0037125542497262356,0.02392238031933084
1782661636218788400,5.318788330078125,0.005636544582247734,0.009878693930339067,0.0346901822762331
1782661636228859400,5.328859375,0.010268296036124228,0.010508479733858257,0.04154162820673082
1782661636238930400,5.338930419921875,0.00009410802423954009,-0.0007336297704838216,0.07228767596706748
1782661636249001500,5.34900146484375,0.004734042784571647,0.00002586509361863136,0.06449020875757559
1782661636259073500,5.359073486328125,-0.011427402943372725,0.014399605420883744,0.06750953374586534
1782661636269144600,5.36914453125,-0.006936521264910698,0.0030413404572755096,0.062050916713522745
1782661636279215600,5.379215576171875,0.007277882048487663,0.0035535094968043267,0.05631134101506322
1782661636289286400,5.389286376953125,0.011314590218663215,0.019973642693553117,0.058104654172621666
1782661636299357400,5.399357421875,-0.014570377144217491,0.025093670854717493,0.041195212222123516
1782661636309428500,5.409428466796875,0.005482815325260162,0.02044896858772263,0.049504350714222524
1782661636319499500,5.41949951171875,0.014313772034645079,0.014185999202821403,0.04609055564878508
1782661636329571600,5.429571533203125,-0.011120528951287269,0.008703658801596612,0.03189334549878258
1782661636339642600,5.439642578125,-0.010815993046760558,0.007044712613429874,0.014494549128762446
1782661636349713700,5.449713623046875,-0.002583586752414703,0.0004823949557729065,0.003789350379561074
1782661636359784400,5.459784423828125,0.006545476120710373,-0.007510923619382083,-0.008964839621586725
1782661636369855500,5.46985546875,0.013429974937438964,0.003322239757888019,-0.011082187968585639
1782661636379926500,5.479926513671875,0.0158247611194849,-0.016611344919912518,-0.014943489339505322
1782661636389998300,5.489998291015625,-0.0031768764704465866,-0.013713175792992114,-0.017704108592681584
1782661636400069400,5.5000693359375,0.011490531307458876,-0.004676796172000467,-0.03141053041790146
1782661636410140400,5.510140380859375,0.01059329020678997,-0.011874178596492856,-0.016375773465214297
1782661636420211500,5.52021142578125,-0.0027215339183807373,-0.011351762157585472,-0.015594966385024599
1782661636430282200,5.5302822265625,0.01059679733812809,-0.022017167752515523,0.002397411963972263
1782661636440353300,5.540353271484375,0.012392448583245277,-0.03232258092863485,0.006045856035500764
1782661636450424300,5.55042431640625,-0.0031669395983219143,-0.00875920664742589,0.005741402329364791
1782661636460495400,5.560495361328125,-0.002422258710861206,0.004146050296165049,0.014058751527382991
1782661636470567400,5.5705673828125,0.009697218149900436,-0.008989508271962404,0.016825494560669174
1782661636480638500,5.580638427734375,-0.009011573973298072,0.003930252121016383,0.015698079699627124
1782661636490709500,5.59070947265625,0.0025029227316379545,0.01571492580315098,0.0125381726302905
1782661636500780300,5.6007802734375,-0.005730068084597587,0.00039950244529172774,0.03254322424225975
1782661636510851300,5.610851318359375,-0.006027005204558372,-0.004131528580468148,0.05752541124625131
1782661636520923100,5.620923095703125,-0.00916588775217533,0.014890512476675211,0.053853960758470924
1782661636530995200,5.6309951171875,0.002207154655456543,0.015425404804665595,0.053329503059526905
1782661636541066200,5.641066162109375,0.0032569559693336487,0.011008720873575658,0.04979788116754498
1782661636551137300,5.65113720703125,-0.09639467387199402,0.0022658260401338336,0.022074058172060176
1782661636561208300,5.661208251953125,0.14391513445973395,0.009641505907289682,0.0882121894002892
1782661636571279400,5.671279296875,-0.0762006116271019,0.004947265410143882,0.0353893389549572
1782661636581350400,5.681350341796875,0.033927988564968106,-0.013460023015830665,0.06746719244148117
1782661636591421200,5.691421142578125,-0.009919336467981339,-0.006195913764368743,0.08000071629611775
1782661636601494300,5.701494384765625,0.0047404725253582,0.0021147819305770096,0.05642872031703591
1782661636611565000,5.71156494140625,0.02822363944351673,0.0005785853392444551,0.04068215270002838
1782661636621637000,5.72163720703125,-0.044352351945638656,0.0004370031777769327,0.02908432965977117
1782661636631708200,5.731708251953125,-0.013085691544413566,0.01950149513715878,0.01914014187832363
