time,seconds_elapsed,z,y,x
1782810962635912700,0.07291259765625,-0.03703247755765915,0.047734424471855164,0.19081315398216248
1782810962645984800,0.08298486328125,-0.038747020065784454,0.04988465830683708,0.18323060870170593
1782810962656056600,0.093056640625,-0.037921562790870667,0.028289655223488808,0.1568181812763214
1782810962666127600,0.103127685546875,-0.03108735755085945,-0.0016456075245514512,0.127409428358078
1782810962676199700,0.11319970703125,-0.027892233803868294,-0.011202075518667698,0.09801901876926422
1782810962686271700,0.123271728515625,-0.018031347543001175,-0.022113047540187836,0.07007739692926407
1782810962696342500,0.133342529296875,-0.005419076420366764,-0.04184572398662567,0.039086200296878815
1782810962706414300,0.143414306640625,-0.0013977031921967864,-0.05399027094244957,0.016177158802747726
1782810962716486700,0.153486572265625,0.006346236448734999,-0.04413071647286415,0.005716529209166765
1782810962726557400,0.163557373046875,0.00798993930220604,-0.02654932625591755,0.003941532224416733
1782810962736629500,0.17362939453125,0.007427334785461426,-0.0008013811893761158,0.0008304156363010406
1782810962746700500,0.183700439453125,0.0017382903024554253,0.021848805248737335,0.0025076745077967644
1782810962756772600,0.193772705078125,0.002283891197293997,0.03362283483147621,-0.0070149824023246765
1782810962766844400,0.203844482421875,-0.0027923602610826492,0.03920881450176239,-0.013761036098003387
1782810962776915500,0.21391552734375,-0.00781082920730114,0.03945404291152954,-0.020808013156056404
1782810962786987500,0.223987548828125,-0.002205674070864916,0.026958489790558815,-0.02992161735892296
1782810962797059600,0.2340595703125,0.0038210912607610226,0.020807769149541855,-0.024947622790932655
1782810962807130600,0.244130615234375,0.005754812620580196,0.03189477697014809,-0.010362022556364536
1782810962817202700,0.25420263671875,0.003436547704041004,0.040852420032024384,0.0077027068473398685
1782810962827274500,0.2642744140625,-0.007239798549562693,0.055481962859630585,0.027054566890001297
1782810962837345500,0.274345458984375,-0.020152360200881958,0.07757145166397095,0.04367028921842575
1782810962847417600,0.28441748046875,-0.036212820559740067,0.0930313691496849,0.05352212116122246
1782810962857488400,0.29448828125,-0.048591967672109604,0.09989066421985626,0.05605427920818329
1782810962867560400,0.304560546875,-0.058585479855537415,0.1110924556851387,0.045262083411216736
1782810962877632300,0.31463232421875,-0.07530191540718079,0.12222590297460556,0.030026143416762352
1782810962887703300,0.324703369140625,-0.09222151339054108,0.13849276304244995,0.01856815814971924
1782810962897775400,0.334775390625,-0.11061713099479675,0.14119787514209747,0.004994279704988003
1782810962907846400,0.344846435546875,-0.12157683819532394,0.12253203243017197,-0.013543717563152313
1782810962917918500,0.35491845703125,-0.11655610054731369,0.1136605441570282,-0.02522166818380356
1782810962927990500,0.364990478515625,-0.1191798523068428,0.11114811897277832,-0.016492092981934547
1782810962938061600,0.3750615234375,-0.12256119400262833,0.10245770961046219,0.007597002666443586
1782810962948133400,0.38513330078125,-0.13334806263446808,0.1119108647108078,0.029880469664931297
1782810962958205400,0.395205322265625,-0.13150526583194733,0.13943472504615784,0.0555083341896534
1782810962968276500,0.4052763671875,-0.12658454477787018,0.1590222716331482,0.06279261410236359
1782810962978348500,0.4153486328125,-0.13009420037269592,0.1832823008298874,0.08083924651145935
1782810962988420600,0.425420654296875,-0.14756187796592712,0.2162807285785675,0.1134808138012886
1782810962998491600,0.43549169921875,-0.173992320895195,0.261409193277359,0.1610640585422516
1782810963008563500,0.4455634765625,-0.19523023068904877,0.376361608505249,0.22745852172374725
1782810963018634500,0.455634521484375,-0.18943087756633759,0.5339224338531494,0.32467082142829895
1782810963028706600,0.46570654296875,-0.17717501521110535,0.6497483253479004,0.42974236607551575
1782810963038778600,0.475778564453125,-0.1930444836616516,0.6056108474731445,0.5109996795654297
1782810963048849700,0.485849609375,-0.2202896922826767,0.5048158168792725,0.5693250894546509
1782810963058921500,0.49592138671875,-0.25960835814476013,0.3843365013599396,0.6015378832817078
1782810963068993500,0.50599365234375,-0.26466381549835205,0.3045673668384552,0.6109768748283386
1782810963079064600,0.516064697265625,-0.23385612666606903,0.17394959926605225,0.5926298499107361
1782810963089136600,0.52613671875,-0.1705024540424347,0.012552186846733093,0.5519996285438538
1782810963099208700,0.536208740234375,-0.0887889638543129,-0.114737369120121,0.492961049079895
1782810963109279500,0.546279541015625,-0.006550549063831568,-0.23275108635425568,0.43397364020347595
1782810963119351300,0.556351318359375,0.049897320568561554,-0.2954728901386261,0.39404454827308655
1782810963129422300,0.56642236328125,0.08425796031951904,-0.30104076862335205,0.3853085935115814
1782810963139494400,0.576494384765625,0.09592164307832718,-0.2627987265586853,0.40227001905441284
1782810963149566500,0.58656640625,0.09311147034168243,-0.1826905459165573,0.45505014061927795
1782810963159637500,0.596637451171875,0.09953435510396957,-0.14254572987556458,0.4726080894470215
1782810963169709600,0.60670947265625,0.10951082408428192,-0.1538524478673935,0.4703883230686188
1782810963179781400,0.616781494140625,0.1282576471567154,-0.12383377552032471,0.447727233171463
1782810963189852400,0.626852294921875,0.13765034079551697,-0.11855165660381317,0.38732460141181946
1782810963199924500,0.636924560546875,0.1307540088891983,-0.15904481709003448,0.3019373118877411
1782810963209995500,0.64699560546875,0.10085895657539368,-0.24009466171264648,0.20676496624946594
1782810963220067600,0.657067626953125,0.07594774663448334,-0.2983129620552063,0.12027162313461304
1782810963230139400,0.667139404296875,0.04977717995643616,-0.32314833998680115,0.05495704710483551
1782810963240210400,0.67721044921875,0.034215327352285385,-0.32392385601997375,0.012631445191800594
1782810963250282500,0.687282470703125,0.02269848994910717,-0.3768560588359833,-0.01152528915554285
1782810963260354600,0.6973544921875,0.030518829822540283,-0.5286837816238403,-0.015472901985049248
1782810963270425600,0.707425537109375,0.05281641334295273,-0.6439099311828613,0.016303405165672302
1782810963280497700,0.71749755859375,0.07485510408878326,-0.6170420050621033,0.07046116888523102
1782810963290568700,0.727568603515625,0.06940414756536484,-0.47003525495529175,0.13486385345458984
1782810963300640500,0.737640625,0.03703494742512703,-0.2819223403930664,0.1901707947254181
1782810963310712600,0.747712646484375,-0.03035341575741768,-0.17117717862129211,0.214443638920784
1782810963320783400,0.757783447265625,-0.08829586207866669,-0.10780695080757141,0.22399801015853882
1782810963330855700,0.767855712890625,-0.11150770634412766,-0.017507944256067276,0.22727610170841217
1782810963340927500,0.777927490234375,-0.11549066007137299,0.033681225031614304,0.23000876605510712
1782810963350998500,0.78799853515625,-0.1229802668094635,0.04574481397867203,0.20715485513210297
1782810963361070300,0.7980703125,-0.11416387557983398,0.050371211022138596,0.1630862057209015
1782810963371142400,0.808142333984375,-0.05891553685069084,0.06793155521154404,0.10734517872333527
1782810963381213400,0.81821337890625,0.002728783991187811,0.06777950376272202,0.05014205724000931
1782810963391285500,0.828285400390625,0.028571300208568573,0.02086765691637993,-0.03561492636799812
1782810963401356500,0.8383564453125,0.03077148273587227,-0.11236625909805298,-0.08969732373952866
1782810963411428400,0.848428466796875,0.06535263359546661,-0.22255562245845795,-0.11518723517656326
1782810963421500400,0.85850048828125,0.07430656999349594,-0.347982794046402,-0.1427978277206421
1782810963431571500,0.868571533203125,0.10181941837072372,-0.40411266684532166,-0.14806529879570007
1782810963441643500,0.8786435546875,0.12592840194702148,-0.39228004217147827,-0.10854638367891312
1782810963451715600,0.888715576171875,0.13051410019397736,-0.354489266872406,-0.03141511231660843
1782810963461786600,0.89878662109375,0.1123100221157074,-0.2584899067878723,0.03325283154845238
1782810963471858400,0.9088583984375,0.08470554649829865,-0.12739768624305725,0.07343967258930206
1782810963481929500,0.918929443359375,0.057784661650657654,-0.05057796463370323,0.10347265005111694
1782810963492001500,0.92900146484375,0.05060264840722084,-0.009319739416241646,0.12630659341812134
1782810963502073600,0.939073486328125,0.05400923267006874,0.028240671381354332,0.1421489715576172
1782810963512144600,0.94914453125,0.05973369628190994,0.033423446118831635,0.15205726027488708
1782810963522216400,0.959216552734375,0.06881626695394516,0.023494083434343338,0.15148332715034485
1782810963532288500,0.96928857421875,0.06714912503957748,-0.001449882285669446,0.14334285259246826
1782810963542359600,0.979359619140625,0.06797251850366592,-0.028808481991291046,0.13362498581409454
1782810963552431600,0.989431640625,0.05726155638694763,0.019267966970801353,0.12530314922332764
1782810963562502400,0.99950244140625,0.04857473075389862,0.11395086348056793,0.11837222427129745
1782810963572574500,1.009574462890625,0.04213973507285118,0.19162462651729584,0.09316673874855042
1782810963582646500,1.019646484375,0.03525881841778755,0.21882647275924683,0.04848426580429077
1782810963592717300,1.02971728515625,0.03681543469429016,0.21052460372447968,-0.022248229011893272
1782810963602789400,1.039789306640625,0.0376150906085968,0.13659195601940155,-0.09902878105640411
1782810963612861400,1.049861328125,0.03988010808825493,0.042219385504722595,-0.16063328087329865
1782810963622932500,1.059932373046875,0.04119862988591194,0.017891094088554382,-0.19361892342567444
1782810963633004500,1.070004638671875,0.03534926101565361,0.04549102857708931,-0.20680981874465942
1782810963643075600,1.08007568359375,0.03518180549144745,0.046310752630233765,-0.21843667328357697
1782810963653147400,1.0901474609375,0.02749246172606945,0.00004924705717712641,-0.22192968428134918
1782810963663219500,1.100219482421875,0.023311225697398186,-0.03410261496901512,-0.2022033929824829
1782810963673290500,1.11029052734375,0.018839778378605843,-0.010159729048609734,-0.16088950634002686
1782810963683362600,1.120362548828125,0.022206030786037445,0.026982327923178673,-0.11122764647006989
1782810963693434400,1.130434326171875,0.026401573792099953,0.06473077088594437,-0.05584002286195755
1782810963703505400,1.14050537109375,0.03346548601984978,0.09738276153802872,-0.01897999830543995
1782810963713577500,1.150577392578125,0.04311811551451683,0.11101255565881729,-0.005394948646426201
1782810963723648500,1.1606484375,0.05223451182246208,0.0902809202671051,-0.011225958354771137
1782810963733720600,1.170720458984375,0.06691252440214157,0.06441523134708405,-0.023398201912641525
1782810963743792600,1.180792724609375,0.07319746166467667,0.044653814285993576,-0.04192793369293213
1782810963753863700,1.19086376953125,0.08153555542230606,0.013161135837435722,-0.05837881192564964
1782810963763935000,1.20093505859375,0.08215635269880295,-0.012682078406214714,-0.07298201322555542
1782810963774007300,1.21100732421875,0.07773790508508682,0.0020345498342067003,-0.06934812664985657
1782810963784078000,1.221078125,0.06744854152202606,0.029008490964770317,-0.05611620470881462
1782810963794150100,1.231150146484375,0.05244456231594086,0.02326192334294319,-0.02772105112671852
1782810963804222200,1.24122216796875,0.03559930995106697,0.023994725197553635,0.015402447432279587
1782810963814293200,1.251293212890625,0.016797125339508057,0.0472896583378315,0.05622338131070137
1782810963824365000,1.261364990234375,0.00004505820106714964,0.08711618930101395,0.08145259320735931
1782810963834436000,1.27143603515625,-0.008896770887076855,0.09843995422124863,0.08047255128622055
1782810963844508200,1.281508056640625,-0.01652561128139496,0.08304522931575775,0.05036790296435356
1782810963854580200,1.291580322265625,-0.01913151517510414,0.05361703410744667,0.005123727489262819
1782810963864651300,1.3016513671875,-0.019994759932160378,0.005012028850615025,-0.024356666952371597
1782810963874723000,1.31172314453125,-0.018966512754559517,-0.02049626037478447,-0.03632837533950806
1782810963884794000,1.321794189453125,-0.021525535732507706,-0.019855720922350883,-0.03174189105629921
1782810963894866200,1.3318662109375,-0.01932975836098194,-0.008312515914440155,-0.020274052396416664
1782810963904938200,1.341938232421875,-0.022413577884435654,0.009760198183357716,-0.012289907783269882
1782810963915009300,1.35200927734375,-0.02750261314213276,0.012522961013019085,-0.008983592502772808
1782810963925081300,1.362081298828125,-0.030117200687527657,-0.006177626084536314,-0.0069659678265452385
1782810963935153200,1.372153076171875,-0.036137279123067856,0.00041369779501110315,0.0005689139943569899
1782810963945224200,1.38222412109375,-0.04581455513834953,0.01498829573392868,0.0027407235465943813
1782810963955296300,1.392296142578125,-0.04622228816151619,0.0288790762424469,-0.007219498511403799
1782810963965368300,1.402368408203125,-0.04749152809381485,0.021616443991661072,-0.028116507455706596
1782810963975439400,1.412439453125,-0.047100309282541275,0.010967527516186237,-0.052539825439453125
1782810963985511400,1.422511474609375,-0.041886404156684875,0.003022132907062769,-0.07115080207586288
1782810963995582200,1.432582275390625,-0.04409203305840492,-0.0016469210386276245,-0.07403713464736938
1782810964005654000,1.442654052734375,-0.04401256889104843,0.003850782522931695,-0.06135781481862068
1782810964015726000,1.45272607421875,-0.039945922791957855,0.015163624659180641,-0.04785052686929703
1782810964025797000,1.462797119140625,-0.041536711156368256,0.022374071180820465,-0.03776486590504646
1782810964035869200,1.472869140625,-0.04240969195961952,0.01727997697889805,-0.031456902623176575
1782810964045940200,1.482940185546875,-0.04267503693699837,0.009005971252918243,-0.031123226508498192
1782810964056012000,1.493011962890625,-0.043206337839365005,0.0029150559566915035,-0.02606375329196453
1782810964066084000,1.503083984375,-0.03583673760294914,-0.007972341030836105,-0.034858301281929016
1782810964076155100,1.513155029296875,-0.03407265990972519,-0.01804894395172596,-0.045496564358472824
1782810964086227200,1.523227294921875,-0.04204213619232178,-0.018509015440940857,-0.05588714778423309
1782810964096299300,1.53329931640625,-0.046237144619226456,-0.020491205155849457,-0.06681675463914871
1782810964106370300,1.543370361328125,-0.054740406572818756,-0.04259829968214035,-0.07937198877334595
1782810964116442000,1.553442138671875,-0.057557232677936554,-0.08875221759080887,-0.08404876291751862
1782810964126513200,1.56351318359375,-0.060736872255802155,-0.10717687755823135,-0.07118061929941177
1782810964136585200,1.573585205078125,-0.06781182438135147,-0.0835098922252655,-0.031898461282253265
1782810964146657300,1.5836572265625,-0.0758960023522377,-0.02453959919512272,0.02987222746014595
1782810964156728300,1.593728271484375,-0.08581414818763733,0.03181395307183266,0.09150602668523788
1782810964166800400,1.60380029296875,-0.09563939273357391,0.07502996921539307,0.13686604797840118
1782810964176872200,1.6138720703125,-0.10769285261631012,0.10155744850635529,0.16243372857570648
1782810964186943200,1.623943115234375,-0.11547350138425827,0.11292877793312073,0.16281935572624207
1782810964197015300,1.634015380859375,-0.11915691941976547,0.08552432060241699,0.14935894310474396
1782810964207086000,1.644086181640625,-0.11996998637914658,0.06378653645515442,0.12945528328418732
1782810964217158400,1.654158447265625,-0.1173478364944458,0.03780553489923477,0.10002974420785904
1782810964227230200,1.664230224609375,-0.1179729774594307,-0.011328292079269886,0.05759574472904205
1782810964237301000,1.674301025390625,-0.11558065563440323,-0.051609668880701065,0.02194427326321602
1782810964247373000,1.684373046875,-0.11225020885467529,-0.06434318423271179,-0.003988265059888363
1782810964257445000,1.694445068359375,-0.1123490184545517,-0.05656995251774788,-0.017194081097841263
1782810964267516200,1.70451611328125,-0.11383619159460068,-0.043346844613552094,-0.016600465402007103
1782810964277588200,1.714588134765625,-0.11465058475732803,-0.015473667532205582,0.004607084207236767
1782810964287659300,1.7246591796875,-0.11583982408046722,0.01442298199981451,0.026132363826036453
1782810964297731000,1.73473095703125,-0.11008713394403458,0.022910742089152336,0.05012877285480499
1782810964307803100,1.74480322265625,-0.09588292241096497,0.02015024982392788,0.07278747856616974
1782810964317874200,1.754874267578125,-0.08325900882482529,0.023297041654586792,0.08253997564315796
1782810964327946200,1.7649462890625,-0.07296252995729446,0.014627243392169476,0.07111980020999908
1782810964338018300,1.775018310546875,-0.06042676791548729,-0.010753747075796127,0.06072121858596802
1782810964348089300,1.78508935546875,-0.05020064860582352,-0.019021345302462578,0.0486011728644371
1782810964358161200,1.7951611328125,-0.041400495916604996,-0.012577828019857407,0.04858226329088211
1782810964368232200,1.805232177734375,-0.03350019082427025,-0.009222879074513912,0.044230394065380096
1782810964378304300,1.81530419921875,-0.022304261103272438,-0.0022547179833054543,0.02937261573970318
1782810964388376300,1.825376220703125,-0.008500583469867706,-0.0014579802518710494,0.025838881731033325
1782810964398447400,1.835447265625,0.005858913995325565,0.0023745750077068806,0.019212139770388603
1782810964408519200,1.845519287109375,0.02150661312043667,-0.004731410648673773,0.015220596455037594
1782810964418591200,1.85559130859375,0.039185743778944016,-0.016989141702651978,0.007547495886683464
1782810964428662300,1.865662353515625,0.05500074848532677,-0.03616300970315933,-0.0014388166600838304
1782810964438734300,1.875734375,0.06788672506809235,-0.05830932408571243,-0.0006981915794312954
1782810964448805000,1.88580517578125,0.07583383470773697,-0.07361112534999847,0.005303227808326483
1782810964458877200,1.895877197265625,0.07154615223407745,-0.05842525139451027,0.02773449942469597
1782810964468949200,1.90594921875,0.06630495935678482,-0.029053084552288055,0.05624604970216751
1782810964479020000,1.91602001953125,0.059409499168395996,-0.014920221641659737,0.08309417963027954
1782810964489092000,1.926092041015625,0.0521891750395298,-0.00869758240878582,0.09574099630117416
1782810964499164200,1.9361640625,0.043505940586328506,-0.0076118106953799725,0.09588027745485306
1782810964509235200,1.946235107421875,0.039867039769887924,0.006838132627308369,0.09627947956323624
1782810964519307300,1.956307373046875,0.028386417776346207,0.007759585976600647,0.08486277610063553
1782810964529378000,1.9663779296875,0.013609643094241619,-0.007427191827446222,0.057691074907779694
1782810964539450000,1.9764501953125,0.004432390443980694,-0.029740221798419952,0.02721572294831276
1782810964549522200,1.986522216796875,-0.008384276181459427,-0.05311613902449608,-0.001699537504464388
1782810964559593200,1.99659326171875,-0.016969509422779083,-0.06678986549377441,-0.01831473410129547
1782810964569665300,2.006665283203125,-0.02944001741707325,-0.059142567217350006,-0.01682070642709732
1782810964579736300,2.016736328125,-0.03993606939911842,-0.035355743020772934,-0.0031767997425049543
1782810964589808000,2.02680810546875,-0.05162369832396507,-0.01579461805522442,0.018060049042105675
1782810964599880200,2.036880126953125,-0.06302255392074585,-0.0010652075288817286,0.03589603677392006
1782810964609951200,2.046951171875,-0.07703033089637756,0.0035510947927832603,0.04294781759381294
1782810964620023300,2.057023193359375,-0.08588826656341553,-0.0011003823019564152,0.04644055292010307
1782810964630095400,2.067095458984375,-0.08779879659414291,0.0023703365586698055,0.05173226818442345
1782810964640166400,2.07716650390625,-0.08563178032636642,0.0047954111360013485,0.047989994287490845
1782810964650238200,2.08723828125,-0.08307641744613647,0.007447095587849617,0.032424334436655045
1782810964660309200,2.097309326171875,-0.07656072825193405,-0.002978381235152483,0.014063436537981033
1782810964670381300,2.10738134765625,-0.06835311651229858,-0.014119366183876991,-0.006494024768471718
1782810964680453400,2.117453369140625,-0.06169946864247322,-0.021250246092677116,-0.016571160405874252
1782810964690524200,2.127524169921875,-0.05576489493250847,-0.027486873790621758,-0.016881706193089485
1782810964700596000,2.137595947265625,-0.04723106324672699,-0.03350428491830826,-0.0025879875756800175
1782810964710668000,2.14766796875,-0.03958943486213684,-0.035704001784324646,0.015941498801112175
1782810964720739000,2.157739013671875,-0.03260449692606926,-0.037688590586185455,0.037427619099617004
1782810964730811100,2.16781103515625,-0.02695167064666748,-0.025067070499062538,0.05808895453810692
1782810964740882200,2.177882080078125,-0.02021334134042263,-0.021935192868113518,0.07951248437166214
1782810964750954200,2.187954345703125,-0.014166707172989845,-0.016425931826233864,0.0950927734375
1782810964761026800,2.19802685546875,-0.0022402724716812372,-0.019738104194402695,0.09904703497886658
1782810964771097900,2.208097900390625,0.000916751567274332,-0.009468238800764084,0.09112333506345749
1782810964781170000,2.218169921875,0.009257239289581776,-0.007523598615080118,0.07969464361667633
1782810964791242000,2.228241943359375,0.010847998782992363,-0.01439913734793663,0.06328612565994263
1782810964801313000,2.23831298828125,0.010780354030430317,-0.02245786227285862,0.05347424000501633
1782810964811384800,2.248384765625,0.008891433477401733,-0.015087325125932693,0.05849241837859154
1782810964821455600,2.25845556640625,0.013000957667827606,-0.014242568984627724,0.06465443968772888
1782810964831527700,2.268527587890625,0.015182876028120518,-0.01679125614464283,0.06549840420484543
1782810964841600000,2.27860009765625,0.016865726560354233,-0.02532775141298771,0.05515015870332718
1782810964851670800,2.2886708984375,0.015680363401770592,-0.03258189558982849,0.03746623173356056
1782810964861742800,2.298742919921875,0.009155619889497757,-0.04774646461009979,0.014011239632964134
1782810964871814000,2.30881396484375,0.0055982815101742744,-0.05614669248461723,-0.006216532550752163
1782810964881885700,2.3188857421875,0.0013113913591951132,-0.06035049259662628,-0.01492826547473669
1782810964891957800,2.328957763671875,-0.0020982944406569004,-0.061013780534267426,-0.017940299585461617
1782810964902028800,2.33902880859375,-0.0065636164508759975,-0.059203896671533585,-0.022152621299028397
1782810964912100900,2.349100830078125,-0.008272874169051647,-0.07454174011945724,-0.0259002186357975
1782810964922172700,2.359172607421875,-0.011617538519203663,-0.08311978727579117,-0.02457130141556263
1782810964932243700,2.36924365234375,-0.015466572716832161,-0.09147559106349945,-0.025741755962371826
1782810964942315800,2.379315673828125,-0.023599334061145782,-0.09734386950731277,-0.02895006537437439
1782810964952386800,2.38938671875,-0.028145309537649155,-0.101370669901371,-0.031937602907419205
1782810964962459000,2.399458984375,-0.03793881833553314,-0.10288360714912415,-0.03725913166999817
1782810964972531000,2.409531005859375,-0.04769027233123779,-0.09852701425552368,-0.039015740156173706
1782810964982602000,2.41960205078125,-0.0456971600651741,-0.09679995477199554,-0.04241872951388359
1782810964992673800,2.429673828125,-0.04704613983631134,-0.11416707932949066,-0.04864814132452011
1782810965002744800,2.439744873046875,-0.044500693678855896,-0.11951842904090881,-0.06061851605772972
1782810965012817000,2.44981689453125,-0.03516591340303421,-0.11288022994995117,-0.06505294144153595
1782810965022889000,2.459888916015625,-0.029044371098279953,-0.1016765758395195,-0.06640102714300156
1782810965032960000,2.4699599609375,-0.021025922149419785,-0.0794072151184082,-0.059485070407390594
1782810965043031800,2.48003173828125,-0.019359581172466278,-0.06150171533226967,-0.05114724859595299
1782810965053103900,2.490103759765625,-0.014862384647130966,-0.03384137898683548,-0.040220558643341064
1782810965063174700,2.500174560546875,-0.011534764431416988,-0.020048338919878006,-0.03730226680636406
1782810965073246700,2.510246826171875,-0.0032120172400027514,-0.016116295009851456,-0.038471657782793045
1782810965083317800,2.52031787109375,-0.006048816256225109,-0.0335293747484684,-0.0412868857383728
1782810965093389800,2.530389892578125,-0.005224526859819889,-0.04965624958276749,-0.045696280896663666
1782810965103461600,2.540461669921875,-0.00787357334047556,-0.05834588035941124,-0.04631919413805008
1782810965113532700,2.55053271484375,-0.007182534784078598,-0.06307027488946915,-0.03278529271483421
1782810965123604700,2.560604736328125,-0.012716850265860558,-0.05444216728210449,-0.019492389634251595
1782810965133675800,2.57067578125,-0.015148365870118141,-0.05106281861662865,-0.016535738483071327
1782810965143747800,2.580747802734375,-0.014287100173532963,-0.05654493346810341,-0.016641998663544655
1782810965153820000,2.59081982421875,-0.022587651386857033,-0.041751641780138016,-0.018989570438861847
1782810965163891000,2.600890869140625,-0.026390112936496735,-0.026163892820477486,-0.021162178367376328
1782810965173962800,2.610962646484375,-0.031241293996572495,-0.014603513292968273,-0.02310175634920597
1782810965184034800,2.621034912109375,-0.03525867313146591,0.00020153133664280176,-0.019043099135160446
1782810965194105900,2.63110595703125,-0.03865639865398407,0.01049492321908474,-0.014351412653923035
1782810965204178000,2.641177978515625,-0.039832182228565216,0.016735509037971497,-0.012990537099540234
1782810965214249000,2.6512490234375,-0.03701159730553627,0.01564054563641548,-0.005536080803722143
1782810965224320800,2.66132080078125,-0.03460463136434555,0.014797654934227467,0.003910684492439032
1782810965234392800,2.671392822265625,-0.034194182604551315,0.022067787125706673,0.006720839533954859
1782810965244463900,2.6814638671875,-0.03306207060813904,0.017823774367570877,0.003872322617098689
1782810965254536000,2.691535888671875,-0.026345208287239075,0.010137238539755344,-0.0011432014871388674
1782810965264606700,2.701606689453125,-0.02187242917716503,0.012174556031823158,0.0009947842918336391
1782810965274679000,2.711678955078125,-0.012681367807090282,0.011533636599779129,-0.011753234080970287
1782810965284750800,2.721750732421875,-0.00321968924254179,0.004457085393369198,-0.01932060532271862
1782810965294821600,2.731821533203125,0.0017888458678498864,0.006731669418513775,-0.030737845227122307
1782810965304893700,2.741893798828125,0.004545750096440315,0.005111668258905411,-0.03938379883766174
1782810965314964700,2.75196484375,0.007250938564538956,0.014837602153420448,-0.046488575637340546
1782810965325036800,2.762036865234375,0.011953015811741352,0.024967733770608902,-0.046182576566934586
1782810965335108900,2.77210888671875,0.014090243726968765,0.03493104875087738,-0.045946355909109116
1782810965345180000,2.782179931640625,0.014437253586947918,0.031840980052948,-0.042642705142498016
1782810965355251700,2.792251708984375,0.014165262691676617,0.031817223876714706,-0.02660115249454975
1782810965365323800,2.80232373046875,0.01391439326107502,0.02570260502398014,-0.012340189889073372
1782810965375394800,2.812394775390625,0.017383968457579613,0.022939343005418777,0.001928224228322506
1782810965385467000,2.822466796875,0.015703247860074043,0.02957806922495365,0.018517054617404938
1782810965395538000,2.832537841796875,0.014341184869408607,0.033806417137384415,0.03262009471654892
1782810965405609700,2.842609619140625,0.014271676540374756,0.03426474705338478,0.04314011335372925
1782810965415681800,2.852681884765625,0.012949846684932709,0.03350905701518059,0.04318404942750931
1782810965425752800,2.8627529296875,0.010266445577144623,0.03330079838633537,0.037813518196344376
1782810965435825000,2.872824951171875,0.015093025751411915,0.03741646558046341,0.0350334532558918
1782810965445896000,2.88289599609375,0.014779039658606052,0.03253994882106781,0.03548938408493996
1782810965455968000,2.892968017578125,0.01443834975361824,0.024910233914852142,0.03973233327269554
1782810965466039800,2.903039794921875,0.01744372583925724,0.019583113491535187,0.04866723716259003
1782810965476110800,2.91311083984375,0.014357327483594418,0.015938853845000267,0.05145396292209625
1782810965486183000,2.923182861328125,0.016766423359513283,0.014764132909476757,0.05511261522769928
1782810965496255000,2.9332548828125,0.016194099560379982,0.013497766107320786,0.05131281912326813
1782810965506325800,2.94332568359375,0.011610000394284725,0.016759071499109268,0.04488474875688553
1782810965516397800,2.953397705078125,0.009176649153232574,0.021939663216471672,0.03296710550785065
1782810965526468900,2.96346875,0.01155352033674717,0.016053810715675354,0.01249565277248621
1782810965536540700,2.973540771484375,0.011468729935586452,0.008247126825153828,-0.009962252341210842
1782810965546612700,2.98361279296875,0.012213083915412426,0.005889164283871651,-0.025001389905810356
1782810965556683800,2.993683837890625,0.009652608074247837,0.008228565566241741,-0.032882217317819595
1782810965566755800,3.003755859375,0.012113102711737156,0.00825359858572483,-0.027772141620516777
1782810965576827000,3.013826904296875,0.01005874015390873,0.0154662374407053,-0.012970825657248497
1782810965586898700,3.023898681640625,0.0076208822429180145,0.02142958901822567,0.0016699024708941579
1782810965596970800,3.033970703125,0.006516448222100735,0.01601768285036087,0.011820001527667046
1782810965607041800,3.044041748046875,0.0018798850942403078,0.015250959433615208,0.018628906458616257
1782810965617113900,3.05411376953125,-0.0034513636492192745,0.02888130024075508,0.02611559070646763
1782810965627185000,3.064184814453125,-0.0021051354706287384,0.04038748890161514,0.02732626348733902
1782810965637257000,3.074257080078125,0.00021247001131996512,0.02759520895779133,0.02154587022960186
1782810965647328800,3.084328857421875,-0.0007007279200479388,0.022290192544460297,0.012195778079330921
1782810965657399800,3.09439990234375,0.005632074549794197,0.017389733344316483,0.00182756083086133
1782810965667472000,3.104471923828125,0.012078522704541683,0.005615099798887968,-0.005418101791292429
1782810965677544000,3.1145439453125,0.017829956486821175,-0.0004925685934722424,-0.009397395886480808
1782810965687615000,3.124614990234375,0.023781854659318924,-0.00216370215639472,-0.0055872113443911076
1782810965697686800,3.134686767578125,0.022769689559936523,0.00024928164202719927,-0.0014949971809983253
1782810965707757800,3.1447578125,0.02143038623034954,-0.0029574306681752205,0.017086409032344818
1782810965717830000,3.154829833984375,0.02056274749338627,0.0023007711861282587,0.03616901859641075
1782810965727902000,3.16490185546875,0.01576213538646698,0.005951964762061834,0.05823996663093567
1782810965737972700,3.17497265625,0.0159221813082695,0.0051172999665141106,0.07063858956098557
1782810965748044800,3.185044921875,0.012011328712105751,-0.005759849213063717,0.07186470925807953
1782810965758116000,3.1951162109375,0.01793447509407997,-0.0031869388185441494,0.08060279488563538
1782810965768188000,3.20518798828125,0.020108945667743683,0.0011801129439845681,0.08632859587669373
1782810965778260000,3.215260009765625,0.01799304410815239,0.003838423639535904,0.08545774966478348
1782810965788331000,3.2253310546875,0.013168195262551308,0.0019007078371942043,0.07569140195846558
1782810965798403000,3.235403076171875,0.009994599036872387,0.0032922904938459396,0.06080592796206474
1782810965808474000,3.24547412109375,0.014716915786266327,-0.0013607845176011324,0.04545146971940994
1782810965818546200,3.255546142578125,0.017274338752031326,-0.009886124171316624,0.03353355824947357
1782810965828618000,3.265617919921875,0.02023790404200554,-0.0101375263184309,0.029758261516690254
1782810965838689000,3.27568896484375,0.02315542660653591,-0.004376443102955818,0.030829917639493942
1782810965848761000,3.285760986328125,0.02440871112048626,-0.011008245870471,0.026741966605186462
1782810965858832100,3.29583203125,0.027074597775936127,-0.01352950930595398,0.019890982657670975
1782810965868904200,3.305904296875,0.025810396298766136,-0.007742461282759905,0.014890363439917564
1782810965878976000,3.31597607421875,0.024349385872483253,0.0019522442016750574,0.010726777836680412
1782810965889047000,3.326047119140625,0.02872895449399948,-0.00023634149692952633,0.0051634348928928375
1782810965899119000,3.336119140625,0.02890424057841301,0.0016041388735175133,-0.0022033981513231993
1782810965909191200,3.346191162109375,0.03745990991592407,-0.006629822310060263,-0.007481250446289778
1782810965919262200,3.35626220703125,0.039300449192523956,-0.0106276236474514,-0.0069898986257612705
1782810965929334300,3.366334228515625,0.040497541427612305,-0.003297805553302169,-0.0038785277865827084
1782810965939405000,3.376405029296875,0.03539590165019035,0.01472979411482811,0.003417469095438719
1782810965949477000,3.38647705078125,0.03459162637591362,0.017815064638853073,0.0003527031803969294
1782810965959549200,3.396549072265625,0.034194622188806534,0.013664822094142437,-0.015770340338349342
1782810965969620000,3.406619873046875,0.035881198942661285,0.006370157469063997,-0.03544284403324127
1782810965979692000,3.416692138671875,0.03355760872364044,-0.001637324457988143,-0.05895349755883217
1782810965989763000,3.42676318359375,0.025758543983101845,-0.01019991934299469,-0.06586360186338425
1782810965999835100,3.436835205078125,0.012869050726294518,-0.001890329411253333,-0.06361962109804153
1782810966009907000,3.446906982421875,0.0078284852206707,0.005799548234790564,-0.039731867611408234
1782810966019978000,3.45697802734375,0.003620076458901167,0.01703404076397419,-0.011007275432348251
1782810966030050000,3.467050048828125,0.004789470229297876,0.021930262446403503,0.008407434448599815
1782810966040121000,3.47712109375,0.009489499032497406,0.019169682636857033,0.018169783055782318
1782810966050193200,3.487193115234375,0.012005120515823364,0.004818173125386238,0.021033214405179024
1782810966060265000,3.497264892578125,0.015360006131231785,0.0016726102912798524,0.02371022291481495
1782810966070336000,3.5073359375,0.007974795065820217,-0.00580740999430418,0.02232298254966736
1782810966080408000,3.517407958984375,0.003269450506195426,-0.006287872325628996,0.023070532828569412
1782810966090479000,3.52747900390625,-0.00427927915006876,-0.0021083075553178787,0.026808012276887894
1782810966100551200,3.53755126953125,-0.010102660395205021,0.01799544133245945,0.027547838166356087
1782810966110623200,3.547623291015625,-0.009584675543010235,0.028546884655952454,0.032944999635219574
1782810966120694300,3.5576943359375,-0.0028318515978753567,0.03472347557544708,0.03972780704498291
1782810966130766000,3.56776611328125,0.0009628866682760417,0.047073353081941605,0.04833727329969406
1782810966140837000,3.577837158203125,0.008187510073184967,0.042486321181058884,0.05719654634594917
1782810966150909200,3.5879091796875,0.01573411002755165,0.038590386509895325,0.06697487831115723
1782810966160981200,3.597981201171875,0.029121778905391693,0.03557473048567772,0.07330095022916794
1782810966171052000,3.608052001953125,0.0442488007247448,0.028126932680606842,0.07736679911613464
1782810966181124000,3.6181240234375,0.058632880449295044,0.0071489992551505566,0.07091209292411804
1782810966191195100,3.628195068359375,0.07385417819023132,-0.004569175653159618,0.06559748947620392
1782810966201267000,3.638266845703125,0.09060633182525635,-0.019629590213298798,0.07158827036619186
1782810966211339000,3.648339111328125,0.11066100001335144,-0.03686423599720001,0.08211814612150192
1782810966221410000,3.65841015625,0.13140109181404114,-0.05531520023941994,0.09480703622102737
1782810966231482000,3.668482177734375,0.14528228342533112,-0.10876058042049408,0.09591224789619446
1782810966241553200,3.67855322265625,0.14572235941886902,-0.13594511151313782,0.11308032274246216
1782810966251625000,3.688625,0.1385057270526886,-0.14345122873783112,0.1510055959224701
1782810966261697000,3.698697021484375,0.11920128017663956,-0.13161204755306244,0.19047896564006805
1782810966271768000,3.70876806640625,0.09383760392665863,-0.1080302819609642,0.22982557117938995
1782810966281840000,3.718840087890625,0.07638196647167206,-0.08335325866937637,0.24569667875766754
1782810966291912200,3.728912109375,0.06328534334897995,-0.0731285810470581,0.2411101758480072
1782810966301983200,3.738983154296875,0.05357975885272026,-0.08052508533000946,0.21566447615623474
1782810966312055000,3.749054931640625,0.045966580510139465,-0.11197755485773087,0.17417936027050018
1782810966322126000,3.7591259765625,0.0324307456612587,-0.13669319450855255,0.12843024730682373
1782810966332198100,3.7691982421875,0.011508419178426266,-0.16518396139144897,0.08797229826450348
1782810966342270200,3.779270263671875,-0.013779533095657825,-0.182165265083313,0.06892111152410507
1782810966352341200,3.78934130859375,-0.04168173670768738,-0.16760016977787018,0.07524105906486511
1782810966362413000,3.7994130859375,-0.0719512328505516,-0.13239480555057526,0.0912458524107933
1782810966372484000,3.809484130859375,-0.10233523696660995,-0.09228626638650894,0.09885876625776291
1782810966382556000,3.819555908203125,-0.12450007349252701,-0.050821706652641296,0.09635966271162033
1782810966392627000,3.829626953125,-0.13806433975696564,-0.011466309428215027,0.07525037974119186
1782810966402699000,3.839698974609375,-0.1417761594057083,-0.005767491180449724,0.031263746321201324
1782810966412771000,3.84977099609375,-0.13327135145664215,-0.011713797226548195,-0.014886968769133091
1782810966422842000,3.859842041015625,-0.12057003378868103,-0.010544206947088242,-0.06085073575377464
1782810966432914000,3.869913818359375,-0.11598912626504898,-0.017312897369265556,-0.10252947360277176
1782810966442986000,3.879986083984375,-0.11022413522005081,-0.03185970336198807,-0.1215556189417839
1782810966453057000,3.89005712890625,-0.1090313047170639,-0.03592102229595184,-0.1288532167673111
1782810966463129000,3.900129150390625,-0.11539189517498016,-0.03176286444067955,-0.12731684744358063
1782810966473200000,3.9102001953125,-0.12449777871370316,-0.028558015823364258,-0.11697445809841156
1782810966483272200,3.920272216796875,-0.1335543841123581,-0.010946797206997871,-0.0956321507692337
1782810966493343200,3.93034326171875,-0.13468408584594727,0.0054449583403766155,-0.07206690311431885
1782810966503415000,3.9404150390625,-0.13563674688339233,0.011379922740161419,-0.05318243056535721
1782810966513487000,3.950487060546875,-0.13302499055862427,0.026415864005684853,-0.03909137845039368
1782810966523558100,3.96055810546875,-0.130263090133667,0.046993013471364975,-0.029273102059960365
1782810966533630200,3.970630126953125,-0.12177320569753647,0.03650148957967758,-0.03635178506374359
1782810966543702000,3.980701904296875,-0.10693063586950302,0.025885194540023804,-0.05217069387435913
1782810966553773000,3.99077294921875,-0.0929919183254242,0.018078669905662537,-0.07876662164926529
1782810966563845000,4.00084521484375,-0.0768442153930664,0.00020212086383253336,-0.11388173699378967
1782810966573916000,4.010916015625,-0.06257819384336472,-0.026433484628796577,-0.14351260662078857
1782810966583988200,4.02098828125,-0.05504927411675453,-0.02628638595342636,-0.14625884592533112
1782810966594060300,4.031060302734375,-0.050864916294813156,-0.013117587193846703,-0.1362466961145401
1782810966604131000,4.041131103515625,-0.05153156444430351,0.01755988597869873,-0.11699842661619186
1782810966614203000,4.051202880859375,-0.04217880964279175,0.04323701933026314,-0.09848945587873459
1782810966624274000,4.06127392578125,-0.03101065754890442,0.04943627491593361,-0.0963706448674202
1782810966634346000,4.071345947265625,-0.016958754509687424,0.03477184474468231,-0.11009418219327927
1782810966644418000,4.08141796875,-0.006477534770965576,0.024069715291261673,-0.12593840062618256
1782810966654489000,4.091489013671875,0.004180435556918383,0.027288679033517838,-0.12982527911663055
1782810966664561200,4.10156103515625,0.005742634646594524,0.03981776535511017,-0.12550483644008636
1782810966674632200,4.111632080078125,0.009163198992609978,0.05672484636306763,-0.10801851749420166
1782810966684704000,4.1217041015625,0.010996127501130104,0.06836771219968796,-0.0868421271443367
1782810966694776000,4.131776123046875,0.013606293126940727,0.06486832350492477,-0.06789585947990417
1782810966704847000,4.14184716796875,0.01795056462287903,0.07117915153503418,-0.047505103051662445
1782810966714919200,4.151919189453125,0.01879212260246277,0.07174666970968246,-0.03736192360520363
1782810966724990200,4.161990234375,0.016284603625535965,0.056096259504556656,-0.04288372024893761
1782810966735062000,4.17206201171875,0.018869735300540924,0.035564620047807693,-0.060376960784196854
1782810966745134000,4.182134033203125,0.019541993737220764,0.024710532277822495,-0.07219662517309189
1782810966755205000,4.192205078125,0.02426484227180481,0.028698083013296127,-0.0878368392586708
1782810966765277200,4.202277099609375,0.02448900416493416,0.020279141142964363,-0.10228286683559418
1782810966775348200,4.21234814453125,0.025477835908532143,0.01093730516731739,-0.11453740298748016
1782810966785420300,4.222420166015625,0.024003272876143456,0.011410422623157501,-0.12251303344964981
1782810966795491000,4.232490966796875,0.026710109785199165,0.005547208245843649,-0.12612082064151764
1782810966805563000,4.24256298828125,0.027397625148296356,-0.0013785306364297867,-0.12390080839395523
1782810966815635000,4.252635009765625,0.023714473471045494,-0.001572142355144024,-0.1197260394692421
1782810966825706000,4.2627060546875,0.01782900094985962,0.004957318305969238,-0.10852984338998795
1782810966835778000,4.272778076171875,0.016120849177241325,0.008528350852429867,-0.09485451132059097
1782810966845849000,4.28284912109375,0.014400050044059753,-0.0018151444382965565,-0.08595529198646545
1782810966855921200,4.292921142578125,0.012195484712719917,-0.009314872324466705,-0.07963987439870834
1782810966865993000,4.302992919921875,0.006204876583069563,0.0027489145286381245,-0.060440078377723694
1782810966876064000,4.31306396484375,0.002423454076051712,0.025537317618727684,-0.044675495475530624
1782810966886136000,4.323135986328125,0.0005103690782561898,0.027591202408075333,-0.044777244329452515
1782810966896207000,4.33320703125,0.0004552416503429413,0.012698006816208363,-0.058437928557395935
1782810966906279200,4.343279052734375,-0.00020023307297378778,0.003693825099617243,-0.07397080957889557
1782810966916351000,4.35335107421875,0.004352441057562828,-0.005648810416460037,-0.08329693228006363
1782810966926422000,4.363422119140625,0.0009138794848695397,-0.012561121955513954,-0.08189771324396133
1782810966936494000,4.373494140625,0.002963980892673135,-0.005132234189659357,-0.06786951422691345
1782810966946565000,4.383565185546875,0.004692496731877327,0.008847163990139961,-0.04641321673989296
1782810966956637200,4.39363720703125,-0.001232237322255969,0.019049201160669327,-0.03870762512087822
1782810966966709200,4.403709228515625,-0.0032201630529016256,0.023815663531422615,-0.03497679531574249
1782810966976780300,4.4137802734375,-0.002566623268648982,0.027889499440789223,-0.030238501727581024
1782810966986852000,4.42385205078125,0.0027784002013504505,0.03520495817065239,-0.032858796417713165
1782810966996923000,4.4339228515625,0.005904152058064938,0.03653520718216896,-0.04219503700733185
1782810967006995000,4.443994873046875,0.012224562466144562,0.028331303969025612,-0.05747971311211586
1782810967017067300,4.4540673828125,0.02370757982134819,0.024074507877230644,-0.0737665444612503
1782810967027138000,4.464137939453125,0.0354367271065712,0.021307121962308884,-0.0885755717754364
1782810967037210000,4.474210205078125,0.04471731185913086,0.018971795216202736,-0.10019361227750778
1782810967047281200,4.48428125,0.05554281175136566,0.009674297645688057,-0.10743209719657898
1782810967057353000,4.49435302734375,0.061698973178863525,0.0012717577628791332,-0.09958695620298386
1782810967067424000,4.504424072265625,0.06806591898202896,0.011752028949558735,-0.076861672103405
1782810967077496000,4.51449609375,0.06495587527751923,0.02445823699235916,-0.05607675760984421
1782810967087568100,4.524568115234375,0.06454732269048691,0.02452494017779827,-0.034868672490119934
1782810967097639200,4.53463916015625,0.05989983677864075,0.02938467636704445,-0.017294205725193024
1782810967107711000,4.5447109375,0.05543587729334831,0.03220617026090622,-0.004763237200677395
1782810967117782000,4.554781982421875,0.056280363351106644,0.027787987142801285,0.007753353100270033
1782810967127854000,4.56485400390625,0.05677243694663048,0.020387550815939903,0.010941420681774616
1782810967137926100,4.574926025390625,0.0588102862238884,0.01172668393701315,0.002486150013282895
1782810967147997200,4.5849970703125,0.06008648872375488,-0.0038635877426713705,-0.007054372224956751
1782810967158069200,4.5950693359375,0.06216268986463547,-0.02736997976899147,-0.010604633018374443
1782810967168140300,4.605140380859375,0.06234916299581528,-0.043345857411623,-0.003123002825304866
1782810967178212000,4.615212158203125,0.06442510336637497,-0.07010982185602188,0.012174992822110653
1782810967188284200,4.6252841796875,0.06494578719139099,-0.07308042794466019,0.03941727057099342
1782810967198355000,4.63535498046875,0.06962309777736664,-0.04745842143893242,0.06154867261648178
1782810967208427300,4.64542724609375,0.04528702050447464,0.05248982459306717,0.06575220823287964
1782810967218498000,4.655498046875,-0.0032666679471731186,0.2531379759311676,0.03259851410984993
1782810967228570000,4.665570068359375,-0.04199543222784996,0.32644280791282654,-0.06494802236557007
1782810967238642000,4.675641845703125,-0.025539495050907135,0.11642592400312424,-0.2208223044872284
1782810967248713000,4.685712890625,0.027003750205039978,-0.03994470089673996,-0.34640365839004517
1782810967258785000,4.695784912109375,0.05986103042960167,-0.042620379477739334,-0.40907052159309387
1782810967268856000,4.70585595703125,0.07802032679319382,-0.02208753675222397,-0.45437008142471313
1782810967278928100,4.71592822265625,0.10173577070236206,-0.06487894058227539,-0.4875429570674896
1782810967288999200,4.725999267578125,0.12130182981491089,-0.135899156332016,-0.4867892861366272
1782810967299071000,4.736071044921875,0.13225939869880676,-0.156876340508461,-0.46629226207733154
1782810967309143000,4.74614306640625,0.13637211918830872,-0.10170696675777435,-0.40621668100357056
1782810967319214000,4.756214111328125,0.14041107892990112,0.016752302646636963,-0.33071473240852356
1782810967329286100,4.7662861328125,0.12455733120441437,0.08215024322271347,-0.29117289185523987
1782810967339357200,4.776357177734375,0.10400651395320892,0.06251821666955948,-0.2933889329433441
1782810967349429200,4.78642919921875,0.0929756760597229,0.02822268009185791,-0.2922605276107788
1782810967359501000,4.7965009765625,0.07632532715797424,-0.001956525957211852,-0.2672598361968994
1782810967369572000,4.806572021484375,0.05802403390407562,-0.006378859747201204,-0.220308318734169
1782810967379644200,4.81664404296875,0.046845681965351105,0.024445097893476486,-0.1542147845029831
1782810967389715200,4.826715087890625,0.033531464636325836,0.041813164949417114,-0.08933725953102112
1782810967399787300,4.836787353515625,0.017805764451622963,0.03662798926234245,-0.03442234918475151
1782810967409859000,4.846859130859375,0.005120092071592808,0.051165007054805756,0.022165026515722275
1782810967419929900,4.856929931640625,-0.007499562576413155,0.07205723226070404,0.06574153155088425
1782810967430002000,4.867001953125,-0.020351571962237358,0.06689716875553131,0.0839490219950676
1782810967440073000,4.877072998046875,-0.023474926128983498,0.03801918402314186,0.07459679991006851
1782810967450145000,4.88714501953125,-0.0240024421364069,0.014601362869143486,0.059851158410310745
1782810967460216000,4.897216064453125,-0.02719157747924328,0.004509048070758581,0.042993880808353424
1782810967470288100,4.9072880859375,-0.028026089072227478,-0.0048144846223294735,0.010621299967169762
1782810967480360000,4.91735986328125,-0.022276056930422783,-0.019022980704903603,-0.03194347023963928
1782810967490431000,4.927430908203125,-0.019976584240794182,-0.03269253671169281,-0.0763719379901886
1782810967500503000,4.9375029296875,-0.019148875027894974,-0.032971903681755066,-0.10105571150779724
1782810967510574000,4.947573974609375,-0.023080864921212196,-0.030164049938321114,-0.09538449347019196
1782810967520646100,4.957646240234375,-0.031738802790641785,-0.014128357172012329,-0.07853547483682632
1782810967530718200,4.96771826171875,-0.04103150591254234,0.017048539593815804,-0.048191435635089874
1782810967540789200,4.977789306640625,-0.04810912162065506,0.03960711508989334,-0.02319846861064434
1782810967550861000,4.987861083984375,-0.049063555896282196,0.043562594801187515,-0.010629409924149513
1782810967560932000,4.99793212890625,-0.04083465784788132,0.021693510934710503,-0.014986340887844563
1782810967571004200,5.008004150390625,-0.03915257751941681,0.0028387506026774645,-0.010019021108746529
1782810967581075200,5.0180751953125,-0.04157259315252304,0.009201042354106903,-0.0006857072585262358
1782810967591147300,5.028147216796875,-0.042281877249479294,0.02291879802942276,0.010316633619368076
1782810967601219000,5.038218994140625,-0.04465342313051224,0.02123967558145523,0.015766525641083717
1782810967611289900,5.048289794921875,-0.04075305163860321,0.0222614873200655,0.01827946864068508
1782810967621362000,5.05836181640625,-0.03688400983810425,0.018491782248020172,0.01725734770298004
1782810967631433000,5.068432861328125,-0.028029099106788635,0.009813574142754078,0.0033281950745731592
1782810967641505000,5.078505126953125,-0.015196656808257103,0.0018174330471083522,-0.011129840277135372
1782810967651577000,5.0885771484375,-0.005995479878038168,-0.0007451025303453207,-0.025721270591020584
1782810967661648100,5.098648193359375,-0.007292438764125109,-0.006905260030180216,-0.0373116098344326
1782810967671720000,5.108719970703125,-0.014380429871380329,-0.011075765825808048,-0.05054032430052757
1782810967681791000,5.118791015625,-0.023946769535541534,-0.014013499021530151,-0.05522242560982704
1782810967691863000,5.128863037109375,-0.027626078575849533,-0.00164011400192976,-0.040094904601573944
1782810967701934000,5.13893408203125,-0.02749505266547203,0.005754951387643814,-0.015237225219607353
1782810967712006100,5.149006103515625,-0.028508104383945465,0.011532943695783615,0.007582349237054586
1782810967722078200,5.159078125,-0.02991585060954094,0.013713274151086807,0.022104300558567047
1782810967732149200,5.169149169921875,-0.03294588252902031,0.007219611667096615,0.02579277567565441
1782810967742221000,5.179220947265625,-0.0354740209877491,-0.0021094412077218294,0.01862940564751625
1782810967752292000,5.1892919921875,-0.03376957029104233,-0.004873382858932018,0.0076638320460915565
1782810967762363600,5.19936376953125,-0.030815327540040016,-0.013784319162368774,-0.01250268891453743
1782810967772435700,5.209435791015625,-0.03161099553108215,-0.031218133866786957,-0.0327078178524971
1782810967782506500,5.219506591796875,-0.03656420856714249,-0.03987793251872063,-0.04070901870727539
1782810967792578600,5.22957861328125,-0.0435335598886013,-0.022889284417033195,-0.02960285171866417
1782810967802649600,5.239649658203125,-0.04376551881432533,-0.004997103940695524,-0.0031672483310103416
1782810967812721400,5.249721435546875,-0.0361320897936821,0.0026564544532448053,0.016619479283690453
1782810967822792400,5.25979248046875,-0.03193388134241104,-0.0052262358367443085,0.029133671894669533
1782810967832864500,5.269864501953125,-0.030479487031698227,-0.01538950763642788,0.04168568551540375
1782810967842936600,5.2799365234375,-0.03348672762513161,-0.005297726020216942,0.07497759908437729
1782810967853007600,5.290007568359375,-0.042143095284700394,0.009103691205382347,0.10313281416893005
1782810967863079400,5.300079345703125,-0.04061577469110489,0.010793733410537243,0.11826383322477341
1782810967873150500,5.310150390625,-0.0356360524892807,0.0014725863002240658,0.11568006128072739
1782810967883219500,5.320219482421875,-0.029484950006008148,-0.004134432878345251,0.09943664073944092
1782810967893291500,5.33029150390625,-0.022605977952480316,-0.013883314095437527,0.0692393109202385
1782810967903362600,5.340362548828125,-0.013537381775677204,-0.03235073760151863,0.025922464206814766
1782810967913434600,5.3504345703125,-0.002500668168067932,-0.0630781427025795,-0.010942071676254272
1782810967923505700,5.360505615234375,-0.0020583169534802437,-0.07291212677955627,-0.02387411519885063
1782810967933577500,5.370577392578125,-0.011401723138988018,-0.041786275804042816,0.0017039392841979861
1782810967943649500,5.3806494140625,-0.022299110889434814,-0.01058388315141201,0.03128846362233162
1782810967953720600,5.390720458984375,-0.018656693398952484,-0.0011757370084524155,0.0394342876970768
1782810967963792600,5.400792724609375,-0.008357983082532883,-0.0024585819337517023,0.03344643861055374
1782810967973863700,5.41086376953125,-0.0016953987069427967,-0.009448504075407982,0.012351006269454956
1782810967983935500,5.420935546875,0.0012862763833254576,-0.024702025577425957,-0.017199164256453514
1782810967994006500,5.431006591796875,0.00045353476889431477,-0.016856558620929718,-0.024013446643948555
1782810968004078600,5.44107861328125,-0.003409912809729576,0.0001586453290656209,-0.024249402806162834
1782810968014150700,5.451150634765625,-0.00351913133636117,0.005733111407607794,-0.0315978080034256
1782810968024221700,5.4612216796875,0.0030210595577955246,0.011899128556251526,-0.04517726972699165
1782810968034293800,5.471293701171875,0.014584757387638092,0.001718044513836503,-0.0706869438290596
1782810968044364800,5.48136474609375,0.0242051612585783,-0.014483828097581863,-0.09833774715662003
1782810968054436600,5.4914365234375,0.0322297140955925,-0.031037982553243637,-0.12280310690402985
1782810968064507400,5.50150732421875,0.0420575775206089,-0.03485935553908348,-0.1334078162908554
1782810968074579500,5.511579345703125,0.03852418065071106,-0.02182847261428833,-0.11722324043512344
1782810968084651500,5.521651611328125,0.034639693796634674,-0.014008632861077785,-0.0948052853345871
1782810968094722600,5.53172265625,0.028775453567504883,-0.005153471138328314,-0.06660693883895874
1782810968104794600,5.541794677734375,0.017338775098323822,0.0019132265588268638,-0.03422129899263382
1782810968114865700,5.55186572265625,0.0045664082281291485,0.0120713971555233,0.0020996928215026855
1782810968124937500,5.5619375,-0.002739175222814083,0.014271434396505356,0.03520544618368149
1782810968135008500,5.572008544921875,-0.002520388923585415,0.01606195792555809,0.060733433812856674
1782810968145080600,5.58208056640625,-0.01235943753272295,0.10690877586603165,0.11778553575277328
1782810968155152600,5.592152587890625,-0.02406749315559864,0.062358882278203964,0.10102120041847229
1782810968165223700,5.6022236328125,-0.013549338094890118,0.005930760875344276,0.0784330666065216
1782810968175295500,5.61229541015625,-0.008936000987887383,-0.02184472046792507,0.070234015583992
1782810968185366500,5.622366455078125,-0.012026333250105381,-0.051100343465805054,0.05803487077355385
1782810968195438600,5.6324384765625,-0.019679374992847443,-0.06116023659706116,0.05563133582472801
1782810968205509600,5.642509521484375,-0.028643308207392693,-0.06985785067081451,0.05604705587029457
1782810968215581700,5.652581787109375,-0.03007129579782486,-0.09151174873113632,0.04930073767900467
1782810968225653800,5.66265380859375,-0.032443635165691376,-0.08334968984127045,0.052936751395463943
1782810968235724800,5.672724853515625,-0.028806671500205994,-0.07231801003217697,0.042789045721292496
1782810968245796600,5.682796630859375,-0.03077208437025547,-0.06380574405193329,0.02145233005285263
1782810968255867400,5.692867431640625,-0.029997568577528,-0.03987719863653183,-0.004791263956576586
1782810968265939500,5.702939453125,-0.02661162242293358,0.044203322380781174,-0.008522884920239449
1782810968276011500,5.713011474609375,-0.027877243235707283,0.06614863127470016,-0.04745028167963028
1782810968286082600,5.72308251953125,-0.00996215920895338,0.01647268980741501,-0.10439345985651016
