time,seconds_elapsed,z,y,x
1782811338782203400,0.071203369140625,-0.31823602318763733,0.026165027171373367,-0.14043335616588593
1782811338792274400,0.0812744140625,-0.31105321645736694,0.06607462465763092,-0.21157516539096832
1782811338802346500,0.091346435546875,-0.2889501750469208,0.07517075538635254,-0.27229633927345276
1782811338812417500,0.10141748046875,-0.24425113201141357,0.07980571687221527,-0.3122938275337219
1782811338822488600,0.111488525390625,-0.17562295496463776,0.05790691822767258,-0.32222598791122437
1782811338832560600,0.121560546875,-0.09194190055131912,-0.010495573282241821,-0.3143736720085144
1782811338842631700,0.131631591796875,-0.006822488270699978,-0.09337442368268967,-0.28090977668762207
1782811338852703500,0.141703369140625,0.0669257715344429,-0.16911152005195618,-0.21335390210151672
1782811338862774300,0.151774169921875,0.11440065503120422,-0.19474829733371735,-0.11087920516729355
1782811338872845300,0.16184521484375,0.14893358945846558,-0.15104609727859497,0.015898974612355232
1782811338882917400,0.17191748046875,0.16567008197307587,-0.07409895211458206,0.12429579347372055
1782811338892988400,0.181988525390625,0.16752709448337555,0.008736543357372284,0.18314845860004425
1782811338903059500,0.1920595703125,0.15903763473033905,0.06469397991895676,0.184311643242836
1782811338913131500,0.202131591796875,0.14487680792808533,0.08159706741571426,0.13552306592464447
1782811338923202600,0.21220263671875,0.13080787658691406,0.06384319067001343,0.04860081523656845
1782811338933274600,0.222274658203125,0.10479944199323654,0.029478557407855988,-0.045963507145643234
1782811338943345700,0.232345703125,0.0655917078256607,0.0006092095281928778,-0.13485628366470337
1782811338953416700,0.242416748046875,0.029952488839626312,-0.02997666224837303,-0.21398040652275085
1782811338963488500,0.252488525390625,0.004529453814029694,-0.05202871561050415,-0.28748613595962524
1782811338973559300,0.262559326171875,-0.0077650295570492744,-0.05162205174565315,-0.34393665194511414
1782811338983630300,0.27263037109375,-0.013308786787092686,-0.028610317036509514,-0.3782459795475006
1782811338993702400,0.282702392578125,-0.012298117391765118,0.021623825654387474,-0.3805147111415863
1782811339003773400,0.2927734375,-0.004261762835085392,0.0773126557469368,-0.3481184244155884
1782811339013845500,0.302845458984375,0.018725313246250153,0.1454315185546875,-0.279405415058136
1782811339023916500,0.31291650390625,0.06076865270733833,0.21757376194000244,-0.17199043929576874
1782811339033987600,0.322987548828125,0.10381998121738434,0.2663080394268036,-0.05299188196659088
1782811339044059400,0.333059326171875,0.14530153572559357,0.2904928922653198,0.06281905621290207
1782811339054130400,0.34313037109375,0.18606041371822357,0.28314122557640076,0.1491432934999466
1782811339064201500,0.353201416015625,0.22217686474323273,0.24648568034172058,0.19905203580856323
1782811339074273500,0.3632734375,0.24497166275978088,0.1921800971031189,0.20118284225463867
1782811339084344300,0.37334423828125,0.2604272663593292,0.13662727177143097,0.16719289124011993
1782811339094416400,0.38341650390625,0.27662912011146545,0.08857985585927963,0.11062735319137573
1782811339104487400,0.3934873046875,0.28802555799484253,0.03741798922419548,0.04513279348611832
1782811339114558000,0.403557861328125,0.28350937366485596,-0.020967554301023483,-0.013070323504507542
1782811339124630300,0.41363037109375,0.27125731110572815,-0.04708322882652283,-0.06075260415673256
1782811339134701000,0.423701171875,0.2670383155345917,-0.0499354712665081,-0.08915388584136963
1782811339144773000,0.433773193359375,0.2599135637283325,-0.03146757557988167,-0.10758238285779953
1782811339154844200,0.44384423828125,0.24466802179813385,-0.007154511753469706,-0.10706493258476257
1782811339164915200,0.453915283203125,0.22808946669101715,0.025858251377940178,-0.09040752053260803
1782811339174987000,0.463987060546875,0.21680884063243866,0.07482393085956573,-0.06939943879842758
1782811339185058000,0.47405810546875,0.21024304628372192,0.12290730327367783,-0.05928517132997513
1782811339195129000,0.484129150390625,0.20311562716960907,0.14850907027721405,-0.07123477011919022
1782811339205201200,0.494201171875,0.20200400054454803,0.16598019003868103,-0.08277017623186111
1782811339215272200,0.504272216796875,0.20426049828529358,0.18076179921627045,-0.0990293025970459
1782811339225344300,0.51434423828125,0.21142207086086273,0.17106737196445465,-0.11409580707550049
1782811339235415000,0.5244150390625,0.2211569845676422,0.16426698863506317,-0.12281472980976105
1782811339245486000,0.534486083984375,0.240583598613739,0.17316120862960815,-0.11850690841674805
1782811339255558000,0.544557861328125,0.26183241605758667,0.18146388232707977,-0.10179238021373749
1782811339265629000,0.55462890625,0.27494680881500244,0.15714140236377716,-0.08586284518241882
1782811339275700000,0.564699951171875,0.2920789420604706,0.10342863947153091,-0.07975088804960251
1782811339285772000,0.57477197265625,0.30256953835487366,0.04286546632647514,-0.07355290651321411
1782811339295843000,0.584843017578125,0.30515971779823303,-0.006633644923567772,-0.07266873866319656
1782811339305915100,0.5949150390625,0.30900251865386963,-0.036657363176345825,-0.06455408781766891
1782811339315986200,0.604986083984375,0.3141336441040039,-0.04937928542494774,-0.059384897351264954
1782811339326057200,0.61505712890625,0.31876957416534424,-0.03931527957320213,-0.04412808269262314
1782811339336129300,0.62512939453125,0.3263776898384094,-0.020134925842285156,-0.02133914642035961
1782811339346200000,0.635199951171875,0.3339354395866394,0.0069695161655545235,-0.004471305292099714
1782811339356271000,0.64527099609375,0.34367382526397705,0.0384046733379364,0.010651188902556896
1782811339366343000,0.655343017578125,0.3534083366394043,0.07637625932693481,0.022990545257925987
1782811339376414000,0.6654140625,0.35602277517318726,0.10331200063228607,0.025998586788773537
1782811339386485000,0.675485107421875,0.3589390218257904,0.10599088668823242,0.018111703917384148
1782811339396557000,0.68555712890625,0.3684861958026886,0.08187542855739594,-0.001541360397823155
1782811339406628000,0.695628173828125,0.3742791712284088,0.026417987421154976,-0.026953665539622307
1782811339416700200,0.7057001953125,0.3784025311470032,-0.04349931329488754,-0.05343640595674515
1782811339426771200,0.715771240234375,0.3831842541694641,-0.11267384886741638,-0.07877904921770096
1782811339436842200,0.72584228515625,0.37469008564949036,-0.1780480593442917,-0.1004427969455719
1782811339446914300,0.735914306640625,0.35632622241973877,-0.22691422700881958,-0.11661059409379959
1782811339456985000,0.745985107421875,0.3348430097103119,-0.24747809767723083,-0.12378009408712387
1782811339467057000,0.756056884765625,0.3133619427680969,-0.22750690579414368,-0.12146616727113724
1782811339477128000,0.7661279296875,0.2955973148345947,-0.16901138424873352,-0.11927598714828491
1782811339487199000,0.776198974609375,0.2842019200325012,-0.07551339268684387,-0.11232726275920868
1782811339497271000,0.78627099609375,0.2740001678466797,0.03029639460146427,-0.09517384320497513
1782811339507342000,0.796342041015625,0.26535919308662415,0.12429863959550858,-0.06328512728214264
1782811339517413000,0.8064130859375,0.2626587450504303,0.1804007887840271,-0.030627578496932983
1782811339527485200,0.816485107421875,0.26059630513191223,0.19524656236171722,-0.0005670929094776511
1782811339537556200,0.82655615234375,0.25295355916023254,0.18274781107902527,0.015228381380438805
1782811339547628300,0.836628173828125,0.24622206389904022,0.14911825954914093,0.011200891807675362
1782811339557699300,0.84669921875,0.23008783161640167,0.07433190196752548,-0.014663994312286377
1782811339567770000,0.85677001953125,0.20736519992351532,-0.018475139513611794,-0.05608316510915756
1782811339577842000,0.866842041015625,0.18998435139656067,-0.08111508935689926,-0.08871248364448547
1782811339587913000,0.876912841796875,0.17924706637859344,-0.11153170466423035,-0.11554864794015884
1782811339597984000,0.88698388671875,0.16117192804813385,-0.12404562532901764,-0.128189355134964
1782811339608056000,0.89705615234375,0.14589552581310272,-0.11661873012781143,-0.12605445086956024
1782811339618127000,0.907127197265625,0.1320854276418686,-0.09493634104728699,-0.12479159235954285
1782811339628198100,0.9171982421875,0.12610459327697754,-0.07799508422613144,-0.13177955150604248
1782811339638270200,0.927270263671875,0.12365421652793884,-0.08942457288503647,-0.1510525941848755
1782811339648341200,0.93734130859375,0.11347055435180664,-0.11585777997970581,-0.17113229632377625
1782811339658413000,0.9474130859375,0.10072720795869827,-0.14640040695667267,-0.18742023408412933
1782811339668484000,0.957484130859375,0.08869421482086182,-0.16232797503471375,-0.18525388836860657
1782811339678555100,0.96755517578125,0.08651761710643768,-0.16428673267364502,-0.1640130579471588
1782811339688627000,0.977626953125,0.09646254032850266,-0.14454275369644165,-0.131415456533432
1782811339698698000,0.987697998046875,0.11255629360675812,-0.11920969933271408,-0.1016668826341629
1782811339708769000,0.99776904296875,0.13017737865447998,-0.10160280764102936,-0.08411367982625961
1782811339718841000,1.007841064453125,0.16622726619243622,-0.08371835201978683,-0.07941772788763046
1782811339728912100,1.017912109375,0.2100825309753418,-0.05897253751754761,-0.08729010075330734
1782811339738984200,1.027984130859375,0.25137510895729065,-0.03414122387766838,-0.1116580218076706
1782811339749055200,1.03805517578125,0.2961369752883911,-0.01555769331753254,-0.1321658343076706
1782811339759126300,1.048126220703125,0.33535921573638916,-0.015286849811673164,-0.1478009819984436
1782811339769198000,1.058197998046875,0.3579825460910797,-0.03510380908846855,-0.14690232276916504
1782811339779268900,1.068268798828125,0.3719939887523651,-0.06690408289432526,-0.1378622204065323
1782811339789340000,1.07833984375,0.36873024702072144,-0.1146862655878067,-0.1109231561422348
1782811339799412000,1.088411865234375,0.34780871868133545,-0.16747890412807465,-0.07711326330900192
1782811339809483000,1.09848291015625,0.3183201551437378,-0.19667698442935944,-0.04944322630763054
1782811339819555000,1.10855517578125,0.28597259521484375,-0.20973846316337585,-0.03420887887477875
1782811339829626000,1.118626220703125,0.25880616903305054,-0.20995312929153442,-0.04368645325303078
1782811339839697200,1.128697265625,0.23251572251319885,-0.20402252674102783,-0.07458817958831787
1782811339849769200,1.138769287109375,0.21529942750930786,-0.18179500102996826,-0.1203741803765297
1782811339859840300,1.14884033203125,0.19892551004886627,-0.1493299901485443,-0.1538171023130417
1782811339869911300,1.158911376953125,0.18139569461345673,-0.11823461204767227,-0.17291314899921417
1782811339879983000,1.168983154296875,0.16385185718536377,-0.1097622960805893,-0.18141742050647736
1782811339890054000,1.179053955078125,0.14272518455982208,-0.12910015881061554,-0.17754268646240234
1782811339900126000,1.1891259765625,0.12354536354541779,-0.15684391558170319,-0.1700647920370102
1782811339910197000,1.199197021484375,0.09641710668802261,-0.18948383629322052,-0.162913516163826
1782811339920268000,1.20926806640625,0.07297143340110779,-0.22740191221237183,-0.16453592479228973
1782811339930340000,1.219340087890625,0.05484724044799805,-0.26020315289497375,-0.17582635581493378
1782811339940411100,1.2294111328125,0.04052316024899483,-0.2784963846206665,-0.18907025456428528
1782811339950482200,1.239482177734375,0.02961478754878044,-0.2709956169128418,-0.20357923209667206
1782811339960554200,1.24955419921875,0.012607574462890625,-0.2531963884830475,-0.21047283709049225
1782811339970625300,1.259625244140625,-0.009143204428255558,-0.22597801685333252,-0.204878568649292
1782811339980697000,1.269697021484375,-0.04799020290374756,-0.1870998591184616,-0.1961929351091385
1782811339990768000,1.27976806640625,-0.10239899903535843,-0.14737066626548767,-0.19385170936584473
1782811340000839000,1.2898388671875,-0.17691823840141296,-0.1251939833164215,-0.20122255384922028
1782811340010911000,1.299910888671875,-0.2616211473941803,-0.11963649839162827,-0.22006520628929138
1782811340020982000,1.30998193359375,-0.3479994535446167,-0.11723992228507996,-0.24382540583610535
1782811340031053000,1.320052978515625,-0.4273764491081238,-0.1219831109046936,-0.2693147659301758
1782811340041125000,1.330125,-0.4754678010940552,-0.11976363509893417,-0.2771513760089874
1782811340051196200,1.340196044921875,-0.4806457757949829,-0.08788058906793594,-0.2581247389316559
1782811340061267200,1.35026708984375,-0.45031794905662537,-0.028364265337586403,-0.19572395086288452
1782811340071339000,1.360339111328125,-0.4012364149093628,0.03013339824974537,-0.10945218801498413
1782811340081410000,1.37041015625,-0.3485255539417267,0.06198427453637123,-0.003575017675757408
1782811340091482000,1.380482177734375,-0.30279484391212463,0.0625142902135849,0.09663395583629608
1782811340101553200,1.39055322265625,-0.2792426347732544,0.014614943414926529,0.17255881428718567
1782811340111624000,1.4006240234375,-0.28958234190940857,-0.0698789656162262,0.21373611688613892
1782811340121696800,1.41069677734375,-0.3292093873023987,-0.18502232432365417,0.22100122272968292
1782811340131767800,1.420767822265625,-0.37676194310188293,-0.2909144461154938,0.19156016409397125
1782811340141838800,1.4308388671875,-0.40964585542678833,-0.35283908247947693,0.16077002882957458
1782811340151910700,1.44091064453125,-0.41222548484802246,-0.3623431921005249,0.14173546433448792
1782811340161981700,1.450981689453125,-0.40663179755210876,-0.3370966911315918,0.12582281231880188
1782811340172052700,1.461052734375,-0.3950650691986084,-0.28633415699005127,0.13185879588127136
1782811340182124500,1.47112451171875,-0.39141786098480225,-0.21908988058567047,0.15157552063465118
1782811340192195600,1.481195556640625,-0.4045383036136627,-0.1399986743927002,0.17612209916114807
1782811340202267600,1.491267578125,-0.43148523569107056,-0.05548566207289696,0.20627069473266602
1782811340212338700,1.501338623046875,-0.4673566520214081,0.02988332509994507,0.22093205153942108
1782811340222409700,1.51140966796875,-0.5229943990707397,0.10836374759674072,0.23297087848186493
1782811340232481800,1.521481689453125,-0.5848132371902466,0.18704663217067719,0.24225080013275146
1782811340242552800,1.531552734375,-0.6346393823623657,0.2596220374107361,0.246131032705307
1782811340252624000,1.541623779296875,-0.6774909496307373,0.30557504296302795,0.23386262357234955
1782811340262695700,1.55169580078125,-0.7075777053833008,0.30578142404556274,0.20494627952575684
1782811340272766700,1.5617666015625,-0.714857280254364,0.26841652393341064,0.16416184604167938
1782811340282838800,1.5718388671875,-0.7151230573654175,0.20466363430023193,0.11701217293739319
1782811340292909600,1.58190966796875,-0.6968271136283875,0.13933056592941284,0.07868526130914688
1782811340302980600,1.591980712890625,-0.6519269943237305,0.08723542094230652,0.058616749942302704
1782811340313052700,1.602052734375,-0.5894073247909546,0.04966050386428833,0.0643090233206749
1782811340323123700,1.612123779296875,-0.5194290280342102,0.019924713298678398,0.09471726417541504
1782811340333194800,1.62219482421875,-0.4579964280128479,0.026867879554629326,0.14326244592666626
1782811340343266800,1.632266845703125,-0.41442710161209106,0.06918950378894806,0.19476318359375
1782811340353337900,1.642337890625,-0.3940114676952362,0.14890527725219727,0.2467595636844635
1782811340363409000,1.652408935546875,-0.39301222562789917,0.2424490749835968,0.29339873790740967
1782811340373480700,1.662480712890625,-0.396453320980072,0.32595500349998474,0.31992900371551514
1782811340383551700,1.6725517578125,-0.39801979064941406,0.38006696105003357,0.33240458369255066
1782811340393623800,1.682623779296875,-0.4003138542175293,0.4379907250404358,0.3133739233016968
1782811340403694600,1.692694580078125,-0.39037013053894043,0.48704323172569275,0.2749972343444824
1782811340413765600,1.702765625,-0.3717033863067627,0.5277476906776428,0.2222754806280136
1782811340423837700,1.712837646484375,-0.35371533036231995,0.5413303375244141,0.16599756479263306
1782811340433908700,1.72290869140625,-0.3276771903038025,0.5310154557228088,0.11533860862255096
1782811340443979800,1.732979736328125,-0.29318419098854065,0.5148082971572876,0.07882746309041977
1782811340454051800,1.7430517578125,-0.2567698061466217,0.4966731369495392,0.056272462010383606
1782811340464123000,1.753122802734375,-0.21644873917102814,0.4917801022529602,0.042898863554000854
1782811340474194700,1.763194580078125,-0.17101070284843445,0.47957223653793335,0.02880031056702137
1782811340484265700,1.773265625,-0.12750956416130066,0.4441530108451843,0.01498329732567072
1782811340494336500,1.78333642578125,-0.07374732196331024,0.38631197810173035,0.005549030378460884
1782811340504408800,1.793408935546875,-0.021364545449614525,0.3095756769180298,-0.0014367076801136136
1782811340514479600,1.803479736328125,0.020074041560292244,0.23171257972717285,-0.00004034696030430496
1782811340524550700,1.813550537109375,0.044319458305835724,0.15935182571411133,0.007108642254024744
1782811340534622700,1.823622802734375,0.0704546794295311,0.09874315559864044,0.020552905276417732
1782811340544693800,1.83369384765625,0.1027740016579628,0.04552174732089043,0.03601841256022453
1782811340554764800,1.843764892578125,0.14292655885219574,0.009819881990551949,0.05267287790775299
1782811340564836900,1.8538369140625,0.1804981678724289,-0.021389702335000038,0.07160422205924988
1782811340574908000,1.863907958984375,0.20407870411872864,-0.0374978743493557,0.08579406887292862
1782811340584979700,1.873979736328125,0.2136935144662857,-0.04695902019739151,0.09922758489847183
1782811340595050800,1.88405078125,0.22272247076034546,-0.055405352264642715,0.11915705353021622
1782811340605121500,1.89412158203125,0.24530528485774994,-0.06058706343173981,0.15120314061641693
1782811340615193600,1.904193603515625,0.26704737544059753,-0.09267660230398178,0.18536289036273956
1782811340625264600,1.9142646484375,0.2843203544616699,-0.15841832756996155,0.22712764143943787
1782811340635335700,1.924335693359375,0.27831578254699707,-0.23046748340129852,0.26563408970832825
1782811340645407700,1.93440771484375,0.25335797667503357,-0.2792414128780365,0.2946409583091736
1782811340655478800,1.944478759765625,0.2219853699207306,-0.29553475975990295,0.3036118447780609
1782811340665549800,1.9545498046875,0.18368351459503174,-0.27045977115631104,0.2909993827342987
1782811340675621600,1.96462158203125,0.13640564680099487,-0.2099420726299286,0.2617017328739166
1782811340685692700,1.974692626953125,0.0877949669957161,-0.13044218719005585,0.23059013485908508
1782811340695764700,1.9847646484375,0.035150546580553055,-0.07658764719963074,0.18584473431110382
1782811340705835800,1.994835693359375,-0.015935804694890976,-0.07147863507270813,0.12322688847780228
1782811340715906600,2.004906494140625,-0.07154781371355057,-0.11660866439342499,0.0515010729432106
1782811340725978600,2.014978515625,-0.13715212047100067,-0.1674574613571167,-0.013414274901151657
1782811340736049700,2.025049560546875,-0.19316023588180542,-0.16572459042072296,-0.05555994436144829
1782811340746120700,2.03512060546875,-0.21010778844356537,-0.11780474334955215,-0.08228769153356552
1782811340756192800,2.04519287109375,-0.18040427565574646,-0.045851003378629684,-0.09216804057359695
1782811340766263800,2.055263916015625,-0.11551956087350845,0.04788321256637573,-0.08799273520708084
1782811340776335600,2.065335693359375,-0.014783686026930809,0.14788617193698883,-0.06163331866264343
1782811340786406700,2.07540673828125,0.10717391222715378,0.23135602474212646,-0.015548382885754108
1782811340796477700,2.085477783203125,0.23740887641906738,0.27567216753959656,0.038407474756240845
1782811340806549800,2.0955498046875,0.371860146522522,0.25988975167274475,0.09359189867973328
1782811340816620800,2.105620849609375,0.48873570561408997,0.21764561533927917,0.13957251608371735
1782811340826691600,2.115691650390625,0.5992076396942139,0.216521754860878,0.17480933666229248
1782811340836763600,2.125763671875,0.7029755115509033,0.2738005518913269,0.19566302001476288
1782811340846834700,2.135834716796875,0.773750364780426,0.37234923243522644,0.20591086149215698
1782811340856905700,2.14590576171875,0.8408468961715698,0.4488774538040161,0.2082228660583496
1782811340866977800,2.155977783203125,0.8932555317878723,0.4815099537372589,0.1934894621372223
1782811340877048800,2.166048828125,0.928650975227356,0.45779693126678467,0.1585230976343155
1782811340887120600,2.17612060546875,0.9423401355743408,0.3897542357444763,0.11851388961076736
1782811340897191700,2.186191650390625,0.9366404414176941,0.30860379338264465,0.07594621181488037
1782811340907262700,2.1962626953125,0.9223510026931763,0.2153918296098709,0.037514667958021164
1782811340917334800,2.206334716796875,0.8945826888084412,0.09556553512811661,0.0009324779966846108
1782811340927405800,2.21640576171875,0.8517279028892517,-0.04112200811505318,-0.033286213874816895
1782811340937476600,2.2264765625,0.7929675579071045,-0.17812468111515045,-0.04610615596175194
1782811340947548700,2.236548583984375,0.7146314978599548,-0.2813575863838196,-0.049760811030864716
1782811340957619700,2.24661962890625,0.6396477222442627,-0.320584774017334,-0.04426954314112663
1782811340967690800,2.256690673828125,0.5749313235282898,-0.30873769521713257,-0.04082687571644783
1782811340977762800,2.2667626953125,0.5134178400039673,-0.25025010108947754,-0.04388570040464401
1782811340987833900,2.276833740234375,0.46767324209213257,-0.15948131680488586,-0.05139315128326416
1782811340997905700,2.28690576171875,0.43306586146354675,-0.07161465287208557,-0.05756458267569542
1782811341007976700,2.296976806640625,0.39916568994522095,-0.022070270031690598,-0.064456045627594
1782811341018047700,2.3070478515625,0.36061805486679077,0.003671964630484581,-0.06432998180389404
1782811341028119800,2.317119873046875,0.3250611126422882,0.026874488219618797,-0.04927379637956619
1782811341038190800,2.32719091796875,0.3055143356323242,0.05830785259604454,-0.0327630490064621
1782811341048261600,2.33726171875,0.2962758243083954,0.08699941635131836,-0.02320788986980915
1782811341058333700,2.347333740234375,0.2794663608074188,0.11593760550022125,-0.019875872880220413
1782811341068404700,2.35740478515625,0.2551887035369873,0.13939020037651062,-0.034453485161066055
1782811341078475800,2.367475830078125,0.24150168895721436,0.1543169766664505,-0.053069107234478
1782811341088547600,2.377547607421875,0.23639321327209473,0.14925110340118408,-0.07353789359331131
1782811341098618600,2.38761865234375,0.23322951793670654,0.12218745797872543,-0.09579455852508545
1782811341108690700,2.397690673828125,0.22141680121421814,0.06740410625934601,-0.12162242084741592
1782811341118761200,2.40776123046875,0.2060752958059311,0.014401303604245186,-0.1500132530927658
1782811341128832300,2.417832275390625,0.18561530113220215,-0.019831500947475433,-0.18303991854190826
1782811341138904300,2.427904296875,0.16930216550827026,-0.039635028690099716,-0.212705597281456
1782811341148975400,2.437975341796875,0.1473260372877121,-0.061349380761384964,-0.23421461880207062
1782811341159046400,2.44804638671875,0.12630468606948853,-0.08137833327054977,-0.24880237877368927
1782811341169118500,2.458118408203125,0.12244469672441483,-0.08352164179086685,-0.24578474462032318
1782811341179189500,2.468189453125,0.12945380806922913,-0.06347469985485077,-0.2316945642232895
1782811341189260300,2.47826025390625,0.14894601702690125,-0.038727011531591415,-0.22025255858898163
1782811341199332400,2.488332275390625,0.17975930869579315,-0.03313029929995537,-0.21014486253261566
1782811341209403400,2.4984033203125,0.2209906280040741,-0.04746982455253601,-0.2138274759054184
1782811341219475200,2.50847509765625,0.26952317357063293,-0.07123252749443054,-0.2145858258008957
1782811341229546200,2.518546142578125,0.31796741485595703,-0.09984207153320312,-0.2153102159500122
1782811341239617300,2.5286171875,0.3559591472148895,-0.17796075344085693,-0.22149904072284698
1782811341249689300,2.538689453125,0.36215364933013916,-0.27480870485305786,-0.2366154044866562
1782811341259760400,2.548760498046875,0.33221057057380676,-0.3822503983974457,-0.2704565227031708
1782811341269831400,2.55883154296875,0.2675982713699341,-0.47679927945137024,-0.3136729598045349
1782811341279903500,2.568903564453125,0.18352669477462769,-0.5139606595039368,-0.3477398753166199
1782811341289974500,2.578974609375,0.09610284119844437,-0.49119967222213745,-0.360288143157959
1782811341300045300,2.58904541015625,0.014781788922846317,-0.40680572390556335,-0.34237727522850037
1782811341310117000,2.5991171875,-0.05923757702112198,-0.2784096598625183,-0.2953450381755829
1782811341320188200,2.609188232421875,-0.13334324955940247,-0.12543319165706635,-0.24175067245960236
1782811341330260200,2.61926025390625,-0.2264484316110611,0.03853657841682434,-0.20885957777500153
1782811341340331300,2.629331298828125,-0.33316144347190857,0.16873137652873993,-0.21173730492591858
1782811341350402300,2.63940234375,-0.45475339889526367,0.26620838046073914,-0.2383928745985031
1782811341360474400,2.649474365234375,-0.5744393467903137,0.3370209038257599,-0.26639118790626526
1782811341370545400,2.65954541015625,-0.664828360080719,0.3599190413951874,-0.2858618199825287
1782811341380616400,2.669616455078125,-0.6969500780105591,0.35602837800979614,-0.299299418926239
1782811341390688500,2.6796884765625,-0.6754927039146423,0.3538355231285095,-0.28195613622665405
1782811341400759600,2.689759521484375,-0.6164117455482483,0.33183419704437256,-0.24580354988574982
1782811341410830300,2.699830322265625,-0.5513584613800049,0.25100088119506836,-0.18810802698135376
1782811341420902100,2.709902099609375,-0.5017952919006348,0.15028530359268188,-0.11879749596118927
1782811341430973200,2.71997314453125,-0.4717857539653778,0.080344557762146,-0.01885412447154522
1782811341441045200,2.730045166015625,-0.45011505484580994,0.06574602425098419,0.09073477238416672
1782811341451116300,2.7401162109375,-0.44077667593955994,0.09371161460876465,0.19783538579940796
1782811341461187300,2.750187255859375,-0.43927261233329773,0.1308647245168686,0.27180373668670654
1782811341471259400,2.76025927734375,-0.4458724558353424,0.13980096578598022,0.31325769424438477
1782811341481330400,2.770330322265625,-0.45923420786857605,0.13097970187664032,0.3324028253555298
1782811341491401500,2.7804013671875,-0.46140360832214355,0.12047326564788818,0.33692699670791626
1782811341501473500,2.7904736328125,-0.45506706833839417,0.10160928964614868,0.33368492126464844
1782811341511544600,2.800544677734375,-0.45037004351615906,0.06884601712226868,0.33397042751312256
1782811341521615400,2.810615478515625,-0.4446865916252136,0.025153132155537605,0.3298853933811188
1782811341531687200,2.820687255859375,-0.4384806454181671,-0.026958540081977844,0.32244691252708435
1782811341541758200,2.83075830078125,-0.4357173442840576,-0.06983783096075058,0.30395472049713135
1782811341551830300,2.840830322265625,-0.44402188062667847,-0.08713638782501221,0.28163689374923706
1782811341561901300,2.8509013671875,-0.4578199088573456,-0.07311344146728516,0.2611742615699768
1782811341571972400,2.860972412109375,-0.47611716389656067,-0.042059652507305145,0.25160473585128784
1782811341582044400,2.87104443359375,-0.4917617738246918,0.0031576654873788357,0.25903522968292236
1782811341592115500,2.881115478515625,-0.5025798082351685,0.051912423223257065,0.2887800633907318
1782811341602186500,2.8911865234375,-0.5172064304351807,0.0873427763581276,0.3165424168109894
1782811341612258600,2.901258544921875,-0.5365849137306213,0.11533738672733307,0.339023232460022
1782811341622329300,2.911329345703125,-0.5456124544143677,0.14183931052684784,0.3524286150932312
1782811341632400400,2.921400390625,-0.5321118235588074,0.1605357676744461,0.36167484521865845
1782811341642472200,2.93147216796875,-0.49462828040122986,0.16050109267234802,0.3655500113964081
1782811341652543200,2.941543212890625,-0.4559173583984375,0.12880229949951172,0.3711508810520172
1782811341662615300,2.951615234375,-0.42976805567741394,0.1005200520157814,0.3776133358478546
1782811341672686300,2.961686279296875,-0.40178701281547546,0.08000119775533676,0.3850552439689636
1782811341682757400,2.97175732421875,-0.3690239191055298,0.07775246351957321,0.39026376605033875
1782811341692829400,2.981829345703125,-0.33895763754844666,0.06611950695514679,0.3922278583049774
1782811341702900500,2.991900390625,-0.31796151399612427,0.04563215747475624,0.38288918137550354
1782811341712971500,3.001971435546875,-0.3018728494644165,0.015673991292715073,0.359727680683136
1782811341723043300,3.012043212890625,-0.29200348258018494,0.0012805175501853228,0.3281303644180298
1782811341733114400,3.0221142578125,-0.28186750411987305,-0.00750099029392004,0.2913457155227661
1782811341743185400,3.032185302734375,-0.27367472648620605,-0.03624475374817848,0.253414124250412
1782811341753257200,3.04225732421875,-0.26945760846138,-0.0875641331076622,0.21992406249046326
1782811341763328300,3.052328369140625,-0.27350738644599915,-0.14908204972743988,0.19228118658065796
1782811341773399300,3.0623994140625,-0.2821488082408905,-0.19885440170764923,0.17061877250671387
1782811341783471400,3.072471435546875,-0.29769304394721985,-0.23442129790782928,0.15526889264583588
1782811341793542400,3.08254248046875,-0.3112863600254059,-0.2867140769958496,0.14028355479240417
1782811341803614500,3.092614501953125,-0.32424017786979675,-0.3329276144504547,0.1383427083492279
1782811341813685500,3.102685546875,-0.3358081579208374,-0.35636767745018005,0.1337548792362213
1782811341823756500,3.112756591796875,-0.3461017310619354,-0.3486032485961914,0.1296086460351944
1782811341833828400,3.122828369140625,-0.3596143424510956,-0.3022298812866211,0.12333317846059799
1782811341843899100,3.132899169921875,-0.3715239465236664,-0.20843684673309326,0.12211804836988449
1782811341853970200,3.14297021484375,-0.38939934968948364,-0.09434808045625687,0.11918617784976959
1782811341864042200,3.153042236328125,-0.4098411500453949,0.015911774709820747,0.11784300208091736
1782811341874113300,3.16311328125,-0.4093921482563019,0.09421616792678833,0.11519689112901688
1782811341884184300,3.173184326171875,-0.3890671730041504,0.12914696335792542,0.11475305259227753
1782811341894256400,3.18325634765625,-0.34088581800460815,0.1460002362728119,0.11731661111116409
1782811341904327400,3.193327392578125,-0.2851211130619049,0.1919218748807907,0.12860268354415894
1782811341914399500,3.2033994140625,-0.22843998670578003,0.2508869171142578,0.1246875673532486
1782811341924470500,3.213470458984375,-0.16353599727153778,0.23990994691848755,0.08789195120334625
1782811341934541600,3.22354150390625,-0.0948413535952568,0.13072194159030914,0.020876161754131317
1782811341944613400,3.23361328125,-0.029888346791267395,-0.02019890397787094,-0.04833913594484329
1782811341954684200,3.24368408203125,0.016640538349747658,-0.14127260446548462,-0.1016140803694725
1782811341964755200,3.253755126953125,0.03739262744784355,-0.21340225636959076,-0.13713373243808746
1782811341974827300,3.2638271484375,0.0411631315946579,-0.25904297828674316,-0.16497336328029633
1782811341984898300,3.273898193359375,0.04204234480857849,-0.289609432220459,-0.19893720746040344
1782811341994969300,3.28396923828125,0.04643762856721878,-0.2948177754878998,-0.22962267696857452
1782811342005041400,3.29404150390625,0.054930515587329865,-0.2581322193145752,-0.2557373046875
1782811342015112400,3.304112548828125,0.0724133774638176,-0.18256902694702148,-0.2680983543395996
1782811342025184500,3.3141845703125,0.10402355343103409,-0.11975429207086563,-0.261159747838974
1782811342035255600,3.324255615234375,0.14763441681861877,-0.056666139513254166,-0.22416657209396362
1782811342045326300,3.334326416015625,0.19781921803951263,0.02977687492966652,-0.14212635159492493
1782811342055398400,3.3443984375,0.25077325105667114,0.14195774495601654,-0.03444410488009453
1782811342065469200,3.35446923828125,0.3069692850112915,0.25990206003189087,0.0839562639594078
1782811342075540200,3.364540283203125,0.3632029891014099,0.33907172083854675,0.18459047377109528
1782811342085612300,3.3746123046875,0.41473281383514404,0.37207210063934326,0.24582986533641815
1782811342095683300,3.384683349609375,0.4614830017089844,0.3639196455478668,0.26561662554740906
1782811342105754400,3.39475439453125,0.5168880224227905,0.321416437625885,0.25432324409484863
1782811342115825700,3.40482568359375,0.5806012153625488,0.2325265258550644,0.21709679067134857
1782811342125896700,3.414896728515625,0.6293920278549194,0.09622441232204437,0.1687239408493042
1782811342135967700,3.4249677734375,0.6552635431289673,-0.049488846212625504,0.11488894373178482
1782811342146039800,3.435039794921875,0.6686273813247681,-0.1909225732088089,0.05734848231077194
1782811342156110800,3.44511083984375,0.679989755153656,-0.3174741268157959,0.0022982798982411623
1782811342166182700,3.4551826171875,0.6830224990844727,-0.43442726135253906,-0.04773680493235588
1782811342176253700,3.465253662109375,0.6753299832344055,-0.5364888906478882,-0.09133727848529816
1782811342186324700,3.47532470703125,0.6504012942314148,-0.6047713756561279,-0.11947213113307953
1782811342196396800,3.485396728515625,0.606891930103302,-0.6231181621551514,-0.13683274388313293
1782811342206467800,3.4954677734375,0.5588676929473877,-0.5737800002098083,-0.12761349976062775
1782811342216538600,3.50553857421875,0.5056518912315369,-0.4653099477291107,-0.10329244285821915
1782811342226610700,3.515610595703125,0.44682934880256653,-0.33523425459861755,-0.0747675895690918
1782811342236681700,3.525681640625,0.3765994608402252,-0.21170644462108612,-0.057907845824956894
1782811342246752800,3.535752685546875,0.3167022168636322,-0.09355521202087402,-0.043777767568826675
1782811342256824800,3.545824951171875,0.27056828141212463,0.02079799398779869,-0.028138356283307076
1782811342266896000,3.555895751953125,0.23452401161193848,0.11638675630092621,-0.013135385699570179
1782811342276967000,3.565966796875,0.21386854350566864,0.17529241740703583,-0.004472122993320227
1782811342287038700,3.576038818359375,0.19760334491729736,0.19099661707878113,-0.010333186015486717
1782811342297109800,3.58610986328125,0.18207791447639465,0.1902988702058792,-0.029797431081533432
1782811342307181800,3.596181884765625,0.1732463836669922,0.17718908190727234,-0.05991328880190849
1782811342317252900,3.6062529296875,0.1675560027360916,0.13593165576457977,-0.09533439576625824
1782811342327323600,3.61632373046875,0.15215151011943817,0.07585512101650238,-0.12612709403038025
1782811342337395700,3.626395751953125,0.13772515952587128,0.026536567136645317,-0.1418123096227646
1782811342347466800,3.636466796875,0.11218263953924179,0.018401946872472763,-0.14286494255065918
1782811342357537800,3.646537841796875,0.09506011754274368,0.034535378217697144,-0.14003026485443115
1782811342367609900,3.65660986328125,0.08169401437044144,0.04384928196668625,-0.1451955884695053
1782811342377681000,3.666680908203125,0.07586835324764252,0.050565510988235474,-0.14417985081672668
1782811342387752000,3.676751953125,0.06637247651815414,0.058332331478595734,-0.15095382928848267
1782811342397823700,3.68682373046875,0.052180223166942596,0.06233106553554535,-0.15309260785579681
1782811342407894800,3.696894775390625,0.04293552413582802,0.052464909851551056,-0.17605049908161163
1782811342417966800,3.706966796875,0.03934505209326744,0.02777421474456787,-0.21317043900489807
1782811342428038000,3.717037841796875,0.02819293737411499,-0.013272358104586601,-0.2685869038105011
1782811342438108700,3.727108642578125,0.013015314936637878,-0.07376659661531448,-0.32954293489456177
1782811342448180700,3.7371806640625,-0.015197020024061203,-0.17692327499389648,-0.3977956771850586
1782811342458251800,3.747251708984375,-0.04950333014130592,-0.3085356056690216,-0.4557926654815674
1782811342468322800,3.75732275390625,-0.08027296513319016,-0.42485311627388,-0.48836079239845276
1782811342478394600,3.76739453125,-0.09925571084022522,-0.5080766081809998,-0.4790959060192108
1782811342488465700,3.777465576171875,-0.1196611076593399,-0.562427282333374,-0.44574055075645447
1782811342498536700,3.78753662109375,-0.14484582841396332,-0.5902810096740723,-0.39080116152763367
1782811342508608800,3.79760888671875,-0.16993968188762665,-0.5736132264137268,-0.33778002858161926
1782811342518679800,3.8076796875,-0.18825663626194,-0.5034540891647339,-0.27928611636161804
1782811342528750600,3.81775048828125,-0.20103655755519867,-0.3704697787761688,-0.2285611629486084
1782811342538822700,3.82782275390625,-0.2266353964805603,-0.1986093521118164,-0.21278566122055054
1782811342548893700,3.837893798828125,-0.28896835446357727,-0.050040535628795624,-0.24004708230495453
1782811342558965800,3.8479658203125,-0.38655030727386475,0.0346037782728672,-0.31390348076820374
1782811342569036800,3.858036865234375,-0.5009557604789734,0.07501781731843948,-0.4081849753856659
1782811342579107800,3.86810791015625,-0.597595751285553,0.09405063092708588,-0.4925030469894409
1782811342589179600,3.8781796875,-0.643276035785675,0.11483227461576462,-0.5391854047775269
1782811342599250700,3.888250732421875,-0.6363411545753479,0.13673250377178192,-0.5509664416313171
1782811342609321700,3.89832177734375,-0.5864666104316711,0.15262208878993988,-0.5195662379264832
1782811342619393800,3.908393798828125,-0.5110706686973572,0.15658541023731232,-0.45363888144493103
1782811342629464800,3.91846484375,-0.418476939201355,0.1494528353214264,-0.36191627383232117
1782811342639535600,3.92853564453125,-0.3222542703151703,0.1217370480298996,-0.2585238218307495
1782811342649607700,3.938607666015625,-0.26368391513824463,0.07639247179031372,-0.1637248992919922
1782811342659678700,3.9486787109375,-0.24133040010929108,0.010625170543789864,-0.09555409103631973
1782811342669750800,3.958750732421875,-0.2520962953567505,-0.06493978202342987,-0.062346577644348145
1782811342679821800,3.96882177734375,-0.2761281132698059,-0.11432997137308121,-0.0554383359849453
1782811342689892900,3.978892822265625,-0.3030966520309448,-0.10270901769399643,-0.06286206096410751
1782811342699964700,3.988964599609375,-0.3296840488910675,-0.045463837683200836,-0.07032637298107147
1782811342710035700,3.99903564453125,-0.35431045293807983,0.05318823456764221,-0.07464511692523956
1782811342720106800,4.009106689453125,-0.36616232991218567,0.15095101296901703,-0.06427130103111267
1782811342730178800,4.0191787109375,-0.37013062834739685,0.22492951154708862,-0.038624029606580734
1782811342740249900,4.029249755859375,-0.3665896952152252,0.252350777387619,0.0004037950129713863
1782811342750320600,4.039320556640625,-0.3603189289569855,0.24401046335697174,0.052769921720027924
1782811342760392700,4.049392822265625,-0.35810184478759766,0.19993647933006287,0.0922696590423584
1782811342770463700,4.059463623046875,-0.35904833674430847,0.1520860493183136,0.11196192353963852
1782811342780534800,4.06953466796875,-0.37327495217323303,0.11098308116197586,0.104191355407238
1782811342790606800,4.07960693359375,-0.3906533122062683,0.09044162929058075,0.06336689740419388
1782811342800678000,4.089677978515625,-0.4059728682041168,0.08797367662191391,0.019197305664420128
1782811342810749700,4.099749755859375,-0.41313406825065613,0.10612612962722778,-0.022418560460209846
1782811342820820700,4.10982080078125,-0.40852200984954834,0.14265510439872742,-0.04175284504890442
1782811342830891800,4.119891845703125,-0.3920901119709015,0.18824367225170135,-0.038935206830501556
1782811342840963800,4.1299638671875,-0.357453316450119,0.22591248154640198,-0.006962628103792667
1782811342851035000,4.140034912109375,-0.3084443509578705,0.25485706329345703,0.04993901401758194
1782811342861105700,4.150105712890625,-0.2532109022140503,0.2634497582912445,0.12427103519439697
1782811342871177700,4.160177734375,-0.1921982616186142,0.26176223158836365,0.20120172202587128
1782811342881248800,4.170248779296875,-0.13692249357700348,0.24991942942142487,0.26911473274230957
1782811342891319800,4.18031982421875,-0.08944306522607803,0.2230956107378006,0.32037821412086487
1782811342901392000,4.190391845703125,-0.06089771166443825,0.18232901394367218,0.3476391136646271
1782811342911462700,4.200462646484375,-0.04064210131764412,0.16413530707359314,0.3679581582546234
1782811342921533700,4.21053369140625,-0.02691883035004139,0.17242011427879333,0.3730596899986267
1782811342931605800,4.220605712890625,-0.022215409204363823,0.16729453206062317,0.36142948269844055
1782811342941676800,4.2306767578125,-0.014003819786012173,0.14371755719184875,0.33187609910964966
1782811342951748900,4.240748779296875,-0.00306123960763216,0.10015232861042023,0.2932846248149872
1782811342961819600,4.250819580078125,0.015215768478810787,0.045128218829631805,0.23458217084407806
1782811342971890700,4.260890625,0.038359273225069046,-0.04068046435713768,0.16988998651504517
1782811342981962800,4.270962646484375,0.06539275497198105,-0.16873642802238464,0.08250261098146439
1782811342992033800,4.28103369140625,0.0637112632393837,-0.3415035903453827,-0.005160550121217966
1782811343002104800,4.291104736328125,0.01635786145925522,-0.5131579041481018,-0.072426937520504
1782811343012176600,4.3011767578125,-0.04354754090309143,-0.6105827689170837,-0.08999336510896683
1782811343022247700,4.31124755859375,-0.07179568707942963,-0.6171395182609558,-0.05805034190416336
1782811343032318700,4.321318603515625,-0.06520101428031921,-0.5561943054199219,0.005789846647530794
1782811343042390800,4.331390869140625,-0.05939106643199921,-0.46975550055503845,0.07410924881696701
1782811343052461800,4.3414619140625,-0.07189790159463882,-0.36589059233665466,0.12727074325084686
1782811343062532600,4.35153271484375,-0.0900108590722084,-0.2702255845069885,0.14362415671348572
1782811343072604700,4.361604736328125,-0.10019838809967041,-0.18348784744739532,0.12585490942001343
1782811343082675700,4.37167578125,-0.0959586352109909,-0.12494143098592758,0.08377404510974884
1782811343092747800,4.381747802734375,-0.09093152731657028,-0.10948590189218521,0.032808903604745865
1782811343102818800,4.39181884765625,-0.08035265654325485,-0.12867450714111328,-0.015409224666655064
1782811343112889900,4.401889892578125,-0.07354871183633804,-0.15550775825977325,-0.05430257320404053
1782811343122962700,4.411962646484375,-0.0614454410970211,-0.1583123356103897,-0.06914330273866653
1782811343133033700,4.42203369140625,-0.03605565056204796,-0.12522929906845093,-0.05970553681254387
1782811343143104500,4.4321044921875,-0.02259976416826248,-0.05446670949459076,-0.040419723838567734
1782811343153176600,4.442176513671875,-0.016913361847400665,0.03285866230726242,-0.015578432939946651
1782811343163247600,4.45224755859375,-0.013133269734680653,0.07666180282831192,-0.015812259167432785
1782811343173318700,4.462318603515625,-0.0073562562465667725,0.030130162835121155,-0.04765501245856285
1782811343183390700,4.472390625,0.00914175994694233,-0.09051316976547241,-0.101659394800663
1782811343193461800,4.482461669921875,0.019122935831546783,-0.22554118931293488,-0.15630517899990082
1782811343203532800,4.49253271484375,0.01736551709473133,-0.31773582100868225,-0.19283948838710785
1782811343213604600,4.5026044921875,-0.0019638370722532272,-0.35078704357147217,-0.20231033861637115
1782811343223675600,4.512675537109375,-0.013710507191717625,-0.3207942843437195,-0.1864059418439865
1782811343233747700,4.522747802734375,-0.0037910952232778072,-0.24432873725891113,-0.1537380963563919
1782811343243818500,4.532818603515625,0.022861288860440254,-0.14274272322654724,-0.10707098990678787
1782811343253889500,4.5428896484375,0.05710005760192871,-0.039868585765361786,-0.05352894216775894
1782811343263961600,4.552961669921875,0.09586609154939651,0.055992696434259415,0.014549440704286098
1782811343274032600,4.56303271484375,0.1405579298734665,0.15770015120506287,0.08801673352718353
1782811343284103700,4.573103759765625,0.18979498744010925,0.23561331629753113,0.16676773130893707
1782811343294175700,4.58317578125,0.2404673546552658,0.28282031416893005,0.25231364369392395
1782811343304246800,4.593246826171875,0.2932378649711609,0.3156363070011139,0.3465948700904846
1782811343314317800,4.60331787109375,0.33701780438423157,0.36054855585098267,0.43942055106163025
1782811343324389600,4.6133896484375,0.38534754514694214,0.3876030743122101,0.514424741268158
1782811343334460700,4.623460693359375,0.4336358904838562,0.3743238151073456,0.5606274008750916
1782811343344531500,4.633531494140625,0.471982479095459,0.315973699092865,0.568730890750885
1782811343354603500,4.643603515625,0.5032815933227539,0.21673671901226044,0.543937087059021
1782811343364674600,4.653674560546875,0.5243141651153564,0.10643179714679718,0.504702627658844
1782811343374746600,4.66374658203125,0.5285698175430298,0.009512119926512241,0.45208534598350525
1782811343384817700,4.673817626953125,0.5248310565948486,-0.08220954239368439,0.38462185859680176
1782811343394888700,4.683888671875,0.5157099962234497,-0.16783732175827026,0.3126599192619324
1782811343404960500,4.69396044921875,0.5007398724555969,-0.22305609285831451,0.2392248660326004
1782811343415031600,4.704031494140625,0.4860675632953644,-0.2477630078792572,0.18307994306087494
1782811343425102600,4.7141025390625,0.4621148109436035,-0.25713494420051575,0.13085748255252838
1782811343435174700,4.724174560546875,0.4314239025115967,-0.2379136085510254,0.09929918497800827
1782811343445245700,4.73424560546875,0.4108869135379791,-0.19168245792388916,0.07998194545507431
1782811343455316500,4.74431640625,0.3954657316207886,-0.13244153559207916,0.07748681306838989
1782811343465388500,4.754388427734375,0.374509334564209,-0.07012490928173065,0.07954596728086472
1782811343475459600,4.76445947265625,0.34161126613616943,-0.014321532100439072,0.07778064906597137
1782811343485530600,4.774530517578125,0.295992910861969,0.038843151181936264,0.05657416582107544
1782811343495602700,4.784602783203125,0.24313980340957642,0.07139638066291809,0.016347063705325127
1782811343505673700,4.794673828125,0.19490090012550354,0.0860791876912117,-0.03916173428297043
1782811343515744800,4.804744873046875,0.14261706173419952,0.08927877992391586,-0.10302557051181793
1782811343525816600,4.814816650390625,0.09922963380813599,0.08815892040729523,-0.1625639945268631
1782811343535887600,4.8248876953125,0.07498155534267426,0.08354206383228302,-0.21109291911125183
1782811343545959700,4.834959716796875,0.07228802889585495,0.046448756009340286,-0.25292134284973145
1782811343556030700,4.84503076171875,0.0920029878616333,-0.0163896307349205,-0.2836390435695648
1782811343566101500,4.8551015625,0.1347603052854538,-0.10523801296949387,-0.30218636989593506
1782811343576173600,4.865173583984375,0.187430277466774,-0.20236165821552277,-0.2893246114253998
1782811343586244600,4.87524462890625,0.23277698457241058,-0.2802753746509552,-0.2519088089466095
1782811343596315600,4.885315673828125,0.26645731925964355,-0.3385413885116577,-0.19219417870044708
1782811343606387700,4.8953876953125,0.2848339080810547,-0.39077770709991455,-0.13071323931217194
1782811343616458800,4.905458740234375,0.29278939962387085,-0.42664554715156555,-0.0820837989449501
1782811343626529800,4.91552978515625,0.2888260781764984,-0.4305156469345093,-0.05756513774394989
1782811343636601600,4.9256015625,0.27352216839790344,-0.39383751153945923,-0.05366155132651329
1782811343646672600,4.935672607421875,0.2638804614543915,-0.3339576721191406,-0.06747084110975266
1782811343656743400,4.945743408203125,0.2588134706020355,-0.2776740491390228,-0.0762307420372963
1782811343666815700,4.955815673828125,0.25431326031684875,-0.24166277050971985,-0.09284806996583939
1782811343676886500,4.965886474609375,0.23924146592617035,-0.22766053676605225,-0.10766229033470154
1782811343686958600,4.97595849609375,0.21317657828330994,-0.21110126376152039,-0.11425095051527023
1782811343697029600,4.986029541015625,0.17796188592910767,-0.18432334065437317,-0.11266785860061646
1782811343707100700,4.9961005859375,0.14692114293575287,-0.18055230379104614,-0.1153469979763031
1782811343717172700,5.0061728515625,0.1057896539568901,-0.21751895546913147,-0.12842296063899994
1782811343727243800,5.016243896484375,0.057586438953876495,-0.2700761556625366,-0.15766766667366028
1782811343737314800,5.026314697265625,0.0010026649106293917,-0.31774356961250305,-0.19157461822032928
1782811343747386600,5.03638671875,-0.05830806493759155,-0.3455033004283905,-0.2311483919620514
1782811343757457700,5.046457763671875,-0.11980454623699188,-0.3192381262779236,-0.2626591622829437
1782811343767528400,5.056528564453125,-0.17353622615337372,-0.2279241681098938,-0.2707977890968323
1782811343777600500,5.0666005859375,-0.2145489752292633,-0.07140246778726578,-0.2607215344905853
1782811343787671600,5.076671630859375,-0.2702295482158661,0.08450724184513092,-0.2637234330177307
1782811343797742600,5.08674267578125,-0.3653690814971924,0.160484179854393,-0.30508849024772644
1782811343807814700,5.096814697265625,-0.47006353735923767,0.15129786729812622,-0.37749266624450684
1782811343817885700,5.1068857421875,-0.5783607363700867,0.13094359636306763,-0.4475288689136505
1782811343827957500,5.11695751953125,-0.6658532619476318,0.14683708548545837,-0.4935719966888428
1782811343838028500,5.127028564453125,-0.7094288468360901,0.19365906715393066,-0.49857667088508606
1782811343848099600,5.137099609375,-0.7021610736846924,0.25264114141464233,-0.4668392539024353
1782811343858171600,5.147171630859375,-0.640945315361023,0.290865033864975,-0.3929328918457031
1782811343868242700,5.15724267578125,-0.5533725619316101,0.3151746392250061,-0.28734681010246277
1782811343878313500,5.1673134765625,-0.4614814817905426,0.3262731432914734,-0.15266087651252747
1782811343888385500,5.177385498046875,-0.38658276200294495,0.3172908425331116,0.0024996919091790915
1782811343898456600,5.18745654296875,-0.3482612073421478,0.3207217752933502,0.15741096436977386
1782811343908527600,5.197527587890625,-0.33045104146003723,0.3320343494415283,0.29172375798225403
1782811343918599700,5.207599609375,-0.3239741623401642,0.35075992345809937,0.38634777069091797
1782811343928670700,5.217670654296875,-0.319579154253006,0.3477473556995392,0.43525460362434387
1782811343938741800,5.22774169921875,-0.32062503695487976,0.3242368996143341,0.4362199604511261
1782811343948813600,5.2378134765625,-0.31301745772361755,0.27184051275253296,0.41140517592430115
1782811343958884600,5.247884521484375,-0.29332607984542847,0.20827436447143555,0.37678682804107666
1782811343968955600,5.25795556640625,-0.2778283357620239,0.14180558919906616,0.3519861400127411
1782811343979027700,5.26802783203125,-0.2683798372745514,0.0908518061041832,0.3388417363166809
1782811343989098500,5.278098388671875,-0.28097471594810486,0.04669392853975296,0.32628706097602844
1782811343999170600,5.288170654296875,-0.31173425912857056,-0.004643264226615429,0.29635828733444214
1782811344009241600,5.29824169921875,-0.3557286262512207,-0.036176957190036774,0.248869851231575
1782811344019312600,5.308312744140625,-0.40668320655822754,-0.03917265683412552,0.18401776254177094
1782811344029382700,5.318382568359375,-0.455623060464859,-0.003720120992511511,0.11770957708358765
1782811344039453700,5.32845361328125,-0.49877944588661194,0.06271494925022125,0.055503953248262405
1782811344049524500,5.3385244140625,-0.5245652794837952,0.1309525966644287,0.018329953774809837
1782811344059596500,5.348596435546875,-0.5240117311477661,0.21416781842708588,0.006106566172093153
1782811344069667600,5.35866748046875,-0.49944138526916504,0.3107241690158844,0.020694030448794365
1782811344079739600,5.36873974609375,-0.46320581436157227,0.39112311601638794,0.05672401562333107
1782811344089810700,5.378810791015625,-0.4162372648715973,0.42005303502082825,0.10611526668071747
1782811344099881700,5.3888818359375,-0.3668632507324219,0.4083622992038727,0.1727830469608307
1782811344109953500,5.39895361328125,-0.3198819160461426,0.3724495768547058,0.2416212409734726
1782811344120024000,5.409024169921875,-0.2721295654773712,0.345577210187912,0.30919763445854187
1782811344130095000,5.41909521484375,-0.23273687064647675,0.31610107421875,0.36292317509651184
1782811344140167000,5.4291669921875,-0.20782731473445892,0.28474441170692444,0.4004947543144226
1782811344150237700,5.43923779296875,-0.2048853188753128,0.24388115108013153,0.4182652235031128
1782811344160308700,5.449308837890625,-0.2153112143278122,0.19344714283943176,0.41187500953674316
1782811344170380800,5.459380859375,-0.22243303060531616,0.14503434300422668,0.3923929035663605
1782811344180451800,5.469451904296875,-0.21451438963413239,0.10664327442646027,0.3577460050582886
1782811344190523000,5.47952294921875,-0.212691992521286,0.08497393131256104,0.3163791000843048
1782811344200595000,5.489594970703125,-0.21981285512447357,0.06477043032646179,0.2667974829673767
1782811344210666000,5.499666015625,-0.22973206639289856,0.05128658190369606,0.225373312830925
1782811344220737000,5.509737060546875,-0.23810143768787384,0.036704640835523605,0.20338617265224457
1782811344230809000,5.51980908203125,-0.25539469718933105,0.007789637427777052,0.17672260105609894
1782811344240879900,5.5298798828125,-0.2749851644039154,-0.052240144461393356,0.15028567612171173
1782811344250952000,5.539951904296875,-0.30377820134162903,-0.0874447301030159,0.12983286380767822
1782811344261022700,5.550022705078125,-0.33174413442611694,-0.06275203078985214,0.11764262616634369
1782811344271093800,5.56009375,-0.331739604473114,0.006887499243021011,0.1204083189368248
1782811344281165800,5.570165771484375,-0.3205304443836212,0.10480687767267227,0.1278725564479828
1782811344291236900,5.58023681640625,-0.30892279744148254,0.19564597308635712,0.12642405927181244
1782811344301308000,5.590307861328125,-0.3156140148639679,0.26176977157592773,0.11444903910160065
1782811344311380000,5.6003798828125,-0.3190138041973114,0.3102843165397644,0.0929030030965805
1782811344321451000,5.610450927734375,-0.29478785395622253,0.34776991605758667,0.06082701310515404
1782811344331522000,5.62052197265625,-0.2552409768104553,0.3635059893131256,0.026433086022734642
1782811344341593900,5.63059375,-0.19873981177806854,0.38945725560188293,0.00489975418895483
1782811344351665000,5.640664794921875,-0.13323163986206055,0.41972434520721436,0.027525437995791435
1782811344361736000,5.65073583984375,-0.07637535780668259,0.5007033348083496,0.05824439227581024
1782811344371807700,5.660807861328125,-0.02108919806778431,0.733130693435669,0.2181837260723114
1782811344381878800,5.670878662109375,-0.009963029064238071,0.6946040391921997,0.2955387532711029
1782811344391949800,5.68094970703125,-0.014967375434935093,0.5021573305130005,0.3260878622531891
1782811344402022000,5.69102197265625,0.03215092420578003,0.19659219682216644,0.294479638338089
1782811344412093000,5.701093017578125,0.10477106273174286,-0.05544111505150795,0.2412228137254715
1782811344422166800,5.711166748046875,0.17159514129161835,-0.2227342575788498,0.1530689001083374
1782811344432238800,5.72123876953125,0.21906732022762299,-0.2955426871776581,0.05560651794075966
1782811344442310000,5.731309814453125,0.24597226083278656,-0.3435923457145691,-0.036341384053230286
1782811344452381000,5.741380859375,0.21751344203948975,-0.4286326467990875,-0.09451068192720413
