time,seconds_elapsed,z,y,x
1782812001597469700,0.0804697265625,0.0052069209933280946,-0.02294287689584307,-0.006578131714719347
1782812001607540700,0.090540771484375,-0.0051233343631029125,-0.020115188322402534,-0.005403751889814156
1782812001617611800,0.10061181640625,0.001603343543410301,-0.02685615961574949,-0.007802663974417373
1782812001627682800,0.110682861328125,-0.007533902636170387,-0.02278717487747781,0.0029748362509475555
1782812001637755000,0.1207548828125,0.00008709376156330108,-0.019092265882296486,-0.01475474699299666
1782812001647826000,0.130825927734375,-0.003963058412075043,-0.018454488568566737,-0.0038878035020665264
1782812001657896700,0.140896728515625,0.007097849306464195,-0.017939479117980228,-0.014029153256851713
1782812001667967700,0.1509677734375,0.004691957208514213,-0.025968663590960204,0.011598851661785738
1782812001678038800,0.161038818359375,-0.011480594435334205,-0.01606957532656379,0.02031905403116252
1782812001688109800,0.17110986328125,-0.012393033105134963,-0.021704558139387518,0.01361070864907233
1782812001698182000,0.181181884765625,0.003605331015586853,-0.006363205755827948,-0.0039252973846858365
1782812001708253000,0.1912529296875,-0.0010439560949802398,-0.026486549985222516,0.000006026740343077108
1782812001718324000,0.201323974609375,-0.005396306085586547,-0.010569617070257662,0.000927488966815872
1782812001728394800,0.211394775390625,0.006261983004212379,-0.016631620522961018,0.0004870368815609254
1782812001738465800,0.2214658203125,-0.0003343465209007263,-0.014970327114081009,0.005959723538451362
1782812001748536800,0.231536865234375,-0.0021428572475910186,-0.001189702974911779,0.017896554433350684
1782812001758609000,0.24160888671875,0.001578209102153778,-0.0051986006895545864,-0.009460995957942213
1782812001768680000,0.251679931640625,0.00961421604156494,0.008395707097277045,-0.017632641658512874
1782812001778751000,0.2617509765625,-0.011864625316858292,-0.013283396940445526,-0.027140467866288962
1782812001788822000,0.271822021484375,-0.0014355857610702514,-0.00010650171493180095,-0.01564236517372774
1782812001798893000,0.28189306640625,-0.009649287354946136,-0.007479514700965955,-0.01953473525305744
1782812001808963800,0.2919638671875,0.013539280530810355,0.0017003650439437479,-0.01941369812269695
1782812001819035000,0.302034912109375,0.0018628712624311446,0.003029668285790831,-0.0025961927889497018
1782812001829106700,0.312106689453125,-0.002908580923080444,0.004260360858216882,-0.0054167369522619985
1782812001839177700,0.322177734375,-0.011444354078173636,-0.0016372366798575967,-0.02530032674218528
1782812001849248800,0.332248779296875,-0.0015565817922353743,-0.014865414568036793,-0.014005861429520882
1782812001859319800,0.34231982421875,-0.0027647885382175445,0.014101800651242957,-0.014318511000199942
1782812001869390800,0.352390869140625,-0.018625790014863013,0.007744239184912294,-0.010111495755927171
1782812001879462000,0.3624619140625,-0.010551789152622223,-0.002764541943045333,-0.0007350796587648801
1782812001889533700,0.37253369140625,-0.012044073536992073,0.0015798348036594688,-0.013804357782850274
1782812001899604700,0.382604736328125,-0.010842296531796455,0.001679998109349981,-0.008393484315794194
1782812001909675800,0.39267578125,0.00547287845313549,-0.00026518114167265594,-0.008222621260915185
1782812001919746800,0.402746826171875,0.0018815759629011153,0.009100293436367065,0.009422643558797426
1782812001929817900,0.41281787109375,-0.004113280537724495,0.0015251546075101942,-0.009449246154644061
1782812001939889000,0.422888916015625,-0.003950783452391624,-0.00512787354090251,-0.0007781527571554761
1782812001949959700,0.432959716796875,-0.004094575837254524,0.0007953698950819671,-0.014894154322042595
1782812001960031700,0.44303173828125,-0.0121779290497303,0.005160871628206223,-0.008859827752487035
1782812001970102800,0.453102783203125,-0.007687047371268272,-0.005365837882086635,0.005359493764623766
1782812001980173800,0.463173828125,0.0015904840618371963,0.002562206037668511,-0.002809159686195198
1782812001990244900,0.473244873046875,-0.010680968490242958,-0.008552103235386311,-0.008901669016660889
1782812002000316000,0.48331591796875,-0.0028945523977279663,0.003758941541565582,-0.0024533719433995427
1782812002010387000,0.493386962890625,-0.01815758798122406,-0.0009937785440124571,0.0005959771487512625
1782812002020459000,0.503458984375,-0.012024784314632416,-0.006094480950199067,-0.005229761871154187
1782812002030529800,0.51352978515625,0.0009960253000259398,-0.00006968596903607249,-0.014599674020649399
1782812002040600800,0.523600830078125,-0.00005085340440273285,0.0026140732222236693,-0.01208276272121002
1782812002050671900,0.533671875,-0.0009516016364097595,0.008610747220600023,-0.006271112733805785
1782812002060743000,0.543742919921875,-0.012023615270853041,-0.0014728490315377711,0.0005116336083447095
1782812002070814000,0.55381396484375,-0.007540332376956939,-0.004366488113813102,0.010139386126562022
1782812002080885000,0.563885009765625,-0.015170681124925613,0.0024420959224924444,-0.008205347040772902
1782812002090956800,0.573956787109375,-0.010980243697762489,-0.002988706087740138,0.006111803119402611
1782812002101027800,0.58402783203125,-0.013376198923587799,0.0016184954467695206,-0.0062654319116903934
1782812002111099000,0.594098876953125,-0.011430325552821159,-0.007351221279334277,0.009919725768693023
1782812002121170000,0.604169921875,0.003683656948804855,-0.004242816068371758,0.008211310990678612
1782812002131241000,0.614240966796875,-0.00798515353500843,0.01128876165766269,-0.020870187391189392
1782812002141312000,0.62431201171875,-0.01157704054713249,-0.005589253108110278,-0.014998030255048068
1782812002151383800,0.6343837890625,-0.02070551889836788,-0.015579070129571482,-0.0074485179161478295
1782812002161454800,0.644454833984375,-0.017861819905042646,-0.0009687263011466711,-0.01230259318408207
1782812002171526000,0.65452587890625,-0.018460954841971397,0.01268934003743343,0.000799173853942193
1782812002181596700,0.6645966796875,-0.0033458032965660092,0.00945968306697905,0.0014954958298301789
1782812002191667700,0.674667724609375,0.0017407061874866485,0.007694819685770198,-0.0073218205132696305
1782812002201738800,0.68473876953125,-0.010681553012132644,0.0038190285651944576,0.00475324638360762
1782812002211809800,0.694809814453125,-0.006488192975521087,-0.005702175430674105,0.007078514418331906
1782812002221881900,0.7048818359375,-0.01591594653427601,0.007702774663362652,-0.001753934420173755
1782812002231953000,0.714952880859375,-0.0020049100816249845,-0.024569427784904837,-0.0024518581230368
1782812002242024000,0.72502392578125,-0.005596212571859359,0.00029048911286517977,0.019585287263360805
1782812002252094700,0.7350947265625,-0.0021498715102672575,-0.0024155458422843367,0.00220663691975933
1782812002262165800,0.745165771484375,-0.01022679498195648,-0.0002504858960397541,-0.0024273618609528054
1782812002272236800,0.75523681640625,0.005786766707897186,0.001243789516016841,0.010348583314276766
1782812002282308900,0.765308837890625,0.009077624946832657,0.01418520461837761,0.003207954312011134
1782812002292380000,0.7753798828125,0.0003968903630971908,-0.0041198564089834685,-0.0010799835354759124
1782812002302451000,0.785450927734375,-0.008279752567410469,-0.0006900463570840656,-0.004568983278571977
1782812002312522000,0.79552197265625,-0.015169512081146239,0.009357729663001373,-0.0047026903775491515
1782812002322593000,0.805593017578125,-0.010980243697762489,0.0026243936868384477,0.005131553631354473
1782812002332663800,0.815663818359375,-0.008283259698748588,-0.004637980265263467,-0.003188385386794107
1782812002342734800,0.82573486328125,0.00039630584120750427,0.0014403715340420603,-0.00814400535004097
1782812002352807000,0.835806884765625,0.0012947159856557845,0.00781486586886458,0.0031797990798950195
1782812002362878200,0.845878173828125,0.016109423279762267,-0.002229521750891581,0.0017712371814239303
1782812002372949000,0.855948974609375,-0.007383095988631248,-0.0004730608718469739,0.018987504033301957
1782812002383020000,0.86602001953125,-0.01097322943508625,0.00005356595129705965,-0.001072815721639199
1782812002393091000,0.876091064453125,-0.011867547926306723,0.004626088898070156,-0.00007781333492021075
1782812002403162000,0.886162109375,-0.00289221431016922,-0.008952975653856993,0.00702288722822268
1782812002413233200,0.896233154296875,-0.0004997662156820296,-0.005849164419621229,0.0008707606607640628
1782812002423305000,0.906304931640625,0.004141337588429451,0.005682045958098024,0.0024665379564714385
1782812002433376000,0.9163759765625,0.00234627086520195,0.006823178817238658,0.0030543774645397205
1782812002443446800,0.92644677734375,-0.0033417116433382033,0.01052554959966801,0.005316647853452014
1782812002453517800,0.936517822265625,-0.003939677536487579,-0.002218854226404801,0.0042479660258803046
1782812002463588900,0.9465888671875,-0.0036409868508577347,0.007096917724702507,0.0020928372435388156
1782812002473660000,0.956659912109375,-0.01680734241604805,-0.007852056074095889,-0.011874411491933278
1782812002483732000,0.96673193359375,0.0018961890101432798,-0.0067085303284693506,0.011417608776787528
1782812002493803000,0.976802978515625,-0.0013946692287921906,0.020439789767423642,0.0014765896291384706
1782812002503874000,0.9868740234375,-0.013064648756384849,0.01120872782454826,0.006659986470517469
1782812002513944800,0.99694482421875,-0.017552607825398445,-0.0034168227061629293,0.007666907623893348
1782812002524015900,1.007015869140625,-0.005579845958948135,-0.005157090502232313,0.0014602207329386147
1782812002534087000,1.0170869140625,-0.010368249279260635,-0.002618320139078423,0.014267587955493944
1782812002544158000,1.027157958984375,-0.00019230770170688627,-0.00593315290864557,0.011800727484503294
1782812002554230000,1.03722998046875,0.0007049333989620208,0.021497235531639305,0.006705005501644336
1782812002564301000,1.047301025390625,-0.0016904373049736023,0.00016547449370846152,0.00873540678837453
1782812002574372000,1.0573720703125,-0.006025836160778999,-0.0020506397863384335,-0.008137418062338838
1782812002584443100,1.067443115234375,0.0020569325298070906,-0.00804853762742132,0.0051334259280323745
1782812002594514000,1.077513916015625,-0.01919452981352806,-0.0039908506012987345,0.0008334625701449113
1782812002604585000,1.0875849609375,-0.00033960721790790555,-0.013140810131980105,-0.0007852332352020311
1782812002614656000,1.097656005859375,-0.01994096426665783,0.006364721859479323,0.0009413228418125072
1782812002624728000,1.10772802734375,-0.01635141534209251,-0.002501096100732684,0.018763979209423996
1782812002634799000,1.117799072265625,0.004002221378684044,0.007042073131771758,0.008282579278736374
1782812002644870100,1.1278701171875,0.010437222862243651,0.005326154325669631,-0.0006116142509446945
1782812002654941200,1.137941162109375,0.004750409397482872,0.0017973043460864572,-0.009446156865125522
1782812002665012000,1.148011962890625,0.003250526228547096,-0.025219452658854422,0.010177385757613228
1782812002675083000,1.1580830078125,0.001454290461540222,-0.010965621517365798,0.006041750682541169
1782812002685154000,1.168154052734375,-0.0063303720653057095,0.0021661559247877446,-0.018642543645197292
1782812002695225900,1.178225830078125,-0.010219780719280242,-0.013791611324064432,-0.001969431201223051
1782812002705297000,1.188296875,0.0017529811471700667,-0.004641240801429376,-0.0016253658622619694
1782812002715368000,1.198367919921875,-0.00677343965768814,0.009083223570557311,0.0006693323626182973
1782812002725439000,1.20843896484375,-0.00826923117339611,-0.0012875738588161766,-0.002753810486476868
1782812002735509800,1.218509765625,0.011034604233503342,0.0003276062528602779,0.006472140314796706
1782812002745580800,1.228580810546875,-0.014407295536994933,0.008755215458897873,-0.007467074202856747
1782812002755652900,1.23865283203125,-0.013660276561975479,0.002576280228793621,-0.0053445439323084425
1782812002765724000,1.248723876953125,0.0017529811471700667,0.010020897146314382,-0.004419246922578895
1782812002775795000,1.258794921875,0.00998246483206749,-0.0005498341687954962,-0.0046113708195509385
1782812002785866000,1.268865966796875,0.005043839386105537,0.010252678341884166,-0.005119340891286264
1782812002795937000,1.27893701171875,-0.008422375908493995,-0.003891609744215384,0.008254167176649207
1782812002806008000,1.289008056640625,-0.0007885200291872024,-0.0020944423954468217,-0.008121292336378247
1782812002816078800,1.299078857421875,-0.006924830827116966,0.002290832617226988,-0.0018098795582249293
1782812002826151000,1.30915087890625,-0.008571428990364074,0.018809740880178286,0.009764205271773971
1782812002836222000,1.319221923828125,-0.00872106659412384,-0.0019995945856906474,0.007380821833154186
1782812002846293000,1.32929296875,-0.012162146958708762,-0.002305345199769363,0.007733410688576987
1782812002856364000,1.339364013671875,-0.00019055413603782652,-0.004880474651092663,0.013095274506800342
1782812002866435000,1.34943505859375,-0.012011924833059311,-0.006226509832032025,0.005838982093968661
1782812002876506000,1.359506103515625,-0.003184475255012512,-0.007053188180830329,-0.0015435567722364794
1782812002886577000,1.369576904296875,-0.021291794353723525,0.011568290985096246,0.002737860573740909
1782812002896649000,1.37964892578125,-0.005877367600798607,-0.008757489614374935,0.0025048269943566993
1782812002906720000,1.389719970703125,0.010884966629743576,0.009632409285381435,0.0025887926504947244
1782812002916791000,1.399791015625,-0.004379237997531891,0.0062389400553423905,0.005675261165929259
1782812002926862000,1.409862060546875,0.0014566285490989685,-0.004236075800331309,-0.005710438652231823
1782812002936933000,1.41993310546875,-0.000339022696018219,-0.01593475169944577,0.005436751118762185
1782812002947004200,1.430004150390625,0.0007084405303001403,0.0022969518307596444,0.013114769225136842
1782812002957076000,1.440075927734375,-0.017847206857800484,0.006566445843502878,0.000383099299762398
1782812002967146800,1.450146728515625,-0.010067220506072044,0.006477150991698727,0.010430770288570784
1782812002977217800,1.4602177734375,0.0063911623418331145,0.015558155205706133,-0.00026858324173372237
1782812002987288800,1.470288818359375,0.005942834052443504,0.0017503781981300561,-0.015534318814036668
1782812002997359900,1.48035986328125,-0.012612228813767433,0.008937339693307875,0.005354126894695218
1782812003007431000,1.490430908203125,-0.006925999870896339,-0.0006445175817701965,0.0026283472011040428
1782812003017502000,1.500501953125,-0.013212532794475554,0.01129977624202147,0.00023818011195980942
1782812003027573000,1.510572998046875,-0.002139350116252899,-0.00011598192933015524,-0.0021958569433074442
1782812003037644800,1.520644775390625,0.004894201782345771,-0.002233403341565281,0.001444632150628604
1782812003047715800,1.5307158203125,-0.00393266327381134,-0.010417705311020835,-0.00038827323180157686
1782812003057787000,1.540786865234375,-0.007672434324026108,-0.0018201280992478132,0.0015152976504876278
1782812003067858000,1.55085791015625,-0.0034837504625320433,0.0129309941730462,-0.015652834052103572
1782812003077929000,1.560928955078125,-0.01754968521595001,0.016367179166805,0.005572711823618738
1782812003088000000,1.571,0.008039514070749283,0.0064264711172319945,0.008425765450467589
1782812003098072000,1.581072021484375,0.010286416214704512,0.0005857913981657474,0.022697907425137234
1782812003108143000,1.59114306640625,-0.01290858141183853,0.001977930743154138,0.007742824687605025
1782812003118214000,1.6012138671875,0.0054985974162817,-0.005750471551809459,-0.016374577021971343
1782812003128285000,1.611284912109375,0.009987141007184982,-0.001529602453764528,-0.002646959428384434
1782812003138356000,1.62135595703125,-0.0024327801048755642,-0.008894295136025175,0.00030529738128534515
1782812003148427000,1.631427001953125,-0.004224924218654632,-0.004466806683130562,-0.0006738441409543157
1782812003158498000,1.641498046875,-0.009312018224596976,0.018549199381005018,-0.004237255118909524
1782812003168570000,1.651570068359375,-0.014250059148669243,-0.0026989932930096983,0.011237492694729007
1782812003178641200,1.66164111328125,-0.009762100079655646,-0.01578867602595128,-0.0005064322768419515
1782812003188712000,1.6717119140625,0.007743161472678184,-0.009207818064605817,-0.016285210246575296
1782812003198783000,1.681782958984375,-0.001835398733615875,0.007680334502691403,-0.008808938957110513
1782812003208854000,1.69185400390625,-0.014254735323786735,0.0016984379483386872,0.001101716447493527
1782812003218925000,1.701925048828125,0.0072936641395092,-0.0025226229459512977,0.006383836410258663
1782812003228996000,1.71199609375,-0.004229600393772125,0.006053034694958478,-0.002053224469069391
1782812003239068000,1.72206787109375,-0.000039162966609001156,0.0052849455324467266,-0.0010426055297546553
1782812003249139000,1.732138916015625,0.002503507253527641,0.004025026865536347,-0.01440289335651323
1782812003259210000,1.7422099609375,-0.009319032487273216,-0.00264276959374547,-0.003616646994045004
1782812003269281000,1.752281005859375,-0.00064005146920681,-0.004407523377100006,0.0041858000679523685
1782812003279352000,1.76235205078125,0.00010930559337139129,-0.0018189407891593872,0.0030183134914259424
1782812003289423000,1.772423095703125,-0.0007879355072975159,0.0071337426037527615,0.01448399691035156
1782812003299494100,1.782494140625,-0.008419453299045563,-0.011881064995005726,0.005314809806103585
1782812003309566000,1.79256591796875,-0.0037801030606031414,0.0054387021888978775,-0.0035812343290133864
1782812003319637000,1.802636962890625,-0.009164718708395957,0.006620450186217203,0.005928107982414076
1782812003329708000,1.8127080078125,-0.014100421544909477,0.0031974534675944595,-0.005061668445385294
1782812003339778800,1.82277880859375,-0.0073667293757200235,-0.005187832700368017,0.0000864293245715089
1782812003349849900,1.832849853515625,-0.0022813889354467392,-0.00786653212402016,0.0029648103305662515
1782812003359921000,1.8429208984375,0.0010100538253784179,-0.005745402651047333,0.017995186794013716
1782812003369991400,1.852991455078125,-0.0015349544823169707,0.010342539449268951,0.023946553496073466
1782812003380063500,1.8630634765625,0.009984802919626235,0.0075134535031858825,0.0036577267814602234
1782812003390134500,1.873134521484375,0.0041501054167747495,0.003247475754935294,-0.0010647351631720085
1782812003400205300,1.883205322265625,0.012680033352971076,-0.006665522303804755,-0.00754353240597411
1782812003410276400,1.8932763671875,-0.005427285745739936,-0.0050985926474910225,0.017391726166772422
1782812003420347400,1.903347412109375,-0.017249825486540794,0.0024855697380378843,0.007306606961117359
1782812003430418400,1.91341845703125,-0.011265490379929542,0.013200139103783294,-0.0056266122767003246
1782812003440489500,1.923489501953125,0.005642974323034286,0.002592089719278738,0.0005076447031053249
1782812003450561500,1.9335615234375,-0.0033329438149929044,-0.00324974077725783,0.002055463233572664
1782812003460632600,1.943632568359375,0.013127192598581314,0.003484079256094992,0.016167439360602293
1782812003470703400,1.953703369140625,-0.0003419453054666519,0.010787223610002547,0.008898600276740035
1782812003480774400,1.9637744140625,-0.01141454346179962,-0.0035996319271624088,-0.01502046470749774
1782812003490845400,1.973845458984375,0.003249357184767723,-0.003571428745985031,0.01699709968435345
1782812003500916500,1.98391650390625,0.006394084951281547,-0.007165398117341101,-0.00964991868425277
1782812003510987500,1.993987548828125,-0.0015349544823169707,-0.009965303634712472,0.015116731581138446
1782812003521059600,2.0040595703125,-0.0018359832555055618,-0.005080024944338947,-0.0022896247575408778
1782812003531130600,2.014130615234375,-0.0034837504625320433,-0.005832998736109585,-0.0015667618345993105
1782812003541201700,2.02420166015625,-0.007523381242156029,0.014616015517385676,-0.002633819673131802
1782812003551272400,2.0342724609375,0.0008592471778392792,-0.005470741294976323,-0.015719686459947844
1782812003561343500,2.044343505859375,-0.003929740664362907,0.003106414183275774,-0.015372715636203065
1782812003571414500,2.05441455078125,-0.005126841494441032,0.0066916705252137035,-0.011737693876895354
1782812003581485600,2.064485595703125,-0.00048690673410892486,-0.0011831362368073313,-0.00719373943748069
1782812003591557400,2.074557373046875,-0.009317278921604156,-0.01662578443721868,-0.015279274332243948
1782812003601628400,2.08462841796875,-0.001685176607966423,-0.0009390983478631824,-0.012556419531389838
1782812003611699500,2.094699462890625,0.007293079617619514,-0.00006682729166932403,-0.01157134031706373
1782812003621770500,2.1047705078125,-0.00916588775217533,0.01033210025364533,-0.0029740365291043417
1782812003631841500,2.114841552734375,0.005199322208762168,-0.011053783858008683,-0.00393761972260836
1782812003641912600,2.12491259765625,-0.004826397243142128,-0.005819664330501109,-0.010416040793608408
1782812003651983600,2.134983642578125,-0.011409867286682128,-0.00810032261358574,-0.0030470001589710588
1782812003662055400,2.145055419921875,-0.006319850671291351,-0.01825306597864255,0.0028479236481158293
1782812003672126500,2.15512646484375,-0.011409282764792441,0.008025869137886912,-0.004519951938497252
1782812003682197500,2.165197509765625,-0.018891162952780722,-0.006471616300055757,-0.0026406427103851456
1782812003692268300,2.175268310546875,-0.015897241833806038,0.009312529681250452,0.006648794931289739
1782812003702339300,2.18533935546875,0.0025087679505348204,0.0013420987913385033,0.01764522942873882
1782812003712410400,2.195410400390625,-0.0073678984194993965,-0.006540261089475825,0.0027004574518447043
1782812003722481400,2.2054814453125,-0.0025800796210765837,-0.006512331902934238,-0.008501644269094685
1782812003732553500,2.215553466796875,-0.0009346505016088485,0.004756866537733003,-0.004137767666653963
1782812003742624500,2.22562451171875,-0.005425532180070877,-0.009314274113764986,0.013359655355807626
1782812003752695600,2.235695556640625,0.002506429862976074,-0.007463960938807576,0.0021799412799009587
1782812003762766600,2.2457666015625,-0.010810147827863693,0.011319147662771865,-0.0012385311022982933
1782812003772837400,2.25583740234375,0.0029606033712625502,-0.008251129261124878,-0.0016334487040177918
1782812003782908400,2.265908447265625,-0.0016764087796211243,-0.004498087737383321,0.01929861580908764
1782812003792979500,2.2759794921875,0.00849836375415325,-0.002382666485989466,0.0031699626724701374
1782812003803051500,2.286051513671875,-0.007063947036862373,-0.00434811220690608,0.00007023338748549576
1782812003813122600,2.29612255859375,0.0032622166663408276,-0.00457301613711752,-0.0016862651658215327
1782812003823193600,2.306193603515625,0.008946692043542861,0.010971923393988982,0.0003453953545889817
1782812003833264600,2.3162646484375,-0.000481061515212059,0.006648443304840475,0.009313340819536824
1782812003843335400,2.32633544921875,0.0010158990442752838,0.005274250608496367,-0.0017067639603337737
1782812003853406500,2.336406494140625,-0.022628011393547056,0.0030925043889321385,-0.004091060714406194
1782812003863477500,2.3464775390625,-0.005718962168693542,-0.006016721272561699,-0.011531014014896935
1782812003873549600,2.356549560546875,0.0058043023645877835,0.006617746772477403,-0.0068858784938842284
1782812003883620600,2.36662060546875,0.009395604854822158,0.013207902285130694,-0.0004311482549033826
1782812003893691600,2.376691650390625,0.006702127987146377,0.006493992528645322,0.009809893877292052
1782812003903762700,2.3867626953125,0.0074514850497245785,-0.0022483177829068154,0.007452204285643528
1782812003913833500,2.39683349609375,0.0010176526099443435,-0.0033572106065694243,0.005431453318314743
1782812003923904500,2.406904541015625,-0.012001403439044952,-0.00900136310653761,0.007645066826487891
1782812003933975600,2.4169755859375,-0.001675239735841751,0.007234097705688327,-0.004673535065012401
1782812003944047400,2.42704736328125,-0.01574117448925972,0.010651377069577575,-0.020629284457536413
1782812003954118400,2.437118408203125,-0.015438976672291755,-0.0046569224277511236,-0.007906092953673215
1782812003964189400,2.447189453125,0.004164133942127227,0.015059119642386211,0.0009705278158769942
1782812003974260500,2.457260498046875,-0.009302081352472305,0.009909783188346772,0.001444621305007604
1782812003984331300,2.467331298828125,-0.0009235445857048034,-0.009324293184280396,0.00002014888052945025
1782812003994402300,2.47740234375,-0.00331657720208168,-0.00025344503810629246,-0.0075521312709606716
1782812004004473300,2.487473388671875,-0.010199906975030898,-0.00384641889561899,-0.009380291979614411
1782812004014545400,2.49754541015625,-0.009151859226822852,-0.0018121365890372543,0.003176689240778796
1782812004024616400,2.507616455078125,-0.004511924466490745,-0.010564511636877431,0.0068555392961920005
1782812004034687500,2.5176875,-0.007653729623556137,0.010961593796219676,0.005452291752010932
1782812004044758500,2.527758544921875,-0.019772621962428093,-0.005910155625548213,-0.0010207030835561453
1782812004054829600,2.53782958984375,0.0038701194316148758,-0.0030822113237809388,-0.008612872962316031
1782812004064900400,2.547900390625,-0.005108136793971062,-0.001854286097176373,0.010258653708233033
1782812004074971400,2.557971435546875,-0.0024146599262952805,-0.001101211840705946,0.011133016256813425
1782812004085043500,2.56804345703125,-0.02216682362258434,-0.003683090693224221,-0.004650239812748623
1782812004095114500,2.578114501953125,-0.0027139351338148114,-0.006793094206228852,-0.013781309125758708
1782812004105185500,2.588185546875,-0.0013660276561975478,-0.00895866560912691,0.00007645021160715259
1782812004115256600,2.598256591796875,-0.013933248284459113,-0.01214700418850407,0.014162209618568886
1782812004125327600,2.60832763671875,-0.009293898046016692,-0.004257255585677922,0.013389876964135327
1782812004135398400,2.6183984375,-0.006598083090782165,-0.002293271169485524,0.012025447609979891
1782812004145469400,2.628469482421875,-0.005547697255015373,-0.0074546451211906966,-0.004026197050960036
1782812004155541500,2.63854150390625,-0.010637129348516464,0.004959978761244565,0.002666419897391461
1782812004165612500,2.648612548828125,-0.0010614917516708372,-0.000962433557678014,-0.0005908585864613996
1782812004175683600,2.65868359375,0.0026788638204336165,0.005984444704465568,0.002637596232528449
1782812004185754600,2.668754638671875,-0.004205050474405289,-0.004159585631173104,-0.0031697554640268207
1782812004195825700,2.67882568359375,-0.0025619594424962995,0.0034952582372352477,0.0027849539725895737
1782812004205896400,2.688896484375,-0.013935586372017859,0.007187409019749611,-0.001723658583741053
1782812004215967500,2.698967529296875,-0.007948328655958176,0.005871029191557318,-0.004272353831754299
1782812004226039300,2.709039306640625,0.006416881304979324,-0.00252226675292477,0.0008377266116644023
1782812004236110300,2.7191103515625,-0.00405599739253521,0.002468198478128761,-0.011231419146968983
1782812004246181400,2.729181396484375,-0.008993453794717788,0.0006159490744117647,0.004375678921377402
1782812004256252400,2.73925244140625,-0.010938158121705054,-0.0036027463328558947,0.02019615830385592
1782812004266323500,2.749323486328125,-0.01303366909623146,0.000774582835379988,0.015204946437419858
1782812004276394200,2.759394287109375,-0.005103460618853569,-0.020120878277672453,-0.006399137298201094
1782812004286465300,2.76946533203125,0.003575520399212837,-0.0015691490128636359,-0.004084633256908273
1782812004296536300,2.779536376953125,-0.006449030008912086,0.0038699276353698223,-0.005725270324360462
1782812004306608400,2.7896083984375,-0.007794599398970603,-0.0035469153592363,0.002531599124384229
1782812004316679400,2.799679443359375,0.003280336844921112,-0.004411231437837705,0.007129396363842534
1782812004326750500,2.80975048828125,-0.015572832185029983,-0.00627943646251224,0.017246314930269728
1782812004336821500,2.819821533203125,-0.009885434198379516,0.006200845667812973,-0.0029037392095371613
1782812004346892500,2.829892578125,0.006276011529564857,-0.00042844541198574,-0.0034448614905588327
1782812004356963300,2.83996337890625,0.0013385551273822783,-0.0037604759115260093,0.010485692513315006
1782812004367034400,2.850034423828125,-0.011230419066548347,-0.01067089462080039,0.0035271734749054303
1782812004377106400,2.8601064453125,-0.0037467853128910064,0.00506606948422268,-0.01501783435899415
1782812004387177500,2.870177490234375,-0.0029997663378715515,-0.01283130579139106,-0.0023774971205275503
1782812004397248500,2.88024853515625,-0.0006061491996049881,-0.011278103266330435,0.01201913431691355
1782812004407319600,2.890319580078125,-0.004496726897358894,0.0012748696408700197,0.014985371702874544
1782812004417390600,2.900390625,0.004931611183285713,0.010475846972735597,0.0021554575759044382
1782812004427461400,2.91046142578125,-0.005992518413066863,-0.006101824006438255,0.0032385857706482054
1782812004437532400,2.920532470703125,-0.006888005948066711,-0.012542031388077884,-0.0011456292252783895
1782812004447604500,2.9306044921875,-0.00898293240070343,0.0037603571805171665,-0.006371927347578457
1782812004457675500,2.940675537109375,-0.015865093129873276,0.0008394921645987778,-0.007772754034987883
1782812004467746600,2.95074658203125,-0.010178864187002182,-0.002890689073363319,-0.011287496715760788
1782812004477817600,2.960817626953125,0.006129881057143211,-0.005023344587348402,0.0014591727034567155
1782812004487888600,2.970888671875,-0.004644026413559914,-0.005775505528366193,-0.003809038035786943
1782812004497959400,2.98095947265625,-0.0016495207726955413,-0.015478367967763914,-0.0006786253473488613
1782812004508030500,2.991030517578125,-0.017511106771230696,-0.000216318764956668,0.0036819250743777955
1782812004518102500,3.0011025390625,-0.00793371560871601,-0.0006775430685374886,-0.0020392952667723876
1782812004528173600,3.011173583984375,-0.009430676168203353,0.00024580972092226144,0.005885546911499113
1782812004538244600,3.02124462890625,-0.002994505640864372,-0.005237042136956006,-0.010284406920708715
1782812004548315600,3.031315673828125,0.0022428104907274244,-0.017678060835972426,0.011176033414632547
1782812004558386700,3.04138671875,0.014064181187748909,-0.00900679733348079,-0.006759913455834612
1782812004568457500,3.05145751953125,-0.0006008885025978088,0.00045347025538794694,0.01802320388716762
1782812004578528500,3.061528564453125,-0.008232990816235542,0.0030723383837379515,0.00902813523656514
1782812004588600300,3.071600341796875,0.004335398855805397,-0.008362891673063859,-0.0019361282948870211
1782812004598671400,3.08167138671875,-0.006587561696767806,-0.00962025305670686,-0.004222848709288519
1782812004608742400,3.091742431640625,-0.009730535897612571,-0.0032960002049338072,0.008144153192979866
1782812004618813400,3.1018134765625,-0.007935469174385071,-0.001625080451183021,-0.00013756756923103238
1782812004628884500,3.111884521484375,-0.004345335727930068,-0.010541870546806604,-0.018029406440735328
1782812004638955500,3.12195556640625,-0.004494388809800148,-0.011020182982506229,-0.00785874953471939
1782812004649026300,3.1320263671875,-0.014222586619853973,0.0025471545990090817,-0.0007555944362975424
1782812004659097300,3.142097412109375,-0.018560908085107804,-0.0018532997164875267,0.012902173362293979
1782812004669169400,3.15216943359375,-0.013771920242905616,-0.006690273152571171,0.004936004801435047
1782812004679240400,3.162240478515625,0.016900865918397904,-0.004228367417911067,-0.00803632260406448
1782812004689311500,3.1723115234375,0.0028320085555315015,-0.012433374248677864,-0.007069766568762134
1782812004699382500,3.182382568359375,0.0010357727885246277,0.0016658325866796076,0.006381084476635442
1782812004709453600,3.19245361328125,0.0013332944303750991,0.009421214220114051,-0.008211208813512349
1782812004719524400,3.2025244140625,0.0017833762854337692,-0.002169736121362075,-0.007183344765985384
1782812004729595400,3.212595458984375,-0.00539747512936592,-0.008857159729721025,-0.01062176966589177
1782812004739667500,3.22266748046875,-0.001357259827852249,-0.0004929802818689495,0.0014310003466758644
1782812004749738500,3.232738525390625,0.0043278000712394715,-0.0029516802792903035,-0.005729366544165532
1782812004759809500,3.2428095703125,-0.004053659304976463,-0.0035670174323488026,0.005848517107294174
1782812004769880600,3.252880615234375,0.005972060146927833,0.009769589266367257,0.01190245598455076
1782812004779951600,3.26295166015625,-0.007345686587691307,-0.02422443200582638,-0.006848776766087394
1782812004790022400,3.2730224609375,-0.0034556934118270873,-0.007273863460496068,0.007840121324418577
1782812004800093400,3.283093505859375,0.01225683950483799,0.009298081030789763,-0.003420196265116101
1782812004810165500,3.29316552734375,-0.005851648637652397,-0.006396139911049976,0.0016213107416522688
1782812004820236500,3.303236572265625,-0.006149754801392555,-0.01917704895576462,-0.003686113767372444
1782812004830307600,3.3133076171875,0.002979308071732521,0.0006272285202518106,0.009558930203106138
1782812004840378600,3.323378662109375,-0.0068967737764120095,0.006177135998662561,-0.00043393044210097287
1782812004850449700,3.33344970703125,-0.011087211203575134,-0.012217640005610883,0.002992858248116681
1782812004860520400,3.3435205078125,0.009111527216434477,0.0054701202404685316,-0.0032592843529157104
1782812004870591500,3.353591552734375,-0.008396656945347785,0.0068501033567823465,0.00024180140772950834
1782812004880663300,3.363663330078125,-0.008096212694048881,0.003789437144529074,0.0002787022061267635
1782812004890734300,3.373734375,-0.0033066403299570083,-0.0043576015544589605,-0.007353328754741232
1782812004900805400,3.383805419921875,-0.012283142989873885,-0.011339076205948368,-0.008792099132630392
1782812004910876400,3.39387646484375,-0.005101707053184509,-0.011868013717187568,-0.0012947216938773635
1782812004920947500,3.403947509765625,0.007765957826375961,-0.004023720824439078,-0.0001391533131856704
1782812004931018500,3.4140185546875,0.00611819061934948,0.0019515267934184521,0.006195991396182216
1782812004941089300,3.42408935546875,-0.00585281768143177,0.006315685952827334,-0.0076403689601283985
1782812004951161300,3.434161376953125,-0.004955576580762863,-0.0005296864299103618,0.015165095059288432
1782812004961232400,3.444232421875,-0.01348550451695919,-0.013949395701661704,-0.01030994550405303
1782812004971303400,3.454303466796875,0.002973462852835655,0.0081086611836683,-0.006081425105803646
1782812004981374500,3.46437451171875,-0.009295651611685753,0.005491464422596618,0.009525697507895529
1782812004991445500,3.474445556640625,-0.004806523498892784,-0.01217279621688649,0.0006186542006180388
1782812005001516500,3.4845166015625,-0.00974631798863411,-0.0024945384957827626,0.005036884488933719
1782812005011587300,3.49458740234375,-0.011990297523140906,-0.008974201104976237,0.00564972943245084
1782812005021658400,3.504658447265625,0.0017757775008678436,-0.002035588347679004,0.0007516865878045791
1782812005031730400,3.51473046875,0.0005775076270103454,0.010755074906069785,-0.000523646560657653
1782812005041801500,3.524801513671875,-0.01094575690627098,-0.0032503800980746744,0.0072665814822277745
1782812005051872500,3.53487255859375,-0.004960837277770042,-0.003491878970060497,0.006653301001404179
1782812005061943600,3.544943603515625,0.0016249708533287047,0.007622019311040639,-0.006040435508289374
1782812005072014600,3.5550146484375,0.005815408280491829,0.005642974323034286,0.0011831562155828579
1782812005082085400,3.56508544921875,-0.006606266397237777,0.0046828240539878606,0.0049659330071735895
1782812005092156400,3.575156494140625,-0.010346037447452544,-0.0018131412360351531,0.006365446232797694
1782812005102228500,3.585228515625,-0.011541969233751297,0.0023016645384952425,0.015878738062735646
1782812005112299500,3.595299560546875,-0.000018704700469970702,0.001035005603544414,-0.000740702827842324
1782812005122370600,3.60537060546875,0.015692074650526047,-0.008604929401166736,0.016735857215570284
1782812005132441600,3.615441650390625,0.0038701194316148758,-0.012162768013216554,0.010561466871487209
1782812005142512600,3.6255126953125,-0.003312485548853874,-0.002137450420111418,0.012421333326079184
1782812005152583700,3.635583740234375,0.0052162733435630795,0.00046900575123727317,-0.00081437256471836
1782812005162654500,3.645654541015625,0.004316694155335426,-0.00435975697892718,0.00012015292683790903
1782812005172726300,3.655726318359375,0.0016243863314390182,0.009314274113764986,0.0023161080515565115
1782812005182797300,3.66579736328125,-0.007204232290387153,-0.009990017950860783,0.011797977263346547
1782812005192868400,3.675868408203125,-0.003014379385113716,0.0061840132640209045,0.0006835692380584077
1782812005202939400,3.685939453125,-0.0018184475988149641,-0.003022946284059435,0.0030773844516137614
1782812005213010400,3.696010498046875,-0.002119476372003555,0.00591617437438108,0.011797964705259073
1782812005223081500,3.70608154296875,-0.007956511962413787,0.0008871489649172872,0.0016404521210730309
1782812005233152500,3.716152587890625,-0.004366963037848472,0.009871597469272091,0.006521013537133694
1782812005243223600,3.7262236328125,-0.006763502785563469,-0.001965920644951984,-0.0022434423908562163
1782812005253295400,3.73629541015625,0.0014683189868927,0.005714614787138998,0.00047446680682187433
1782812005263366400,3.746366455078125,-0.010204583150148392,0.018380573948984964,-0.003386799173124018
1782812005273437400,3.7564375,0.0074526540935039515,-0.0037619372162502255,-0.0013576234415668294
1782812005283508500,3.766508544921875,-0.01409457632601261,0.0033505160043016072,-0.003218094396824017
1782812005293579500,3.77657958984375,-0.004964928930997848,0.0031042496256530284,0.020653345753136088
1782812005303650300,3.786650390625,0.000872106659412384,-0.006868881122488528,0.00603270600544929
1782812005313721300,3.796721435546875,0.009254735079407692,-0.0028515991719905284,0.004365241438220255
1782812005323793400,3.80679345703125,0.007609305959939956,-0.005449616308556869,0.0014089312204072484
1782812005333864400,3.816864501953125,-0.001817278555035591,0.0012497078001499175,0.012438438582862726
1782812005343935500,3.826935546875,-0.009897709158062934,-0.006819689952209592,0.014081833292159717
1782812005354006500,3.837006591796875,-0.007650222492218017,-0.0010427139859646559,0.02053465356020024
1782812005364077600,3.84707763671875,-0.006004208850860595,0.010644855997245758,0.009075059672055068
1782812005374148900,3.85714892578125,0.0004313771545886993,0.007095072827488184,0.006200947274157078
1782812005384220000,3.867219970703125,-0.013335866913199424,-0.001094973896164447,0.01067605713639641
1782812005394290700,3.877290771484375,-0.013335282391309737,-0.006367069080192595,0.01854404714020784
1782812005404362800,3.88736279296875,-0.0033089784175157544,0.004832087198412045,0.005537186135799856
1782812005414433800,3.897433837890625,0.008662614405155181,0.00420219179703854,0.0031879230208462102
1782812005424504800,3.9075048828125,0.006716156512498855,-0.01219538250803016,0.0064382140706642525
1782812005434576000,3.917575927734375,0.0019300912797451017,0.003656431015161797,0.0072833305459847906
1782812005444647000,3.92764697265625,-0.012582418197393417,0.0011236246019136159,0.012462922286859248
1782812005454718000,3.937718017578125,-0.003157587248086929,-0.0026434545803349463,-0.008955739003923371
1782812005464788700,3.947788818359375,-0.011838321831822395,0.0034806269236840304,0.0035848590497160326
1782812005474860500,3.957860595703125,-0.005702595555782318,-0.002107429741183296,0.0035460283016029276
1782812005484931600,3.967931640625,-0.006899696385860443,-0.0032982104283291844,-0.004342046650656266
1782812005495002600,3.978002685546875,0.010011106404662132,0.013499870969029142,0.0032787431094562633
1782812005505073700,3.98807373046875,-0.0043570261657238,-0.0029305735591799017,0.006661674962460529
1782812005515144700,3.998144775390625,0.001477086815237999,-0.004612918889243155,-0.0024172434673819226
1782812005525215700,4.0082158203125,-0.020817747101187705,0.006404058356024324,-0.0024799454273161242
1782812005535286800,4.018286865234375,-0.02066927854120731,0.0007894698772579432,0.004976261463298578
1782812005545358600,4.028358642578125,0.011203531059622764,-0.009081406072806567,-0.0034008134279225485
1782812005555429600,4.0384296875,-0.011692191359400748,-0.003473630927316844,-0.011727204448921839
1782812005565500700,4.048500732421875,-0.0028647417813539504,-0.0021854086145292966,0.005259484010093729
1782812005575571700,4.05857177734375,-0.005855155768990516,0.0014156298184301703,0.009731591918604681
1782812005585642800,4.068642822265625,-0.01737725125849247,0.005140623424621299,0.003791783794420189
1782812005595713800,4.0787138671875,-0.0012158055305480956,-0.005055237562954426,-0.0007071076605614507
1782812005605784600,4.08878466796875,-0.012138766083121299,0.002239476889325306,0.014658808912918903
1782812005615855600,4.098855712890625,-0.0007663081973791122,-0.01124185377601534,0.0017590558365744072
1782812005625927700,4.108927734375,-0.01243804129064083,0.008834509506495669,0.0036928762974770503
1782812005635998700,4.118998779296875,-0.005705518165230751,0.0032154092493932693,0.013080946870637126
1782812005646069800,4.12906982421875,0.0016267244189977644,-0.0045628052703570576,0.000747772460267879
1782812005656140800,4.139140869140625,-0.008249941951036453,0.0008723441214300692,0.002056280080080614
1782812005666211800,4.1492119140625,-0.016631985849142075,0.0032733682480175046,0.010676029736932833
1782812005676283000,4.159282958984375,-0.004063596177101135,-0.0018776395733002573,-0.005518778262851992
1782812005686353700,4.169353759765625,0.005663432589173316,-0.006573843698669224,-0.0011204491182492348
1782812005696425700,4.17942578125,-0.0064577978372573844,0.00482826953982003,-0.0031981846907787256
1782812005706496800,4.189496826171875,-0.008403086686134337,-0.004746947931917384,0.01653964280701475
1782812005716567800,4.19956787109375,-0.01932838532626629,-0.010154405599180608,0.004032889369939221
1782812005726638800,4.209638916015625,-0.012449147206544876,-0.014363063669623807,-0.0006636857898323796
1782812005736710000,4.2197099609375,-0.009007482320070266,-0.004464523394498974,0.0029534943521081
1782812005746781000,4.229781005859375,-0.001975099465250969,-0.0007016728627961128,0.004139681633349391
1782812005756851700,4.239851806640625,0.0029623569369316097,0.019259128615492952,-0.005570147119663306
1782812005766922800,4.2499228515625,-0.012750175979733467,-0.0008997892507817595,0.006243947878133622
1782812005776994800,4.259994873046875,0.0138859020113945,-0.007076103265536949,0.012131984715885481
1782812005787065900,4.27006591796875,-0.004669160854816437,-0.0037926337486132978,0.017642619629832913
1782812005797137000,4.280136962890625,-0.001378302615880966,-0.0011919040651526302,0.007718984300180454
1782812005807208000,4.2902080078125,-0.010206921237707138,0.004222759661031887,0.010139854200731496
1782812005817279000,4.300279052734375,-0.006913140389323234,0.004857230772823095,0.00531638812937017
1782812005827349800,4.310349853515625,-0.003918634748458862,-0.0027527510405518114,-0.010170128324697724
1782812005837420800,4.3204208984375,0.00431260250210762,-0.00027860687882639467,0.009249587976009934
1782812005847492600,4.33049267578125,-0.0019739304214715955,0.011935708658536895,-0.012379705549392384
1782812005857563600,4.340563720703125,-0.013494856867194175,-0.013289068629406391,-0.003628441892293631
1782812005867634700,4.350634765625,0.00910100582242012,0.004629495564708486,0.017003333062317688
1782812005877705700,4.360705810546875,0.005807809495925903,0.0012544113747309893,0.01059211202985607
1782812005887776800,4.37077685546875,-0.0184346513569355,-0.002090661269472912,-0.011299899539607576
1782812005897847800,4.380847900390625,-0.006014730244874954,-0.0007713679649867116,-0.0024361102813447357
1782812005907918600,4.390918701171875,-0.004369301125407218,-0.003849843828566372,0.0008917914615274639
1782812005917989600,4.40098974609375,-0.02427051790356636,-0.005098483049636706,-0.016203467371920122
1782812005928061700,4.411061767578125,0.007452069571614265,0.01736470230417326,0.0136563675718382
1782812005938132700,4.4211328125,0.0002688800692558288,0.001685414069984108,0.005026299162837676
1782812005948203800,4.431203857421875,-0.02127835035026073,-0.01676208763536997,-0.0104284150763473
1782812005958274800,4.44127490234375,-0.011401683980226516,0.0008821348630823194,0.004788624799309763
1782812005968345900,4.451345947265625,-0.023074586117267606,0.014578112926101311,0.010758983896207063
1782812005978416600,4.461416748046875,-0.012004326048493384,-0.01098264571740292,0.009455989847617457
1782812005988487700,4.47148779296875,-0.0030272388666868206,0.01064377828501165,-0.004017927550358581
1782812005998559700,4.481559814453125,0.0029606033712625502,0.0034827366823796183,-0.011543104028201195
1782812006008630800,4.491630859375,-0.0072141691625118255,-0.011536681137280538,-0.00008631116438482421
1782812006018701800,4.501701904296875,-0.013798808249831198,0.012129678594367577,-0.006375125093306996
1782812006028772900,4.51177294921875,-0.013351064482331275,-0.01635615544929169,-0.001032432908078772
1782812006038844000,4.521843994140625,-0.009608370822668076,0.009097763552563264,-0.017101366059714927
1782812006048914700,4.531914794921875,-0.012151041042804718,0.008991371435485779,-0.00843620464609121
1782812006058985700,4.54198583984375,-0.011552490627765654,-0.007887510979967191,-0.0057168432768434285
1782812006069056800,4.552056884765625,-0.027566052317619324,-0.008524247114080934,0.015550442256708628
1782812006079128800,4.56212890625,0.001765256106853485,0.0010632453173398972,0.004309971011959715
1782812006089199900,4.572199951171875,-0.0025748189240694043,-0.006098088546236976,-0.013907584120240062
1782812006099271000,4.58227099609375,0.005654664760828018,-0.003223528623767197,0.008933345079846913
1782812006109342000,4.592342041015625,-0.006318097105622291,-0.010106529603153466,0.003979319993709214
1782812006119412700,4.602412841796875,-0.001530278307199478,-0.0023126060576178133,0.000040975897782482206
1782812006129483800,4.61248388671875,0.006551321339607239,-0.005531796432984993,-0.0031159423467353917
1782812006139554800,4.622554931640625,-0.002876432219147682,0.011260704606957732,0.007884136850191861
1782812006149625900,4.6326259765625,-0.0010831190615892409,-0.0027704602271784095,0.005344863592716865
1782812006159697700,4.64269775390625,0.008790624698996543,-0.0012627956105861812,0.00100965424986789
1782812006169768700,4.652768798828125,-0.010214520022273063,-0.010171009674109518,0.00009326777402311563
1782812006179839700,4.66283984375,-0.005426116701960563,-0.005384259454766288,-0.002374666413446539
1782812006189910800,4.672910888671875,0.003101473146677017,-0.008988677154900506,0.011453599113842937
1782812006199981600,4.682981689453125,0.0038490766435861586,-0.005829509871080518,0.001785261711021303
1782812006210052600,4.693052490234375,-0.006624971097707748,0.004032041128212586,-0.003907583631481975
1782812006220123600,4.70312353515625,-0.008569675424695014,-0.004987414757441729,0.013753973594261332
1782812006230195700,4.71319580078125,-0.0036316345006227493,-0.010532235068781301,-0.006910798876831541
1782812006240266800,4.723266845703125,0.0014566285490989685,0.0033334187390282747,-0.011498794529016594
1782812006250337800,4.733337890625,0.0005576338827610015,-0.012003814591839908,0.005852601339833927
1782812006260408800,4.743408935546875,-0.0004892448216676712,0.018779491872387005,-0.00759730727818096
1782812006270479600,4.753479736328125,-0.010216858109831809,0.007631590856984258,-0.004523309514430002
1782812006280550700,4.763550537109375,-0.0048299043744802475,-0.004165695711551234,0.011677324867120477
1782812006290621700,4.77362158203125,-0.0007896890729665756,0.00044835568885318933,0.0031227556800120506
1782812006300692700,4.783692626953125,0.0017523966252803802,-0.0069281644285190845,0.012631333089747931
1782812006310764800,4.793764892578125,-0.013060557103157042,-0.00039784021116793156,0.002935053942297236
1782812006320835800,4.8038359375,-0.005578676915168762,-0.005956734713632613,-0.0010950635152432368
1782812006330907000,4.813906982421875,-0.000042670097947120666,-0.0000559223051648587,0.011362372599856462
1782812006340977700,4.823977783203125,0.006839490631222724,0.001346647102292627,0.004905848837655503
1782812006351048700,4.834048583984375,-0.008422375908493995,0.003990704470826312,0.010127854377328185
1782812006361119700,4.84411962890625,-0.009918167424201966,0.005585362384282052,-0.0009399414521903964
1782812006371190800,4.854190673828125,-0.022186697366833687,-0.001118710964778438,-0.013504641900624847
1782812006381261800,4.86426171875,-0.005725976431369781,0.009022533758729696,0.0005995995861652773
1782812006391334000,4.874333984375,0.008937924215197563,0.004698944071726874,0.0045054901591269295
1782812006401405000,4.884405029296875,0.005047931039333343,0.007217685427004471,-0.007227055472726352
1782812006411476000,4.89447607421875,-0.007523965764045715,-0.0053554991511628024,-0.006142205107532208
1782812006421547000,4.904547119140625,-0.009019172757863998,-0.007973052105261013,-0.003235833266202826
1782812006431618000,4.9146181640625,-0.004379822519421577,-0.008617222627159207,-0.009936046715831617
1782812006441688800,4.924688720703125,0.005648235020041466,-0.005321733878878876,-0.009552399426797637
1782812006451759900,4.934759765625,0.0041524435043334956,-0.004037676284555346,0.002727484168554656
1782812006461832000,4.94483203125,-0.006620879444479942,-0.013804534737719223,-0.01404744125714642
1782812006471902700,4.95490283203125,0.006695113724470138,-0.009171367644891142,0.01488478827207582
1782812006481973800,4.964973876953125,-0.00258241770863533,-0.0026014329363591967,0.006229602546483511
1782812006492044800,4.975044921875,0.010436638340353965,0.0032242866755928844,-0.012393700967059702
1782812006502115800,4.98511572265625,-0.00258066414296627,-0.002998953487118706,0.0017969036289316135
1782812006512187000,4.995186767578125,-0.01455167244374752,-0.0056889597560744725,-0.013162547039752826
1782812006522258000,5.0052578125,-0.006770517048239708,-0.0036168935892172157,0.0170079818379716
1782812006532329000,5.015328857421875,0.0025087679505348204,0.003161980295414105,0.002166725605301326
1782812006542400800,5.02540087890625,-0.0049731122374534606,0.00299077931381762,0.0026329183449444824
1782812006552471800,5.035471923828125,-0.008862520891427993,-0.002754349342593923,-0.015958194223826286
1782812006562542800,5.04554296875,-0.011408113721013068,0.005722377968486398,0.004291206375163165
1782812006572614000,5.05561376953125,-0.0069184010863304135,0.0016569094947073608,0.011766145936533575
1782812006582684700,5.0656845703125,0.00625146161019802,0.002121750527480617,0.0037666973022249294
1782812006592755700,5.075755615234375,0.0038590135157108305,-0.0017339111205190419,0.0005417667392379371
1782812006602826800,5.08582666015625,0.004758008182048797,0.00493790392675437,0.008611109692670288
1782812006612898800,5.09589892578125,-0.01095452473461628,-0.00208004854391329,0.011845365777250844
1782812006622969900,5.105969970703125,-0.000779167678952217,-0.008649480928946286,0.003218994012544863
1782812006633041000,5.116041015625,-0.014245382973551749,-0.0010814020285382867,0.011208545161457731
1782812006643112000,5.12611181640625,0.0008685995280742645,0.0030754253899678585,0.006717310714902123
1782812006653182700,5.1361826171875,0.0008668459624052047,0.007807879005651921,-0.009137053241691319
1782812006663253800,5.146253662109375,-0.002426350364089012,0.005663761382736265,0.008413521886002855
1782812006673324800,5.15632470703125,-0.00751285984814167,0.003632100291503593,0.02357940296740271
1782812006683395800,5.166395751953125,0.011342062747478484,-0.005257098544295877,0.009724939557176548
1782812006693468000,5.176468017578125,-0.00990530794262886,-0.007710802706191316,0.006117433709168108
1782812006703539000,5.1865390625,0.007300093880295753,0.0030953265336807817,-0.005466816321818623
1782812006713610000,5.19660986328125,0.011338555616140365,-0.0014198036700487136,-0.012507527471921638
1782812006723681000,5.206680908203125,-0.013498948520421982,-0.0029189379203133285,-0.00334158492081915
1782812006733751800,5.216751708984375,-0.017389526218175886,-0.004107234389428049,-0.008636732757693971
1782812006743822800,5.22682275390625,-0.010654080483317374,-0.00543601704146713,-0.007680609068149351
1782812006753894000,5.236893798828125,-0.00137421096265316,-0.007517654754268005,0.012042494642903329
1782812006763965000,5.24696484375,-0.005115151056647301,-0.005908328994642943,0.004612878931692103
1782812006774037000,5.257037109375,-0.010051438415050505,0.001916793406754732,-0.008974059541081077
1782812006784108000,5.26710791015625,-0.008851414975523948,-0.010086043937550858,0.0002072632422437891
1782812006794179000,5.277178955078125,0.00805704972743988,-0.0069293700049165635,0.017132495275273687
1782812006804249900,5.287249755859375,-0.009002221623063087,-0.009862172053800895,0.00335382677281741
1782812006814321000,5.29732080078125,-0.0028659108251333234,0.0017001915140077472,0.00999382419300964
1782812006824392000,5.307391845703125,-0.004810030630230903,-0.0015101305683143437,-0.014644542925548738
1782812006834462000,5.3174619140625,-0.003464461240172386,0.0025990126504097134,0.0036359738906670824
1782812006844534000,5.327533935546875,-0.016782207974791526,-0.01053952332609333,-0.0046248245269904144
1782812006854605000,5.33760498046875,0.005215688821673393,0.0007300404407549649,0.0003666270847519627
1782812006864675800,5.34767578125,-0.002266191366314888,0.011193557654879987,-0.01543375821612426
1782812006874747000,5.357746826171875,-0.0013677812218666075,0.00562706436784938,-0.012028953599673695
1782812006884818000,5.36781787109375,0.0004284545451402664,0.014130597487464546,-0.002573778315275558
1782812006894889000,5.377888916015625,-0.008999299013614653,0.003077197221945971,-0.0024761854217620564
1782812006904960000,5.3879599609375,-0.003611760756373405,-0.011626925837155432,-0.0015092235319054451
1782812006915031000,5.398031005859375,0.004020341557264328,0.0019777572132181377,-0.004399994232837343
1782812006925102800,5.408102783203125,-0.008548632636666298,0.0028395068753976375,0.01212723775882041
1782812006935173600,5.418173583984375,-0.011389993542432784,-0.0062782126198057085,0.0147176469776663
1782812006945244700,5.42824462890625,-0.006451368096470832,0.0032745281586423515,0.00464423362200323
1782812006955315700,5.438315673828125,-0.0019616554617881772,-0.0014122596844099462,0.0014396654270327415
1782812006965386800,5.44838671875,-0.010938742643594741,0.008984402838582173,0.0002445938697259407
1782812006975457800,5.458457763671875,-0.008545710027217865,-0.008895327182486652,-0.0017641504243336385
1782812006985528800,5.46852880859375,0.0020797288835048672,0.001062496398668736,0.0008072487041878047
1782812006995600000,5.478599853515625,-0.020215689554810522,-0.013329144911468029,0.01832440961522516
1782812007005671700,5.488671630859375,-0.016176058775186537,0.008551235585706307,-0.009161836627320735
1782812007015742700,5.49874267578125,-0.002109539499878883,-0.0052570437453687184,0.003004298665805254
1782812007025813800,5.508813720703125,0.0038771336942911147,-0.007162238045874982,0.009600947851326782
1782812007035884800,5.518884765625,-0.0092892218708992,-0.004120943254372105,-0.016636029553308618
1782812007045955800,5.528955810546875,-0.00016249708533287046,-0.011725189446704462,-0.017773196340096182
1782812007056027000,5.53902685546875,-0.13021744849681854,0.0009606160599272697,-0.021700669698847923
1782812007066098000,5.549097900390625,0.20557517955899238,0.004959257242036983,0.055921295951283534
1782812007076168700,5.559168701171875,-0.03264671658277511,0.019084228706313298,-0.007444719665509182
1782812007086240800,5.56924072265625,-0.007956511962413787,-0.028674552415637298,-0.004562901168479584
1782812007096311800,5.579311767578125,0.017936054185032843,0.008638238015724345,0.010076858267385977
1782812007106382800,5.5893828125,0.023779519516229627,-0.03295351750962436,-0.007565767070668516
1782812007116454000,5.599453857421875,-0.013476736688613891,0.015492296028416603,0.0035687915476155466
1782812007126525000,5.60952490234375,-0.019013328027725217,-0.0011236428682226687,0.002817013057443546
