time,seconds_elapsed,z,y,x
1782661084690236000,0.07623583984375,-0.9657365447461604,0.07971081170514226,-0.013037176227569579
1782661084700305700,0.0863056640625,-0.6720154642224312,0.0050868382776156065,0.00853738059028983
1782661084710376700,0.096376708984375,-0.4805944822221994,-0.06565011938242242,0.016394231570512056
1782661084720446700,0.10644677734375,-0.3579015840113163,-0.08427923386553302,-0.0009198913238942623
1782661084730516700,0.116516845703125,-0.2130681656628847,-0.1010126251293812,-0.08461348905488848
1782661084740587800,0.126587890625,-0.06856207957267761,-0.02150556496856734,-0.12856222863569855
1782661084750657800,0.13665771484375,-0.01178454581797123,0.08742992558195255,-0.06295885273814202
1782661084760728800,0.146728759765625,0.08170505426228046,0.11385911022359504,0.11611118173301219
1782661084770798600,0.156798583984375,0.12430968575775622,0.12010804194998927,0.28084537846818564
1782661084780868900,0.166868896484375,0.10499357539117336,0.1755266810421832,0.35186946424022314
1782661084790940000,0.17693994140625,0.08675298530161381,0.2450267538510263,0.34525618358030913
1782661084801009700,0.187009765625,0.03795300629734993,0.30038139692945404,0.29258243188261984
1782661084811080700,0.197080810546875,0.033254034826159476,0.3037525538629852,0.19106880756169556
1782661084821150700,0.207150634765625,0.15792729319930077,0.2813062557118945,0.1363767017789185
1782661084831221000,0.217220947265625,0.35638650327324867,0.27178576410207894,0.19494170347228645
1782661084841291800,0.227291748046875,0.46515609007179737,0.2581796288801357,0.17892799565196035
1782661084851361800,0.23736181640625,0.4176449818342924,0.19923686164924873,0.08012918324768543
1782661084861432800,0.247432861328125,0.19751637626588345,0.13216832683626561,-0.08090352862104773
1782661084871502600,0.257502685546875,0.0157376673579216,0.13919912052219732,-0.16244345544949174
1782661084881572600,0.267572509765625,-0.10323124189376831,0.10305215899981558,-0.15646847269311545
1782661084891643600,0.2776435546875,-0.18365677773952482,0.0633531629850855,-0.16402166455164552
1782661084901714000,0.2877138671875,-0.07046352927982807,0.01670573150536511,-0.15929887381345031
1782661084911783700,0.29778369140625,0.12987725675702094,0.0030069952296791595,-0.13994637695923448
1782661084921854700,0.307854736328125,0.24227613996863365,0.00369418747597374,-0.09800386263430118
1782661084931924700,0.3179248046875,0.33821780937612056,0.017120664415229112,-0.05943564704805612
1782661084941995800,0.327995849609375,0.34509704749584197,0.014593273962615057,-0.04857435355484485
1782661084952065800,0.338065673828125,0.19300912797451017,-0.027266251953714526,-0.08153905004560946
1782661084962135800,0.3481357421875,0.03411035939455032,-0.029819315703702158,-0.10108853077664971
1782661084972206800,0.358206787109375,0.0313794731259346,-0.055916491912002673,-0.1246079380519688
1782661084982276600,0.368276611328125,0.12109364632070063,-0.07688920581261627,-0.0726901192881167
1782661084992347600,0.37834765625,0.223543382447958,-0.05707548465481959,-0.041530426392704246
1782661085002418000,0.38841796875,0.22466800256371497,-0.04899088476675097,-0.0449940108500421
1782661085012487700,0.39848779296875,0.24544600217640397,-0.025834817211376503,-0.03483560492917895
1782661085022558700,0.408558837890625,0.2868079401344061,0.03185178279582178,-0.00353051221370697
1782661085032628700,0.418628662109375,0.2954705545395613,0.06968881858028471,0.01892111969962716
1782661085042699800,0.42869970703125,0.3497007418990135,0.08817309036576189,0.0467478687800467
1782661085052769500,0.43876953125,0.32497488144338127,0.11194024359076284,0.04421352799683809
1782661085062839800,0.44883984375,0.2436807460695505,0.12286172457230277,-0.0017721973042935132
1782661085072910800,0.458910888671875,0.08814239383339881,0.03579106075679883,-0.044843496463447804
1782661085082980900,0.46898095703125,-0.10328267982006073,-0.024897965619526802,-0.08371902443319558
1782661085093051600,0.4790517578125,-0.18468027556836605,-0.11999270847463048,-0.15095146283730865
1782661085103121700,0.48912158203125,-0.23143618152439593,-0.23451763479635118,-0.2603370626423508
1782661085113192000,0.49919189453125,-0.1595855818003416,-0.31253125066217036,-0.3195075559481978
1782661085123262700,0.5092626953125,-0.03044657618999481,-0.31563692505992946,-0.21996742365732788
1782661085133332700,0.519332763671875,0.10241700290143489,-0.2639454441315494,-0.06709120330251753
1782661085143403800,0.52940380859375,0.09629647419452667,-0.19385575313279405,0.09818038824498652
1782661085153473800,0.539473876953125,-0.06421148314774036,-0.1455005404876545,0.2425728578928858
1782661085163543800,0.549543701171875,-0.30396658020615575,-0.1383068661238998,0.3155857063293457
1782661085173614800,0.55961474609375,-0.5323001195400953,-0.1686689423682168,0.29016046543270346
1782661085183684900,0.569684814453125,-0.6135556764692067,-0.17627640343094245,0.19910496063157915
1782661085193756000,0.579755859375,-0.533027849292755,-0.19260153355430812,0.1604206443849951
1782661085203825700,0.58982568359375,-0.3907961378753185,-0.24587142451424152,0.15210611276514827
1782661085213895700,0.599895751953125,-0.2533446464717388,-0.3177659364452585,0.15243344502337275
1782661085223966700,0.609966796875,-0.15651625735759733,-0.32561529823876917,0.14176745490655301
1782661085234036700,0.62003662109375,-0.07392331434488296,-0.31651794567815955,0.13253069387525318
1782661085244107800,0.630107666015625,0.014410218146443367,-0.2744858533736318,0.21121187027171254
1782661085254177800,0.640177734375,0.06732172412276267,-0.19011572635425253,0.3166457367762923
1782661085264247600,0.65024755859375,0.00026829554736614226,-0.10859664138443767,0.4373087365947664
1782661085274318600,0.660318603515625,-0.18681202690005302,-0.044033093396015466,0.45945290999412536
1782661085284388900,0.670388916015625,-0.3982774335414171,-0.023195591281587255,0.36258543097861107
1782661085294460000,0.6804599609375,-0.42030747904181476,-0.05165169690726325,0.2542625650342554
1782661085304529700,0.69052978515625,-0.32897301116883754,-0.12881724457638338,0.16495624198801814
1782661085314599700,0.700599609375,-0.24262568405866622,-0.16772208997216076,0.12007613984122871
1782661085324670700,0.710670654296875,-0.10001461793482302,-0.17872315726224333,0.11746040438488126
1782661085334740700,0.72074072265625,0.10520809492468833,-0.18780512959063053,0.10450929900556802
1782661085344811800,0.730811767578125,0.2252718136757612,-0.18245817907210438,0.09550810029581189
1782661085354881800,0.7408818359375,0.26552491360902786,-0.18800757509386165,0.10179653291553259
1782661085364951800,0.750951904296875,0.30301264048218723,-0.15325875339899211,0.11309110325947404
1782661085375022600,0.761022705078125,0.25305589265823364,-0.1422404518463183,0.1466684517558664
1782661085385092600,0.771092529296875,0.1653577354609966,-0.16021425335900857,0.15571692367345094
1782661085395163600,0.78116357421875,0.16471066972911358,-0.09253350493181496,0.15538710719719528
1782661085405234000,0.79123388671875,0.12007599371075629,-0.007089067778387107,0.18983071713410316
1782661085415303700,0.8013037109375,0.017153963896632193,0.06443787121556233,0.25044154544137415
1782661085425374700,0.811374755859375,-0.022861235627532003,0.11284506520968861,0.2658399709075689
1782661085435444700,0.82144482421875,-0.10821370648145676,0.1377895368520636,0.29852811547927555
1782661085445515800,0.831515869140625,-0.19632628969848154,0.08547138452585785,0.2561049780305475
1782661085455585800,0.841585693359375,-0.28296412418782707,0.05110393596454523,0.1667638028666377
1782661085465655600,0.851655517578125,-0.29169337408840657,0.006381211769976653,0.07670468869172037
1782661085475726600,0.8617265625,-0.20828736112713814,-0.035186336329299954,-0.019871479227021337
1782661085485796600,0.871796630859375,-0.13435703251957892,-0.05694251962464768,-0.05788271851763129
1782661085495867600,0.88186767578125,-0.06304419293403625,-0.10882968295533209,-0.091868793945387
1782661085505937700,0.891937744140625,-0.014819383469223976,-0.19980825006272643,-0.1169733515202999
1782661085516007700,0.902007568359375,0.006789806270599365,-0.23106259897165,-0.13342552382312714
1782661085526078700,0.91207861328125,0.017641455152630804,-0.20226431971164419,-0.14697861368358134
1782661085536148500,0.9221484375,0.12249883694350719,-0.13042435097945854,-0.12389058356285094
1782661085546219500,0.932219482421875,0.1630319228619337,-0.05048199554076418,-0.028939897954091427
1782661085556289800,0.942289794921875,0.14296645543277262,0.02830298372346442,0.08151040847301483
1782661085566359600,0.952359619140625,0.13998480927348136,0.0593556862801779,0.17135836411528288
1782661085576430600,0.9624306640625,0.10477847133576869,0.07251135605457239,0.2046248930968344
1782661085586500600,0.97250048828125,0.06705868927240372,0.030805993220070375,0.19160123393796383
1782661085596571600,0.982571533203125,0.048828620576858515,0.005321103691216558,0.19129625964201985
1782661085606641400,0.992641357421875,0.05559679953753948,-0.029033028730796648,0.1791887654799968
1782661085616711700,1.002711669921875,0.08957564150691032,-0.004397330776648596,0.180759156601876
1782661085626782700,1.01278271484375,0.13635025216341018,0.002448763125296682,0.15302132791392503
1782661085636852700,1.022852783203125,0.16192600744664667,0.01566555196978152,0.13289156307689845
1782661085646923500,1.032923583984375,0.14345511573255063,0.007495954379113391,0.11826397585272788
1782661085656993500,1.04299365234375,0.07204232290387153,-0.03168189927176572,0.07904701403416693
1782661085667063800,1.053063720703125,-0.0727495943903923,-0.09657193013504146,0.021915186949074267
1782661085677134600,1.063134521484375,-0.18821487943530082,-0.11373537424607202,-0.011169994116201997
1782661085687204600,1.07320458984375,-0.22398469647467134,-0.09540878637349233,-0.03970554905310273
1782661085697275600,1.083275634765625,-0.2502542792409658,-0.04335813501020893,-0.05377002250179648
1782661085707345700,1.093345703125,-0.1716413457751274,-0.011223815795825794,-0.05631430015712976
1782661085717415700,1.103415771484375,-0.06350012000799178,-0.0006483626398257911,-0.054866001044958826
1782661085727486700,1.11348681640625,0.051509237962961196,-0.04180937119824812,-0.0567074641931802
1782661085737556700,1.123556640625,0.10115209753215312,-0.10670651678889989,-0.08974478752873838
1782661085747627800,1.133627685546875,0.06608487580418586,-0.12092390664382836,-0.1257184565771371
1782661085757697500,1.143697509765625,0.009960253000259399,-0.10775317629761993,-0.1448768190987408
1782661085767767600,1.153767578125,-0.06818915460705757,-0.09486936400085687,-0.1538561713028699
1782661085777838600,1.163838623046875,-0.1223544600367546,-0.09225702607799321,-0.15035364307463167
1782661085787908600,1.17390869140625,-0.13632920937538145,-0.07235451239189132,-0.08026661895699799
1782661085797979600,1.183979736328125,-0.20711071856319904,-0.028101529167499393,-0.03905468392893672
1782661085808049700,1.194049560546875,-0.17017536487579343,0.02582783034816384,0.003756429924070835
1782661085818119400,1.204119384765625,-0.05612228471636772,0.054982284368388354,0.022701368890702723
1782661085828190500,1.2141904296875,0.02355155597925186,0.044991106506902724,0.034020269958302374
1782661085838260700,1.2242607421875,0.0890624312877655,0.05739495326699689,0.05737900677919387
1782661085848331800,1.234331787109375,0.18794366127848625,0.03802760590352118,0.02036912655085325
1782661085858401500,1.244401611328125,0.3177460992336273,-0.010636069902591406,0.025471198930218816
1782661085868471600,1.254471435546875,0.34257425101995465,-0.0383500975898467,0.03442446684502065
1782661085878542600,1.26454248046875,0.31875732210278507,-0.07840637804307043,-0.00003996668420732021
1782661085888612900,1.27461279296875,0.3011678893983364,-0.11499967682715505,-0.027146365600824354
1782661085898683600,1.28468359375,0.2882522937238216,-0.12045814316244795,-0.03327938846312463
1782661085908753700,1.294753662109375,0.21372458374500272,-0.07451232974659651,0.025018413661420345
1782661085918823700,1.30482373046875,0.10944529410302638,-0.03300634367540479,0.03843837866149843
1782661085928894500,1.31489453125,0.04107318414449691,-0.0016447897986508904,0.06330949280671774
1782661085938964500,1.324964599609375,0.02354161910712719,-0.010785506576951593,0.04727693415544927
1782661085949034800,1.33503466796875,0.006407528954744338,-0.016765859628189356,0.08837503354549407
1782661085959105800,1.345105712890625,-0.0011550152540206909,-0.007815587388072162,0.07329414959587156
1782661085969175600,1.355175537109375,-0.10451251387596129,-0.015189148363377898,0.0323934724740684
1782661085979246600,1.36524658203125,-0.2024982563316822,-0.017667119316849857,0.012350874463841319
1782661085989316600,1.375316650390625,-0.26111644951701163,0.01082518100021407,-0.0074436670694500206
1782661085999386600,1.38538671875,-0.2710422157257795,-0.00983591423453763,-0.016851400753483174
1782661086009457700,1.395457763671875,-0.21942308764755725,-0.03453678637938574,-0.01707563796341419
1782661086019527700,1.405527587890625,-0.1059720650345087,-0.049379258463252335,-0.00201959619410336
1782661086029598700,1.4155986328125,0.0368213719189167,-0.05749581982558593,0.019063450779765845
1782661086039668500,1.42566845703125,0.18075345751345157,-0.05353829610515386,0.0654525692500174
1782661086049738800,1.43573876953125,0.34355098709762094,-0.052837015968002374,0.08076543532460928
1782661086059809800,1.445809814453125,0.4481757291764021,-0.08992883885875344,0.09983801925890147
1782661086069879600,1.455879638671875,0.443058240032196,-0.09661997052785008,0.12271774039119482
1782661086079950600,1.46595068359375,0.26503099261224267,-0.13644472551383077,0.10794438802078365
1782661086090020600,1.4760205078125,0.11713994025886058,-0.16378376414254306,0.07685995231866836
1782661086100090600,1.486090576171875,0.0013414777368307112,-0.12299368952205404,0.11438055854812264
1782661086110161700,1.49616162109375,-0.043887657043337816,-0.13050421128263695,0.13932517632097005
1782661086120231700,1.506231689453125,-0.1156447332650423,-0.12518964693006127,0.19394231717139482
1782661086130302700,1.516302734375,-0.13065700895786284,-0.10023171301791443,0.21383345094695685
1782661086140372500,1.52637255859375,-0.1795744768619537,-0.10906995798461139,0.15737638131827114
1782661086150442500,1.5364423828125,-0.2037964794486761,-0.11315132728042081,0.13396686415821313
1782661086160513500,1.546513427734375,-0.1525526144236326,-0.1565588361239992,0.12406725530400871
1782661086170583800,1.556583740234375,-0.09312193581163883,-0.20570381090734152,0.10132876927331089
1782661086180654600,1.566654541015625,-0.07764379617273807,-0.24192069586077702,0.10397402308508753
1782661086190724600,1.576724609375,-0.07607786203026771,-0.2846431450496428,0.05994578852728009
1782661086200794600,1.586794677734375,-0.22654548687338827,-0.27749646989908067,-0.012673895873129367
1782661086210865700,1.59686572265625,-0.32531682674884793,-0.2566631051036529,-0.08840060637816786
1782661086220935700,1.606935791015625,-0.39257659155130387,-0.2564703590105288,-0.16012041932940482
1782661086231006700,1.6170068359375,-0.40651977670788764,-0.2596857591267675,-0.16522402607873082
1782661086241076700,1.62707666015625,-0.3672369831115007,-0.22265295468056573,-0.11597776461169124
1782661086251146500,1.637146484375,-0.3634381753504276,-0.18446383807240052,-0.06918839477747678
1782661086261217500,1.647217529296875,-0.4124631952822208,-0.18417860965654254,-0.052392742799222465
1782661086271287600,1.65728759765625,-0.3934574660390615,-0.15487448149994015,-0.06267156022936106
1782661086281358600,1.667358642578125,-0.36444472204446793,-0.08049662832058965,-0.08626300982758402
1782661086291428600,1.6774287109375,-0.3092150022536516,-0.027731727740727363,-0.08063932472690939
1782661086301498600,1.68749853515625,-0.2068511908441782,-0.012122728263773024,-0.04157017388120293
1782661086311569700,1.697569580078125,-0.13133154721856116,0.018850392550975082,-0.016327596075087786
1782661086321639400,1.707639404296875,-0.03988777375221252,0.0439671885529533,-0.026899989624321458
1782661086331709700,1.717709716796875,0.0740741209924221,0.05986249415799975,-0.02879647089540958
1782661086341780700,1.72778076171875,0.19730302577614783,0.06779080293923616,0.009328823228925465
1782661086351850800,1.737850830078125,0.3083446491599083,0.09991466469168662,0.05004997906535864
1782661086361921500,1.747921630859375,0.29786826333105565,0.1206951119897887,0.004461801714450121
1782661086371991600,1.757991455078125,0.31587562918663026,0.11533687289226799,-0.053274055678397415
1782661086382061800,1.768061767578125,0.3891635682374239,0.11265084867868572,-0.08801467580050229
1782661086392132600,1.778132568359375,0.4691881220668554,0.08695997911579906,-0.0735657330788672
1782661086402202600,1.78820263671875,0.5091097980886697,0.09757566381748765,-0.04142068240791559
1782661086412273700,1.798273681640625,0.4829524435251951,0.07511153774876148,-0.02655482944846153
1782661086422343700,1.80834375,0.4156961858540773,0.059145724190771576,-0.05083791457265615
1782661086432413700,1.81841357421875,0.2939391071885824,0.020735840971395372,-0.06498728982582688
1782661086442484700,1.828484619140625,0.15542261690199374,0.006850669612362981,-0.04086494822129607
1782661086452554800,1.8385546875,0.06117372288703918,0.06508318794835359,-0.00852481336966157
1782661086462625800,1.848625732421875,0.024701310536265373,0.09234159908890724,0.0043795302584767335
1782661086472695800,1.85869580078125,0.07104103690683841,0.07417440302912146,0.014824644166231155
1782661086482765800,1.868765869140625,0.08368366085886955,0.028887144853547212,0.021024375589191912
1782661086492836900,1.8788369140625,0.12052841365337372,-0.04308006698749959,0.0017084113530814646
1782661086502907000,1.888906982421875,0.15191431652009485,-0.0718260863373056,0.00343728097230196
1782661086512978000,1.89897802734375,0.20435060620009898,-0.09194755827002227,0.027744039233028886
1782661086523048000,1.9090478515625,0.23952947160899637,-0.10902312316820024,0.05741890039816498
1782661086533117700,1.91911767578125,0.24967852517962455,-0.10246705258823931,0.09832651871740818
1782661086543188700,1.929188720703125,0.26677403688728807,-0.0838264303304255,0.14479732412174343
1782661086553259000,1.939259033203125,0.2873252420067787,-0.06327928033154458,0.18066855570897458
1782661086563328800,1.949328857421875,0.2291372569322586,-0.08119399946760386,0.21765300923511385
1782661086573399800,1.95939990234375,0.15099311002194882,-0.10309442723896353,0.21133228178098795
1782661086583469800,1.9694697265625,0.005707856252789497,-0.12174370772726834,0.17057970789298413
1782661086593540900,1.979540771484375,-0.14877777206003664,-0.13309472096618263,0.14299568152725695
1782661086603611000,1.98961083984375,-0.26131401791572567,-0.16806421794071794,0.1031475091330707
1782661086613681000,1.999680908203125,-0.345126858112216,-0.20115327146351336,0.08998992139622569
1782661086623752000,2.009751953125,-0.3758089966237545,-0.18838669233825056,0.08795037839263677
1782661086633821700,2.01982177734375,-0.3442898227661848,-0.19460604177713392,0.06180179165750742
1782661086643892700,2.029892822265625,-0.2479857497870922,-0.19010412724800407,0.09115428900048136
1782661086653962800,2.039962646484375,-0.14962942045331,-0.15634977821689097,0.1309995387852192
1782661086664033000,2.050032958984375,-0.05680675984919071,-0.15447170938532798,0.19974691179692744
1782661086674103800,2.060103759765625,-0.023159926313161848,-0.15012925973422825,0.21617548402845857
1782661086684173800,2.070173828125,-0.01407587162554264,-0.14210037665534764,0.17488529613241552
1782661086694244900,2.080244873046875,-0.032685295027494427,-0.1339424238367006,0.18770751443505285
1782661086704315000,2.09031494140625,-0.0787234081029892,-0.13570694929119198,0.23908698853850363
1782661086714385000,2.100385009765625,-0.11966799743175506,-0.13122607755009083,0.26494433724209665
1782661086724456000,2.1104560546875,-0.19768647213578222,-0.09699391840677708,0.2681749897263944
1782661086734526000,2.12052587890625,-0.3037929772049188,-0.1062272819045931,0.21415537637770174
1782661086744596700,2.1305966796875,-0.3438970240563154,-0.12239059079606085,0.14101546749547123
1782661086754666800,2.140666748046875,-0.37284897777438164,-0.14644008636008948,0.0650853433728218
1782661086764736800,2.15073681640625,-0.30852409738004205,-0.14054317380860448,0.044267011749744414
1782661086774807800,2.160807861328125,-0.24311960505545138,-0.1509417086282745,0.004998392809182405
1782661086784877800,2.1708779296875,-0.1406447344869375,-0.14138466613404452,0.005454612144082784
1782661086794947800,2.18094775390625,-0.017715689432621,-0.11832995376102626,0.03525821425542235
1782661086805019000,2.191018798828125,0.07363046887814999,-0.11061294964291155,0.07027282901331781
1782661086815088600,2.201088623046875,0.06350538070499896,-0.09248528187591581,0.04821604163646698
1782661086825159700,2.21115966796875,0.0730675742983818,-0.054066411632485684,0.0393191800840199
1782661086835230000,2.22122998046875,0.1214917057275772,-0.029664632032066582,0.0574845129802823
1782661086845299700,2.2312998046875,0.06820727478563784,-0.03883625540528446,0.05285699931010603
1782661086855370800,2.241370849609375,0.021736615511775016,-0.013607852254994213,0.0182091720379889
1782661086865440800,2.251440673828125,0.0339805955350399,-0.016662636715732513,-0.004400280785560607
1782661086875511800,2.26151171875,0.049994157224893566,0.012264657485112547,0.007175882978737354
1782661086885581800,2.271581787109375,0.07374795777797699,0.0393543244626373,-0.024353666142374275
1782661086895651800,2.28165185546875,0.08313011862933635,0.03122198100928217,-0.043870559778064484
1782661086905723000,2.291722900390625,0.08854688298106193,0.030968115846067665,-0.04070741957202553
1782661086915793000,2.30179296875,0.13496610432863235,0.01454418325703591,-0.020662556539475917
1782661086925863700,2.31186376953125,0.2064759277909994,0.0025617767794057725,0.014135785119235515
1782661086935934000,2.321933837890625,0.26384616674184797,0.0272438711585477,0.04937529467418789
1782661086946004000,2.33200390625,0.24583646279871463,0.03667399933747947,0.0806137518942356
1782661086956075000,2.342074951171875,0.10800386312305926,0.04915891197714954,0.1145537231579423
1782661086966144800,2.352144775390625,-0.0853197376281023,0.06128569536153227,0.07107406239360571
1782661086976214800,2.36221484375,-0.2689782689332962,0.07789411767199635,0.03383972575962543
1782661086986285800,2.372285888671875,-0.2932370963990688,0.08814659508448093,0.0017870295472443103
1782661086996355800,2.38235595703125,-0.22913901049792765,0.08435618982557207,0.0559304154060781
1782661087006427000,2.392427001953125,-0.09586743512749671,0.06725475983377546,0.06875628697052598
1782661087016497000,2.402496826171875,0.05571078130602836,0.014788367276452481,0.06455576654076575
1782661087026566700,2.412566650390625,0.1821329291731119,0.004372589061036706,0.0535980269357562
1782661087036637700,2.4226376953125,0.27093232561051844,-0.007162877366691828,0.036361937713623046
1782661087046708000,2.4327080078125,0.29095687650740143,-0.026977402242086827,0.06046542848721146
1782661087056779000,2.442779052734375,0.21040566845536232,-0.02865165559723973,0.08399243454709648
1782661087066848800,2.452848876953125,0.08011866185367107,-0.0278406680079177,0.08868702210411429
1782661087076918800,2.462918701171875,-0.038919220981001854,0.00980276088360697,0.08206935753002763
1782661087086989800,2.47298974609375,-0.019934534525871277,0.039410986553318796,0.10217544923052191
1782661087097059800,2.483059814453125,-0.014942133066058159,0.03027819735314697,0.14042700008302927
1782661087107131000,2.493130859375,-0.016504560077190398,-0.008569821555167436,0.11797113038599491
1782661087117201000,2.503200927734375,0.02373451133072376,-0.07536847165189683,0.07188698621168732
1782661087127271000,2.51327099609375,-0.019947978529334068,-0.09267656666431576,0.022267215257138012
1782661087137341700,2.523341796875,-0.0631944150596857,-0.08272102637179195,0.033127047445625064
1782661087147411700,2.53341162109375,-0.08376490940153598,-0.09453037783745676,0.007469312967360019
1782661087157482000,2.54348193359375,-0.081525021520257,-0.12033559449501335,-0.009411386945843696
1782661087167553000,2.553552978515625,-0.0634562808662653,-0.14759433442912995,-0.04964768187478184
1782661087177622800,2.563622802734375,-0.07075695926845073,-0.17122052654717115,-0.07635887092873454
1782661087187693800,2.57369384765625,-0.07802548896670342,-0.17589776111058888,-0.11377587065324186
1782661087197763800,2.583763916015625,-0.03916822730600834,-0.12195256470497697,-0.06329919060841202
1782661087207833900,2.593833740234375,-0.029178748211264607,-0.06060078183729201,0.04535802185684442
1782661087217905000,2.60390478515625,-0.016429741275310515,-0.013958930714987218,0.09583309446647763
1782661087227975000,2.613974853515625,-0.05864098953902721,-0.01301003249231726,0.08463818510472775
1782661087238046000,2.6240458984375,-0.09858370834887027,-0.043439255688712,0.048224078812450166
1782661087248115700,2.63411572265625,-0.12627718643844127,-0.03449866459239274,0.03425488243177533
1782661087258186000,2.64418603515625,-0.06499532700181007,-0.015564320085011421,0.02278817039132118
1782661087268257000,2.654257080078125,0.0037409400939941405,-0.011979483868181704,0.03220437964275479
1782661087278326800,2.664326904296875,0.03506897529363632,-0.032851372309401626,-0.02601677704900503
1782661087288397800,2.674397705078125,0.07335574358999729,-0.048145058759488164,-0.07284983989447355
1782661087298467800,2.6844677734375,0.10322305858731269,-0.03223305774796754,-0.09947598101347685
1782661087308537600,2.69453759765625,0.14788053095936773,-0.011047646378166973,-0.03378960300758481
1782661087318608600,2.704608642578125,0.15536182662546633,-0.01895418171901256,0.015237755011767148
1782661087328679000,2.714678955078125,0.10748305411934853,-0.03842975696362555,-0.014773060109466314
1782661087338749000,2.7247490234375,0.03006137626469135,0.0018649901542812585,-0.028904022923111915
1782661087348819700,2.73481982421875,-0.03364098831713199,0.02209748471342027,-0.020749504170566795
1782661087358889700,2.7448896484375,-0.08860650421380996,0.012225604116357862,0.02462313073351979
1782661087368960800,2.754960693359375,-0.2031348006695509,0.034137466597184536,0.018800123668462038
1782661087379031000,2.765031005859375,-0.23822248066365717,0.0007383607445284724,-0.039356443354487416
1782661087389100800,2.775100830078125,-0.1178448736578226,-0.033577458094246684,-0.09349661434292793
1782661087399171800,2.785171875,0.1047474916756153,-0.1383877493403852,-0.07571078228354454
1782661087409241900,2.795241943359375,0.16651158167123795,-0.15576576778385787,-0.06158551855832338
1782661087419313000,2.80531298828125,0.22866087159216403,-0.10696630023624748,-0.00043064650222659107
1782661087429383000,2.8153828125,0.2455973933458328,-0.08403685821071266,0.09148454386815429
1782661087439453000,2.825452880859375,0.15773615454137324,-0.06532386483643203,0.06439794563055037
1782661087449524000,2.83552392578125,0.0802396578848362,0.006651530311070382,0.05233005282655358
1782661087459594000,2.845593994140625,-0.011101824250817299,0.007833360506780445,0.09086115127280354
1782661087469665000,2.8556650390625,-0.06330722778439521,0.01739533490445465,0.10889014443829655
1782661087479735000,2.865735107421875,-0.08314064002335071,0.0008794862482696771,0.10313348060771822
1782661087489805000,2.87580517578125,-0.11350772123634814,-0.010682027936168015,0.097299221496284
1782661087499876000,2.8858759765625,-0.2000935332775116,-0.027048969640955326,0.06873743613958358
1782661087509946000,2.895946044921875,-0.21005904697477817,-0.007246829323098063,0.03699731300771236
1782661087520016100,2.90601611328125,-0.13731062162816524,-0.00568458497505635,0.026275427985191342
1782661087530087000,2.9160869140625,-0.07611176429986953,-0.035094767322018744,0.0638221915692091
1782661087540157200,2.9261572265625,-0.05998480536341667,-0.03681917996183037,0.0752494483821094
1782661087550228200,2.936228271484375,-0.00755728351175785,-0.013826792235299944,0.07277721304967999
1782661087560298200,2.94629833984375,0.039238369932770724,-0.014625285669229923,0.07948708595186471
1782661087570368000,2.956367919921875,0.09010346477329731,-0.01352243899386376,0.07775354015752672
1782661087580439000,2.96643896484375,0.11643266877233982,0.01965750768277794,0.1257454176492989
1782661087590509000,2.976509033203125,0.1559124462455511,0.047147681752592326,0.1387577516965568
1782661087600580000,2.986580078125,0.15306991629600525,0.04947469992805272,0.16274200000464914
1782661087610650000,2.996650146484375,0.10445932238399983,0.01440930483099073,0.10690262388288974
1782661087620720000,3.00672021484375,0.1227291385680437,-0.0009695026192814111,0.04659925408959389
1782661087630791200,3.016791259765625,0.17937223228812216,-0.025850553636625407,0.043060996960848565
1782661087640861000,3.02686083984375,0.22371640092730521,-0.037015287055820224,0.042106911106407637
1782661087650932000,3.036931884765625,0.15227321296036242,-0.016259791535884142,0.03527516539022326
1782661087661002200,3.047002197265625,0.06438157901763916,0.04951652977578341,0.03971022522822022
1782661087671072000,3.057072021484375,0.02304360645711422,0.037140703533776104,0.06107157768681645
1782661087681143000,3.06714306640625,0.03241816852390766,-0.01954604666493833,0.08147489876821637
1782661087691213000,3.077213134765625,0.05808510922193527,-0.030217735870182512,0.07548588748648763
1782661087701284000,3.0872841796875,0.061392334073781966,-0.03349916869364679,0.07152648233622312
1782661087711354000,3.09735400390625,0.053824529168009755,-0.03362926134672016,0.08216127359718084
1782661087721424100,3.107424072265625,0.10983107855021954,-0.037039946573041375,0.054539253308624025
1782661087731495200,3.1174951171875,0.09504559735059738,-0.049566469864733516,0.06145896956920623
1782661087741565000,3.12756494140625,0.00649286915063858,-0.05060571325197816,0.023189883060008284
1782661087751636000,3.137635986328125,-0.0700222152531147,-0.060734746947884555,-0.01141352054849267
1782661087761706200,3.147706298828125,-0.1363707104295492,-0.08785455333534628,-0.016327596075087786
1782661087771776300,3.1577763671875,-0.17176117276251315,-0.10142748040743171,-0.015576485446840524
1782661087781847000,3.167846923828125,-0.17957623042762277,-0.08528115918338298,0.013089198675751685
1782661087791917000,3.1779169921875,-0.1903203272819519,-0.06359601813051849,0.02982245294228196
1782661087801987000,3.187987060546875,-0.16061083319485187,-0.04068312538098544,0.06537512009963393
1782661087812057900,3.198057861328125,-0.009157119923830032,-0.037951252731680866,0.12899229061603545
1782661087822128000,3.208128173828125,0.20476152508854864,-0.06175886583123356,0.15845175546482204
1782661087832199200,3.21819921875,0.39018881963193414,-0.04752853429634124,0.21646569914668798
1782661087842269200,3.228269287109375,0.46706338499784467,-0.06193999455180019,0.18226430046781897
1782661087852339000,3.2383388671875,0.451558941873908,-0.06451452121492475,0.15186711637750266
1782661087862410000,3.248409912109375,0.3116758394092321,-0.08649400557186454,0.1479307998418808
1782661087872480300,3.258480224609375,0.22319091574847696,-0.12721497874520718,0.11907733806222677
1782661087882551300,3.26855126953125,0.09451660504043102,-0.13356548028308898,0.1378638715967536
1782661087892621000,3.27862109375,-0.027047581401467322,-0.16927494543734936,0.1466265853755176
1782661087902691000,3.288691162109375,-0.20114625720083712,-0.1553183162773028,0.1664154278203845
1782661087912762000,3.29876220703125,-0.40319443167746066,-0.15197748141679912,0.18598887394890187
1782661087922832100,3.30883203125,-0.48430502717792984,-0.15566789689995347,0.10993877670839428
1782661087932903200,3.318903076171875,-0.4575421079367399,-0.13732543560480698,0.06956789561435579
1782661087942973200,3.32897314453125,-0.258310744446516,-0.1447195096451789,0.05737491512596607
1782661087953043000,3.33904296875,-0.14778876102268695,-0.15571845804341136,0.12074074122980236
1782661087963114000,3.349114013671875,-0.0753682524561882,-0.1240421208627522,0.16726649169176816
1782661087973184000,3.35918408203125,-0.01003039562702179,-0.12348636840982362,0.1844916211284697
1782661087983255000,3.369255126953125,-0.016669979771971703,-0.14309556170515716,0.1910049485452473
1782661087993325000,3.379324951171875,-0.008915127861499787,-0.15458539889287204,0.15048253015130758
1782661088003395000,3.38939501953125,-0.09625497314035891,-0.13551168244741857,0.12591302930116652
1782661088013466000,3.399466064453125,-0.23510288733839987,-0.12589158465433864,0.09637041621357202
1782661088023536000,3.4095361328125,-0.3090063279390335,-0.11998444296978414,0.08092500980049372
1782661088033607000,3.41960693359375,-0.33377778110206124,-0.08093936711940913,0.08372560030445456
1782661088043677200,3.42967724609375,-0.30727263601422306,-0.0709224702947773,0.09507657701075077
1782661088053747200,3.439747314453125,-0.31336101601719857,-0.08865715668881312,0.10504194457754493
1782661088063818000,3.44981787109375,-0.31489830858707424,-0.059059616809897124,0.08430193888768553
1782661088073888000,3.459887939453125,-0.21731530171334743,-0.017421236530691383,0.05160100789964199
1782661088083958300,3.469958251953125,-0.07763152121305465,-0.04834971448611468,0.05998553601577877
1782661088094029300,3.480029296875,0.02366495322585106,-0.09410572268459945,0.06061813483089208
1782661088104099000,3.49009912109375,0.02319032145142555,-0.09687175333183258,0.031034605211019514
1782661088114170000,3.500170166015625,0.0511211154282093,-0.05414597967471927,-0.010590952119231223
1782661088124240100,3.510240234375,0.10342413411736488,-0.01873020023740828,-0.021040596071630713
1782661088134310000,3.520309814453125,0.1498129603266716,-0.048447329641692335,0.011890344280004501
1782661088144381000,3.530380859375,0.1525280645042658,-0.03497534219343215,0.019657325019687415
1782661088154451200,3.540451171875,0.13747604132294655,-0.03719572165664285,-0.001499737038463354
1782661088164522200,3.550522216796875,0.12474866169691085,-0.04302698509339243,-0.02862140658944845
1782661088174592000,3.560592041015625,0.05901859067976475,-0.03261204712819308,0.00847965905368328
1782661088184662000,3.570662109375,-0.0004933364748954773,0.016252448479644955,0.053080871193855995
1782661088194733000,3.580733154296875,0.08264847259223461,-0.0028809257311746476,0.05918956333249807
1782661088204803000,3.590802978515625,0.08179331706762313,-0.037444362655468286,0.08344619884118437
1782661088214874000,3.6008740234375,0.06022913551330566,-0.02085943081844598,0.09269655000641941
1782661088224944000,3.610944091796875,0.0195849904358387,-0.009517769929766655,0.0941162075459957
1782661088235014100,3.62101416015625,0.05777355905473232,-0.017600611685588956,0.047165801931172605
1782661088245085000,3.6310849609375,0.09506839370429515,-0.03553852903414517,0.03719356623217463
1782661088255155200,3.6411552734375,0.009245967251062392,0.014165595735609531,0.06208630768731236
1782661088265225200,3.65122509765625,-0.0678214903384447,0.005008439279161394,0.059182695200294254
1782661088275296000,3.6612958984375,-0.00969838719367981,-0.012662716891989112,-0.007279197222739457
1782661088285366000,3.671365966796875,0.04847381578981876,-0.03406878527514636,0.0178682496458292
1782661088295437000,3.68143701171875,0.040838206344842906,-0.019199096390791235,0.035016806714981794
1782661088305507000,3.691507080078125,0.0523801755785942,-0.037004144607298076,-0.0042756314925849435
1782661088315577000,3.7015771484375,0.05651040725111961,-0.042295017557032404,-0.030317250721901653
1782661088325648100,3.711648193359375,0.06138824242055416,-0.03813873812779784,-0.051990591739118096
1782661088335718100,3.72171826171875,0.05236380896568298,-0.033266455916315316,-0.0374248907700181
1782661088345788000,3.731787841796875,0.034715924072265626,-0.051571818337775764,-0.028421207842230796
1782661088355859000,3.74185888671875,-0.02231938383579254,-0.04225936172176152,-0.0504831097856164
1782661088365929200,3.75192919921875,-0.03901040639579296,-0.04983286571595817,-0.03740487089529633
1782661088376000300,3.762000244140625,0.04471534003913402,-0.05954071485772729,-0.0024471008911728857
1782661088386070000,3.772070068359375,0.07751753944456577,-0.026306224982254205,0.06089329851046204
1782661088396141000,3.78214111328125,-0.016124036327004432,0.027572555123642085,0.06590265110507607
1782661088406211000,3.792211181640625,-0.10802373686730861,0.046723866849951445,0.07928016520291567
1782661088416281000,3.802281005859375,-0.10033610497415066,-0.005999751871451735,0.1108178976304829
1782661088426352000,3.81235205078125,-0.18333587522208689,-0.05935012418907135,0.03983545904308557
1782661088436422100,3.822422119140625,-0.2680360196471214,-0.09140274733621627,-0.10286635410413146
1782661088446492200,3.8324921875,-0.35800153725445266,-0.08837463168669492,-0.1738239505112171
1782661088456563000,3.84256298828125,-0.28606384376883504,-0.05284096149075776,-0.12456366051882505
1782661088466633200,3.85263330078125,-0.18278467108011245,-0.015655249771475793,-0.027719781574606892
1782661088476704000,3.8627041015625,-0.07094868244826794,-0.000982544763945043,0.0368638958863914
1782661088486774300,3.872774169921875,0.019383330383896828,-0.02853588373046368,0.016153408551961183
1782661088496844300,3.88284423828125,0.11953414191901683,-0.01911993020735681,-0.006228957517445087
1782661088506915300,3.892915283203125,0.17658698548376559,0.012340024276264011,0.012915011152625083
1782661088516985000,3.902985107421875,0.22019465654194353,0.01952606332283467,0.03643178807944059
1782661088527056100,3.91305615234375,0.2417904022783041,-0.013515022872388363,0.012080313894152641
1782661088537126400,3.92312646484375,0.27298458196520803,-0.030940424121543762,-0.014546850138157605
1782661088547196200,3.933196044921875,0.31306407889723775,-0.05023680687434971,-0.016451514715701342
1782661088557267200,3.94326708984375,0.268786545753479,-0.04033109707292169,0.012834639392793178
1782661088567337200,3.953337158203125,0.21037001262009142,-0.002268419856019318,0.03428513143956661
1782661088577407200,3.9634072265625,0.1156704522281885,-0.009190985660813748,0.053223494534939526
1782661088587478300,3.973478271484375,0.026993805387616157,-0.04659947328530252,0.05050064544230699
1782661088597548300,3.98354833984375,-0.031188334468007086,-0.07544942793361842,0.046344694806635375
1782661088607619300,3.993619384765625,-0.09740472769737243,-0.08373338175211101,0.05336246461421251
1782661088617689000,4.003689208984375,-0.1455167244374752,-0.10191475246772169,0.08586129715889691
1782661088627759000,4.013759033203125,-0.10159574964642525,-0.09445687420982866,0.11831292956098914
1782661088637830100,4.023830078125,0.009369301369786262,-0.08793061424624174,0.19923793936148285
1782661088647900200,4.033900146484375,0.10337854140996933,-0.07569558471441268,0.26429157242178913
1782661088657971200,4.04397119140625,0.12318915729522704,-0.06063260174766182,0.32667598627284167
1782661088668041200,4.054041259765625,0.10076806665062904,-0.05040865630991757,0.4045085830159485
1782661088678111200,4.064111328125,0.0721522130191326,-0.06124189275242388,0.35987405312806364
1782661088688182000,4.07418212890625,0.009237199422717094,-0.05696246186755597,0.3162204971015453
1782661088698252300,4.084252197265625,-0.07430792974829674,-0.029350999505631623,0.3113862088128924
1782661088708322300,4.094322265625,-0.17559212922751902,-0.011611965730041265,0.3168943047098815
1782661088718393300,4.104393310546875,-0.2462508888185024,0.007260492522269487,0.2658655437402427
1782661088728463000,4.114463134765625,-0.2843009257495403,0.02949070023726672,0.19260303139165041
1782661088738534100,4.1245341796875,-0.35963235332667826,0.05601016611140221,0.09304726314023136
1782661088748604400,4.1346044921875,-0.4075087877452373,0.037210590432211754,-0.016020429822057484
1782661088758674200,4.144674072265625,-0.410668713080883,-0.0025385785669088364,-0.08606047299280763
1782661088768745200,4.1547451171875,-0.3817886555552482,-0.03348119464553893,-0.15492898816615341
1782661088778815200,4.164815185546875,-0.2961322333186865,-0.04061568616796285,-0.24199352363497018
1782661088788886300,4.17488623046875,-0.20363222879767418,-0.02346859040353447,-0.3137602444678545
1782661088798956000,4.1849560546875,-0.10592062710821627,0.01189830839075148,-0.3685483579710126
1782661088809026300,4.1950263671875,-0.03398410266637802,0.05093768515270203,-0.40000264989882706
1782661088819097300,4.205097412109375,0.0264560452491045,0.07746423835474997,-0.4048851612433791
1782661088829167000,4.2151669921875,0.12579904753267765,0.09406783835962414,-0.39752237739041446
1782661088839237000,4.225237060546875,0.2589578101783991,0.08828640541397034,-0.3597575871415436
1782661088849308200,4.23530810546875,0.32559389012455936,0.10031805786080658,-0.2794853421613574
1782661088859378200,4.245378173828125,0.40994273689389227,0.11614515706785022,-0.16876111416369677
1782661088869449200,4.25544921875,0.4698837031155824,0.12840974148772658,-0.05214139838665723
1782661088879519200,4.265519287109375,0.503814614289999,0.12604476592205463,0.04613718953579664
1782661088889589200,4.27558935546875,0.5031839151710271,0.09471015485115349,0.0984016297802329
1782661088899660000,4.285659912109375,0.4820470191180706,0.09029555327929556,0.12788827489688992
1782661088909730300,4.295730224609375,0.3771756088018417,0.08996288725882769,0.1289332539051771
1782661088919801300,4.30580126953125,0.3237462164312601,0.05324709460623562,0.12938479706496
1782661088929871400,4.315871337890625,0.3047884179830551,0.03457918248269707,0.1633417194634676
1782661088939941000,4.325941162109375,0.16529636066257952,-0.0035969285134226084,0.1524235812164843
1782661088950012200,4.33601220703125,0.038218963757157325,-0.02844546550065279,0.13196984512209892
1782661088960082200,4.346082275390625,-0.04325812696814537,-0.05252320077847689,0.10938903387114406
1782661088970152200,4.356152099609375,-0.09809387900531291,-0.06481365029197186,0.12727189656421542
1782661088980223200,4.36622314453125,-0.11691373028755188,-0.05634305132757872,0.13188771979659794
1782661088990293200,4.376293212890625,-0.0979074165225029,-0.06084602530263364,0.14834288777410984
1782661089000364300,4.3863642578125,-0.05324526797533035,-0.07627309234142303,0.1476344472438097
1782661089010434000,4.39643408203125,-0.020906594428420064,-0.08302022851407527,0.159513977868855
1782661089020504300,4.40650439453125,-0.054771454629302024,-0.08459577073510735,0.1921234311811626
1782661089030575400,4.416575439453125,-0.10845160689055919,-0.07760127220526337,0.17232289829850195
1782661089040645000,4.42664501953125,-0.1874742902010679,-0.07752846269737929,0.15485563066899777
1782661089050716200,4.436716064453125,-0.1901023006170988,-0.09124207688178866,0.10036781528666615
1782661089060786200,4.4467861328125,-0.21903496511280535,-0.09355418974906206,0.07332096453756093
1782661089070856400,4.4568564453125,-0.15764496912658213,-0.11283095448594539,0.027819296426326034
1782661089080927200,4.46692724609375,-0.04844225160777568,-0.1097046391589567,-0.0065590662546455855
1782661089090997200,4.476997314453125,0.017913257831335065,-0.09803319832663983,0.0027213877879083154
1782661089101067300,4.4870673828125,0.05421382074654102,-0.09940434054937212,-0.0008802899658679962
1782661089111138000,4.497137939453125,0.09592530279457569,-0.15085647803023455,-0.009042115242034196
1782661089121208000,4.5072080078125,0.10171616115570067,-0.18633078272175044,-0.024832243439555167
1782661089131279000,4.517279052734375,0.10483984613418579,-0.20821674357634037,-0.060156800929456945
1782661089141349400,4.527349365234375,0.1548275736182928,-0.18570698826760051,-0.08664251066446303
1782661089151419100,4.537419189453125,0.15780045194923878,-0.15945611020177602,-0.04135477756485343
1782661089161490200,4.547490234375,0.15297522374987602,-0.1658071597289294,0.010636398696154355
1782661089171560200,4.557560302734375,0.14013853853046893,-0.18231566532887516,0.04756999881789088
1782661089181631200,4.56763134765625,0.014353519523143768,-0.15418803360573946,0.04450418150648475
1782661089191701200,4.577701171875,-0.0914192235469818,-0.13398608031533657,0.07770984714627266
1782661089201771300,4.587771240234375,-0.07231471010446548,-0.16874255559369922,0.09313406464084982
1782661089211842300,4.59784228515625,-0.13983166453838347,-0.1879184903046116,0.11876578789502382
1782661089221912000,4.607912109375,-0.24363982953727245,-0.21100045601073653,0.05631970698460936
1782661089231982300,4.617982421875,-0.2716536256223917,-0.2305616271795705,-0.008650777836889029
1782661089242053400,4.628053466796875,-0.23747429264485834,-0.25413645443655547,0.008729688291996716
1782661089252123100,4.638123046875,-0.1624175903558731,-0.24882274860050527,0.05423296383842825
1782661089262194200,4.648194091796875,-0.09188801010251045,-0.21582382104657588,0.09823387199789285
1782661089272264200,4.65826416015625,-0.08141220879554747,-0.19045918776337056,0.12340952204763889
1782661089282334200,4.668334228515625,-0.029280455020070074,-0.16272775228358805,0.16524200012683868
1782661089292405200,4.6784052734375,-0.00978898808658123,-0.14164806631058455,0.19948358468562363
1782661089302475300,4.688475341796875,-0.027172084563970564,-0.08773311891276389,0.2757639835506677
1782661089312546300,4.69854638671875,-0.06416705948412418,-0.019295652100443837,0.27463731760829685
1782661089322616000,4.708615966796875,-0.09874269830286503,0.024633140670880675,0.27370646649897096
1782661089332686000,4.71868603515625,-0.030692075383663177,0.0013183160569518804,0.2439635085336864
1782661089342757000,4.728757080078125,-0.01120762271285057,-0.04532262174990028,0.20642142112478612
1782661089352827400,4.738827392578125,-0.03892681976556778,-0.059667884901352226,0.1460256968729198
1782661089362897200,4.748897216796875,-0.05426876580417156,-0.11019662392698228,0.04489142725840211
1782661089372968200,4.75896826171875,-0.00620353081524372,-0.11932349484302103,-0.02620207048803568
1782661089383038200,4.7690380859375,-0.013017302483320236,-0.12559351502321658,-0.06197276431024074
1782661089393109200,4.779109130859375,-0.02852466821670532,-0.06680497023966163,-0.025815993779897687
1782661089403179300,4.78917919921875,-0.030827099940180777,-0.011435622782446444,0.05639306448176503
1782661089413249300,4.799249267578125,-0.001070259580016136,0.0032202772207558152,0.057092591053247446
1782661089423320300,4.8093203125,0.035112814435362814,-0.010179339111037551,0.052832010999321936
1782661089433390000,4.81939013671875,0.042836102163791655,-0.03710307493712753,-0.006501344718039035
1782661089443460400,4.82946044921875,0.061006549626588816,-0.06258340702187269,-0.0740782126456499
1782661089453531400,4.839531494140625,0.1515688640832901,-0.07235003714617341,-0.06860372675731778
1782661089463602000,4.849601806640625,0.18873042774200438,-0.06862495220843702,-0.0429943614654243
1782661089473672700,4.859672607421875,0.22970599673092365,-0.06812916804812848,-0.024098083946108816
1782661089483742700,4.86974267578125,0.2537204940468073,-0.05770195512324571,0.02099588014706969
1782661089493812700,4.879812744140625,0.22167115883529184,-0.04303297644276172,0.04407835730984807
1782661089503883500,4.889883544921875,0.08295417754054069,-0.038711861840635534,0.08068784004375339
1782661089513953800,4.899953857421875,0.00018821604847908018,-0.056759450108744204,0.06784472508355975
1782661089524024800,4.91002490234375,-0.12549568067193032,-0.0647937400151044,0.055160892338305706
1782661089534094800,4.9200947265625,-0.19197043257653712,-0.04225724282991141,0.07004749582484364
1782661089544164600,4.93016455078125,-0.20381226153969764,0.0033184768982231615,0.141788936085999
1782661089554235600,4.940235595703125,-0.2018622965157032,-0.018152108088508246,0.18672522539943456
1782661089564305700,4.9503056640625,-0.18142916481792926,-0.03522763645406812,0.13891191934496164
1782661089574375700,4.960375732421875,-0.13710428540110586,-0.03979600381553173,0.07243468322232365
1782661089584446700,4.97044677734375,-0.09672025256454944,-0.052426352807879446,0.11052782864272594
1782661089594516700,4.980516845703125,-0.06596855594813823,-0.04984937845934182,0.1759666616283357
1782661089604587800,4.990587890625,-0.08729191448390483,-0.06287336641177535,0.1546810047544539
1782661089614657500,5.000657470703125,-0.12733400201499462,-0.050611595003493125,0.03788198688775301
1782661089624727800,5.010727783203125,-0.11428455082774161,-0.022495032663643357,-0.0017436287969350814
1782661089634798800,5.020798828125,-0.06972294004559516,-0.022877894501388073,0.016374650087207555
1782661089644868600,5.03086865234375,0.018065818044543266,-0.015088592332042752,0.01064034421890974
1782661089654938600,5.040938720703125,0.15012509501576424,-0.017523856654949484,0.05995645605176687
1782661089665009700,5.051009765625,0.25128596037626266,-0.023782478658296167,0.060179012761265034
1782661089675080000,5.061079833984375,0.2850508673340082,-0.05643072961103171,0.013178338263928889
1782661089685150700,5.071150634765625,0.19794190820157526,-0.03818126209527254,0.025780045683681963
1782661089695220700,5.081220703125,0.10742109479904174,-0.043559557600133116,0.019264087918400764
1782661089705290800,5.091290771484375,0.01721241608560085,-0.06294895239863545,-0.02493994159772992
1782661089715361500,5.101361572265625,-0.0660223319619894,-0.04333079034555703,-0.05303586300835013
1782661089725431800,5.111431884765625,-0.1046387706041336,-0.035305816256813706,-0.05271291466429829
1782661089735501800,5.121501708984375,-0.09171089996993541,-0.024936690194718537,-0.03502221354246139
1782661089745572900,5.13157275390625,-0.058006783288717265,0.002027048848196864,0.03486468489319086
1782661089755642600,5.141642578125,-0.012148118433356284,0.00868738352023065,0.07869301296472549
1782661089765713700,5.151713623046875,0.030365327647328376,-0.0008170885365456342,0.07877981446534395
1782661089775783700,5.16178369140625,0.020715455770492552,0.022406989054009317,0.0859773247539997
1782661089785853700,5.171853759765625,-0.016599837145209313,-0.008872676959261298,0.030095424664765596
1782661089795924700,5.1819248046875,-0.09979191509485244,-0.06601853256970644,-0.06130275609418749
1782661089805994800,5.191994873046875,-0.2230366019695997,-0.056450968681462106,-0.10070829928740858
1782661089816065800,5.202065673828125,-0.16003098748028277,-0.061602835019305344,-0.048131578223407266
1782661089826135600,5.212135498046875,0.061090136256814,-0.0702031613105908,0.03631459144055843
1782661089836205800,5.222205810546875,0.13286124100387095,-0.04827953532673418,0.09536196982339024
1782661089846276900,5.23227685546875,0.07995031954944133,-0.033950784918665884,0.07695157612487673
1782661089856346600,5.2423466796875,0.05894610996544361,0.02296334429513663,0.05386836830973625
1782661089866416600,5.252416748046875,0.0002665419816970825,0.026300964285247027,0.07635565605834126
1782661089876487700,5.26248779296875,-0.006989712756872176,0.017455357996001838,0.10442805046290159
1782661089886557700,5.2725576171875,0.05292202737033367,-0.00004084346704185009,0.12322013695538044
1782661089896628700,5.282628662109375,0.16764496961534023,-0.05147325333412736,0.08199322355389595
1782661089906698800,5.29269873046875,0.10488543884158134,-0.09578377543203533,-0.024172610487043857
1782661089916768800,5.302768798828125,-0.04409399327039718,-0.051624242644757026,-0.06408259607106447
1782661089926838500,5.312838623046875,-0.0969967314183712,-0.01732095449399203,-0.00104220252931118
1782661089936908800,5.32290869140625,-0.03807575589418411,-0.03659530807808041,0.0637263299793005
1782661089946979800,5.332979736328125,-0.006861702463030815,-0.026391272917203605,0.05973068447187543
1782661089957049600,5.343049560546875,-0.005144377151131629,-0.020555077577009796,0.004601794707030058
1782661089967119600,5.35311962890625,0.03809504511654377,-0.0003337254663929343,0.06441343546062707
1782661089977190700,5.363190673828125,0.05932020397484302,-0.008069251621887088,0.11056728387027978
1782661089987261000,5.373260986328125,0.07565700626969336,-0.03301383286211639,0.11451280662566422
1782661089997331700,5.383331787109375,0.08138356722295284,-0.012511106526851654,0.11363865413963795
1782661090007401700,5.393401611328125,0.1702384932398796,-0.005908931782841682,0.1355902275763452
1782661090017471700,5.4034716796875,0.34999884806275366,-0.027119367996044454,0.1821566023096442
1782661090027542800,5.413542724609375,0.47564708894789215,-0.05477083357479423,0.25702289659306404
1782661090037612800,5.42361279296875,0.3142430595487356,-0.07089560055416078,0.2161046107493341
1782661090047682800,5.433682861328125,-0.09175999980866908,-0.1560016223663464,-0.02157470294833183
1782661090057753900,5.44375390625,-0.4489356076329946,-0.25271044022142886,-0.36023499539494513
1782661090067823600,5.45382373046875,-0.6728033997297287,-0.12212909031566231,-0.40024361904785033
1782661090077894700,5.463894775390625,-0.6984469595521688,0.06885518076773732,-0.11458499507904052
1782661090087964700,5.473964599609375,-0.4179097702503204,0.07829327305741608,0.20177344918847082
1782661090098034700,5.48403466796875,-0.07700608279109,0.07484693199582397,0.31711729981079695
1782661090108105700,5.494105712890625,0.12040741762220859,0.06491119238231331,0.19759528672099114
1782661090118175700,5.50417578125,0.128166945707798,0.0377813029922545,0.04452653946876525
1782661090128246800,5.514246826171875,0.09782675250172615,0.015190006879903375,0.033939825133234264
1782661090138316500,5.524316650390625,0.18601999973952768,-0.031378523277863855,0.04642725852355361
1782661090148386800,5.53438671875,0.24849253026545046,-0.08202201125696301,-0.007001987716555595
1782661090158457900,5.544457763671875,0.14109189373254774,-0.1354194010540843,-0.0430571975685656
1782661090168527600,5.554527587890625,0.0038689503878355023,-0.11588190302178263,-0.09315145416706799
1782661090178597600,5.56459765625,-0.1354816526353359,-0.077093761074543,-0.08958134059533476
1782661090188668700,5.574668701171875,-0.22549100938439368,0.016907953246310354,-0.0365621364608407
1782661090198738700,5.58473876953125,-0.2025286514699459,0.035082236634008584,-0.02046659557595849
1782661090208809700,5.594809814453125,-0.15269465324282644,0.016288286978006362,-0.029093992537260055
1782661090218879700,5.604879638671875,-0.023370938715338706,-0.038832821339182554,-0.028018472260236738
1782661090228949800,5.61494970703125,0.07898527390956878,-0.02813007940854877,0.030122897193580866
1782661090239020800,5.625020751953125,0.13031857078373432,-0.014348331891372799,0.09682765846177935
1782661090249090600,5.635090576171875,0.1627139429539442,-0.02588061998132616,0.10238821519836783
1782661090259160800,5.645160888671875,0.14935411064326762,-0.045386517298966644,0.07863324560150503
1782661090269231900,5.65523193359375,0.1083206739872694,-0.03912603213209659,0.026646745515614745
1782661090279301600,5.665301513671875,0.10937222886681557,-0.016142412233911455,0.05335603487342596
1782661090289372700,5.67537255859375,0.15361001452207565,-0.03644899494256824,0.11115589741319418
1782661090299442700,5.685442626953125,0.11115151349902153,-0.08537400683229789,0.0943200595550239
1782661090309512700,5.6955126953125,0.009866144976019859,-0.08404798239292577,0.0680165745191276
1782661090319584500,5.70558447265625,-0.11775836441814899,-0.05982439063731581,0.03685030575245619
1782661090329655600,5.715655517578125,-0.1651139898329973,-0.06151550379572436,0.022798253393918274
1782661090339725800,5.725725830078125,-0.2571001996129751,-0.057441313159372655,0.02070610342025757
1782661090349795800,5.7357958984375,-0.2577478498667478,-0.048250090036541224,0.018730127172172067
1782661090359866600,5.74586669921875,-0.25126608663201333,-0.06278888473240658,0.03821604114770889
1782661090369936600,5.7559365234375,-0.23239304385781287,-0.03071998630389571,0.0778930947586894
1782661090380007700,5.766007568359375,-0.1830956367254257,-0.021346666346117853,0.07702478749155998
1782661090390078000,5.776077880859375,-0.0965694459170103,-0.030069084647111593,0.08212737132757901
1782661090400147700,5.786147705078125,0.03426058152019977,-0.07567940076459198,0.0706602208957076
1782661090410218800,5.79621875,0.09481120407283306,-0.07534622328747063,0.03226473152786493
1782661090420288800,5.806288818359375,0.09526596210300922,-0.0670626713277772,0.010544336498528718
1782661090430358500,5.816358642578125,0.06508242076337337,-0.05285290765687823,0.02376724455654621
1782661090440429600,5.8264296875,0.07210311318039894,-0.043058403144963085,0.03924582258686423
1782661090450499800,5.836499755859375,0.09000584961771964,-0.047586109702475364,0.032297903145104646
1782661090460570400,5.8465703125,0.0743657974153757,-0.03477196510843932,0.0006553951688110828
1782661090470640400,5.856640380859375,0.0834159498333931,-0.021564985271915794,-0.022108371433615683
1782661090480710100,5.866710205078125,0.10514672012627124,-0.03935271702744066,-0.00087707509547472
1782661090490781200,5.87678125,0.12716741327643394,-0.0432603554578498,-0.00483370376676321
1782661090500851500,5.8868515625,0.08036649913489818,-0.01550820598360151,-0.0046573242865502835
1782661090510921200,5.896921142578125,0.08003975139856338,0.005512406745925545,0.012680033352971076
1782661090520992300,5.9069921875,0.12451251485347747,-0.02248505925890058,0.061278644566237925
1782661090531062300,5.917062255859375,0.0663227762132883,-0.024581812342442572,0.062465808524191375
1782661090541133300,5.92713330078125,0.008003858235478402,-0.027930136389657852,0.01714022763222456
1782661090551203300,5.937203369140625,-0.0627063392817974,-0.05255728571116924,-0.0354597281768918
1782661090561273300,5.9472734375,-0.24158348152935505,-0.02153258083965629,-0.02113952640146017
1782661090571344400,5.957344482421875,-0.34246669899225235,-0.04719605093896389,-0.10546192355528473
1782661090581414100,5.9674140625,-0.08215747420489787,-0.06028152328766882,-0.12751710349693893
1782661090591484400,5.977484375,0.08234042955636978,-0.01665207878910005,-0.011267682337015866
1782661090601555500,5.987555419921875,0.6538876868575811,-0.07507840266413986,0.20742109968662262
1782661090611625500,5.99762548828125,0.3866337574988603,-0.10762070902436971,0.3015307313613593
1782661090621696300,6.0076962890625,-0.006402852779626846,-0.031137919455021618,0.10174991729483007
1782661090631766300,6.017766357421875,-0.1566664794832468,-0.007840740095637738,0.034299159964919085
1782661090641836300,6.027836181640625,-0.2021282539755106,-0.07650887385867536,0.10242007164135575
1782661090651907300,6.0379072265625,-0.15842413680553435,-0.05838018317837268,0.15363894835561512
1782661090661977300,6.047977294921875,-0.04665887532234192,-0.003083900957368314,0.19432590966150162
1782661090672047400,6.05804736328125,-0.03889759367108345,0.024135420281812547,0.1661468400120735
1782661090682118400,6.068118408203125,-0.04495791662335395,-0.0008613295370712876,0.10720511396080255
1782661090692188200,6.078188232421875,0.12487433390319347,-0.043568106232769785,0.12460355413779615
