time,seconds_elapsed,z,y,x
1782661084690236000,0.07623583984375,0.015107795596122742,0.06857257336378098,0.12329035997390747
1782661084700305700,0.0863056640625,0.020272815600037575,0.055063698440790176,0.16122810542583466
1782661084710376700,0.096376708984375,0.021823041141033173,0.054886866360902786,0.18634064495563507
1782661084720446700,0.10644677734375,0.021558918058872223,0.043873630464076996,0.19543804228305817
1782661084730516700,0.116516845703125,0.01775885373353958,0.014529327861964703,0.20748326182365417
1782661084740587800,0.126587890625,0.019037926569581032,0.0008754340233281255,0.21830515563488007
1782661084750657800,0.13665771484375,0.028738757595419884,-0.008967076428234577,0.21430589258670807
1782661084760728800,0.146728759765625,0.04470407962799072,-0.02468613162636757,0.200940802693367
1782661084770798600,0.156798583984375,0.06925495713949203,-0.045847076922655106,0.1871272474527359
1782661084780868900,0.166868896484375,0.09254051744937897,-0.058138903230428696,0.17475762963294983
1782661084790940000,0.17693994140625,0.11161700636148453,-0.05895676091313362,0.17843785881996155
1782661084801009700,0.187009765625,0.12380747497081757,-0.061660487204790115,0.17597514390945435
1782661084811080700,0.197080810546875,0.1277787834405899,-0.05888467654585838,0.16183695197105408
1782661084821150700,0.207150634765625,0.13561506569385529,-0.0635766088962555,0.12601187825202942
1782661084831221000,0.217220947265625,0.15467184782028198,-0.06168283149600029,0.08002333343029022
1782661084841291800,0.227291748046875,0.17121626436710358,-0.06540195643901825,0.05274136736989021
1782661084851361800,0.23736181640625,0.1706724464893341,-0.04638352990150452,0.04868270829319954
1782661084861432800,0.247432861328125,0.16161759197711945,-0.016284096986055374,0.054022468626499176
1782661084871502600,0.257502685546875,0.15297697484493256,0.02235996723175049,0.0659710094332695
1782661084881572600,0.267572509765625,0.14278754591941833,0.06511878967285156,0.0863286703824997
1782661084891643600,0.2776435546875,0.1347155123949051,0.0962575376033783,0.09724123775959015
1782661084901714000,0.2877138671875,0.12538783252239227,0.10811351239681244,0.0900675430893898
1782661084911783700,0.29778369140625,0.11923380196094513,0.10740590840578079,0.06769032776355743
1782661084921854700,0.307854736328125,0.10673639178276062,0.09133455902338028,0.041649192571640015
1782661084931924700,0.3179248046875,0.09699587523937225,0.06704333424568176,0.012584781274199486
1782661084941995800,0.327995849609375,0.08659187704324722,0.06279760599136353,-0.0001137973740696907
1782661084952065800,0.338065673828125,0.06960277259349823,0.08491037040948868,0.0007767636561766267
1782661084962135800,0.3481357421875,0.051063165068626404,0.11297525465488434,0.00047071988228708506
1782661084972206800,0.358206787109375,0.03119119070470333,0.12328115850687027,-0.006119804922491312
1782661084982276600,0.368276611328125,0.008144628256559372,0.11072210967540741,-0.025294393301010132
1782661084992347600,0.37834765625,-0.020421236753463745,0.10767758637666702,-0.0373033843934536
1782661085002418000,0.38841796875,-0.054743409156799316,0.10732067376375198,-0.05369570851325989
1782661085012487700,0.39848779296875,-0.07802210003137589,0.11529657244682312,-0.07044565677642822
1782661085022558700,0.408558837890625,-0.0918084979057312,0.12107472866773605,-0.09816664457321167
1782661085032628700,0.418628662109375,-0.09903392195701599,0.12693049013614655,-0.13959316909313202
1782661085042699800,0.42869970703125,-0.09950108826160431,0.14398573338985443,-0.18875661492347717
1782661085052769500,0.43876953125,-0.10585325956344604,0.1601090431213379,-0.22626803815364838
1782661085062839800,0.44883984375,-0.11738671362400055,0.1830398142337799,-0.24625436961650848
1782661085072910800,0.458910888671875,-0.12195830047130585,0.21868301928043365,-0.24962805211544037
1782661085082980900,0.46898095703125,-0.13535520434379578,0.2537781000137329,-0.23248909413814545
1782661085093051600,0.4790517578125,-0.16256019473075867,0.29036247730255127,-0.21743343770503998
1782661085103121700,0.48912158203125,-0.1949140578508377,0.31483784317970276,-0.20471782982349396
1782661085113192000,0.49919189453125,-0.22032779455184937,0.3264603912830353,-0.20230980217456818
1782661085123262700,0.5092626953125,-0.24196337163448334,0.30404436588287354,-0.20375847816467285
1782661085133332700,0.519332763671875,-0.24863804876804352,0.2678290903568268,-0.20021168887615204
1782661085143403800,0.52940380859375,-0.2383156269788742,0.23885934054851532,-0.17417116463184357
1782661085153473800,0.539473876953125,-0.21158868074417114,0.2230207324028015,-0.1370437741279602
1782661085163543800,0.549543701171875,-0.18959364295005798,0.216698557138443,-0.08776073157787323
1782661085173614800,0.55961474609375,-0.16862444579601288,0.22335220873355865,-0.03084179013967514
1782661085183684900,0.569684814453125,-0.15045715868473053,0.22605104744434357,0.01251393835991621
1782661085193756000,0.579755859375,-0.1345096081495285,0.22306911647319794,0.03344345465302467
1782661085203825700,0.58982568359375,-0.127680703997612,0.210373654961586,0.04799263924360275
1782661085213895700,0.599895751953125,-0.11746161431074142,0.19366765022277832,0.05989270657300949
1782661085223966700,0.609966796875,-0.11408694088459015,0.16467279195785522,0.06834965199232101
1782661085234036700,0.62003662109375,-0.11557670682668686,0.1265466958284378,0.06538289040327072
1782661085244107800,0.630107666015625,-0.10818197578191757,0.07653221487998962,0.05149896815419197
1782661085254177800,0.640177734375,-0.08714007586240768,0.03771744295954704,0.038524579256772995
1782661085264247600,0.65024755859375,-0.05015472695231438,0.017541496083140373,0.04993825405836105
1782661085274318600,0.660318603515625,-0.014527756720781326,0.02595202438533306,0.08276091516017914
1782661085284388900,0.670388916015625,0.011252013966441154,0.042109567672014236,0.11718268692493439
1782661085294460000,0.6804599609375,0.020211420953273773,0.05184502154588699,0.14158043265342712
1782661085304529700,0.69052978515625,0.022075528278946877,0.06508930772542953,0.15845061838626862
1782661085314599700,0.700599609375,0.0244998037815094,0.07882669568061829,0.1515442430973053
1782661085324670700,0.710670654296875,0.026253022253513336,0.07879023253917694,0.13193514943122864
1782661085334740700,0.72074072265625,0.02820618450641632,0.06637297570705414,0.11140510439872742
1782661085344811800,0.730811767578125,0.028863662853837013,0.044606711715459824,0.09151424467563629
1782661085354881800,0.7408818359375,0.03323870524764061,0.019238770008087158,0.06159256026148796
1782661085364951800,0.750951904296875,0.033903274685144424,-0.00847252644598484,0.03910958394408226
1782661085375022600,0.761022705078125,0.027834463864564896,-0.02965211309492588,0.025304822251200676
1782661085385092600,0.771092529296875,0.030605362728238106,-0.055655255913734436,0.014784486964344978
1782661085395163600,0.78116357421875,0.03646751493215561,-0.07748119533061981,-0.00029140154947526753
1782661085405234000,0.79123388671875,0.050454966723918915,-0.08709654211997986,-0.002753760199993849
1782661085415303700,0.8013037109375,0.07585779577493668,-0.09649643301963806,-0.0022285848390311003
1782661085425374700,0.811374755859375,0.10151150077581406,-0.11069659888744354,0.0070100086741149426
1782661085435444700,0.82144482421875,0.11863403022289276,-0.12677863240242004,0.025163711979985237
1782661085445515800,0.831515869140625,0.1283741146326065,-0.1294264942407608,0.05454007536172867
1782661085455585800,0.841585693359375,0.13252703845500946,-0.13167792558670044,0.0904003381729126
1782661085465655600,0.851655517578125,0.13173982501029968,-0.13649894297122955,0.11355798691511154
1782661085475726600,0.8617265625,0.12766198813915253,-0.13712185621261597,0.12966105341911316
1782661085485796600,0.871796630859375,0.12157675623893738,-0.14173895120620728,0.14116059243679047
1782661085495867600,0.88186767578125,0.10601590573787689,-0.14642317593097687,0.14538036286830902
1782661085505937700,0.891937744140625,0.0949922427535057,-0.1409822404384613,0.1455961912870407
1782661085516007700,0.902007568359375,0.08029025793075562,-0.13429132103919983,0.14410056173801422
1782661085526078700,0.91207861328125,0.07079294323921204,-0.129471093416214,0.1315990388393402
1782661085536148500,0.9221484375,0.0695231482386589,-0.12386567890644073,0.11782784759998322
1782661085546219500,0.932219482421875,0.07953578233718872,-0.11813925206661224,0.10320453345775604
1782661085556289800,0.942289794921875,0.09219352155923843,-0.11699435859918594,0.09776342660188675
1782661085566359600,0.952359619140625,0.11009496450424194,-0.11081450432538986,0.08670090138912201
1782661085576430600,0.9624306640625,0.1255040168762207,-0.09499532729387283,0.08132077753543854
1782661085586500600,0.97250048828125,0.133884459733963,-0.07477520406246185,0.07264748215675354
1782661085596571600,0.982571533203125,0.14224572479724884,-0.05613546818494797,0.0576472282409668
1782661085606641400,0.992641357421875,0.15510793030261993,-0.04450032487511635,0.048397332429885864
1782661085616711700,1.002711669921875,0.16587695479393005,-0.03415394574403763,0.036003779619932175
1782661085626782700,1.01278271484375,0.17010323703289032,-0.03055134229362011,0.01852080412209034
1782661085636852700,1.022852783203125,0.17291153967380524,-0.030300205573439598,0.007993594743311405
1782661085646923500,1.032923583984375,0.16967004537582397,-0.04167842119932175,0.004107119981199503
1782661085656993500,1.04299365234375,0.15671376883983612,-0.052438922226428986,0.009147152304649353
1782661085667063800,1.053063720703125,0.14165055751800537,-0.04861157014966011,0.028055453673005104
1782661085677134600,1.063134521484375,0.13335055112838745,-0.045452263206243515,0.04239471256732941
1782661085687204600,1.07320458984375,0.12408972531557083,-0.03375118970870972,0.05158495157957077
1782661085697275600,1.083275634765625,0.11888004839420319,-0.027000876143574715,0.058660171926021576
1782661085707345700,1.093345703125,0.11424928158521652,-0.03514909744262695,0.06435903906822205
1782661085717415700,1.103415771484375,0.10660387575626373,-0.043596912175416946,0.06518568843603134
1782661085727486700,1.11348681640625,0.09448453038930893,-0.061675429344177246,0.060717783868312836
1782661085737556700,1.123556640625,0.0802438035607338,-0.06849897652864456,0.05835955590009689
1782661085747627800,1.133627685546875,0.059038177132606506,-0.06770002096891403,0.06075509265065193
1782661085757697500,1.143697509765625,0.037621304392814636,-0.05630115792155266,0.06693842262029648
1782661085767767600,1.153767578125,0.02383027970790863,-0.043493930250406265,0.0825403705239296
1782661085777838600,1.163838623046875,0.013264189474284649,-0.04263213276863098,0.09447958320379257
1782661085787908600,1.17390869140625,0.009484364651143551,-0.0194607675075531,0.10966892540454865
1782661085797979600,1.183979736328125,0.007367151789367199,0.0006692674942314625,0.12231548130512238
1782661085808049700,1.194049560546875,0.006474137306213379,0.01009022444486618,0.12299885600805283
1782661085818119400,1.204119384765625,0.010078991763293743,0.012609042227268219,0.11520884186029434
1782661085828190500,1.2141904296875,0.015979597344994545,0.017473718151450157,0.10771404951810837
1782661085838260700,1.2242607421875,0.016397180035710335,0.019401846453547478,0.09627657383680344
1782661085848331800,1.234331787109375,0.01488153450191021,0.012159553356468678,0.07429291307926178
1782661085858401500,1.244401611328125,0.009545358829200268,-0.0035717389546334743,0.04999715834856033
1782661085868471600,1.254471435546875,0.005201093852519989,-0.009733486920595169,0.028544321656227112
1782661085878542600,1.26454248046875,-0.009446026757359505,-0.014483235776424408,0.010068108327686787
1782661085888612900,1.27461279296875,-0.020093511790037155,-0.030059151351451874,-0.009659694507718086
1782661085898683600,1.28468359375,-0.02848859317600727,-0.043841276317834854,-0.019765857607126236
1782661085908753700,1.294753662109375,-0.03444282338023186,-0.05326855555176735,-0.026435138657689095
1782661085918823700,1.30482373046875,-0.03270404785871506,-0.06632044166326523,-0.02310512214899063
1782661085928894500,1.31489453125,-0.03159255534410477,-0.07907320559024811,-0.018158532679080963
1782661085938964500,1.324964599609375,-0.026781020686030388,-0.09594965726137161,-0.011267336085438728
1782661085949034800,1.33503466796875,-0.023452380672097206,-0.11058279871940613,-0.009738530963659286
1782661085959105800,1.345105712890625,-0.019641397520899773,-0.11577089875936508,0.0019008147064596415
1782661085969175600,1.355175537109375,-0.020981233566999435,-0.10956866294145584,0.024287346750497818
1782661085979246600,1.36524658203125,-0.021265925839543343,-0.10180661827325821,0.0533115416765213
1782661085989316600,1.375316650390625,-0.02635396644473076,-0.09469632804393768,0.0794447585940361
1782661085999386600,1.38538671875,-0.028140680864453316,-0.08060154318809509,0.09722667932510376
1782661086009457700,1.395457763671875,-0.03297409787774086,-0.07564450800418854,0.11300016194581985
1782661086019527700,1.405527587890625,-0.03406199812889099,-0.07066093385219574,0.11129653453826904
1782661086029598700,1.4155986328125,-0.03491634130477905,-0.07410093396902084,0.09962443262338638
1782661086039668500,1.42566845703125,-0.034393828362226486,-0.08626838773488998,0.07658196240663528
1782661086049738800,1.43573876953125,-0.03255352005362511,-0.10694538801908493,0.04489175230264664
1782661086059809800,1.445809814453125,-0.03168080374598503,-0.12112805247306824,0.010116728954017162
1782661086069879600,1.455879638671875,-0.02855612337589264,-0.12717510759830475,-0.01475941576063633
1782661086079950600,1.46595068359375,-0.03633548319339752,-0.11794591695070267,-0.027767891064286232
1782661086090020600,1.4760205078125,-0.029688769951462746,-0.09891686588525772,-0.03679259121417999
1782661086100090600,1.486090576171875,-0.024707859382033348,-0.08182550221681595,-0.04502362385392189
1782661086110161700,1.49616162109375,-0.010927656665444374,-0.061157211661338806,-0.04117347300052643
1782661086120231700,1.506231689453125,0.004248366691172123,-0.04384852945804596,-0.04715067148208618
1782661086130302700,1.516302734375,0.020726623013615608,-0.030314818024635315,-0.044849637895822525
1782661086140372500,1.52637255859375,0.037611331790685654,-0.012973376549780369,-0.040568605065345764
1782661086150442500,1.5364423828125,0.05174586549401283,-0.0036420663818717003,-0.03929385915398598
1782661086160513500,1.546513427734375,0.06647101789712906,-0.004224499687552452,-0.04564230144023895
1782661086170583800,1.556583740234375,0.07790405303239822,-0.017344800755381584,-0.052860524505376816
1782661086180654600,1.566654541015625,0.08521043509244919,-0.04120086506009102,-0.05506988242268562
1782661086190724600,1.576724609375,0.08923240005970001,-0.06116078794002533,-0.0396270714700222
1782661086200794600,1.586794677734375,0.08447865396738052,-0.07569178938865662,-0.014402409084141254
1782661086210865700,1.59686572265625,0.07323937118053436,-0.08453727513551712,0.01739726960659027
1782661086220935700,1.606935791015625,0.058636460453271866,-0.0961795523762703,0.04932031407952309
1782661086231006700,1.6170068359375,0.042575687170028687,-0.11173311620950699,0.07464735209941864
1782661086241076700,1.62707666015625,0.02724200300872326,-0.13216301798820496,0.09972900152206421
1782661086251146500,1.637146484375,0.01350962370634079,-0.14641356468200684,0.1277361512184143
1782661086261217500,1.647217529296875,-0.004247535485774279,-0.1580803394317627,0.15509001910686493
1782661086271287600,1.65728759765625,-0.021705355495214462,-0.15910859405994415,0.1850692182779312
1782661086281358600,1.667358642578125,-0.03936024755239487,-0.1576491743326187,0.2141573280096054
1782661086291428600,1.6774287109375,-0.057918548583984375,-0.15243925154209137,0.23291154205799103
1782661086301498600,1.68749853515625,-0.06792830675840378,-0.14030109345912933,0.24504703283309937
1782661086311569700,1.697569580078125,-0.07974426448345184,-0.12590022385120392,0.24775317311286926
1782661086321639400,1.707639404296875,-0.0926845595240593,-0.11918558925390244,0.24791909754276276
1782661086331709700,1.717709716796875,-0.10520685464143753,-0.11187106370925903,0.23633450269699097
1782661086341780700,1.72778076171875,-0.11559265106916428,-0.09867323935031891,0.21467848122119904
1782661086351850800,1.737850830078125,-0.12576402723789215,-0.08605720847845078,0.19471442699432373
1782661086361921500,1.747921630859375,-0.13917197287082672,-0.07009368389844894,0.16630037128925323
1782661086371991600,1.757991455078125,-0.15590371191501617,-0.05322827026247978,0.13809363543987274
1782661086382061800,1.768061767578125,-0.1695132702589035,-0.04625105485320091,0.09582874178886414
1782661086392132600,1.778132568359375,-0.18020641803741455,-0.03986413776874542,0.05543993040919304
1782661086402202600,1.78820263671875,-0.18440569937229156,-0.03740284591913223,0.016067489981651306
1782661086412273700,1.798273681640625,-0.1922970712184906,-0.037002693861722946,-0.018795810639858246
1782661086422343700,1.80834375,-0.20263199508190155,-0.036029309034347534,-0.04121669754385948
1782661086432413700,1.81841357421875,-0.20604746043682098,-0.033180348575115204,-0.049687787890434265
1782661086442484700,1.828484619140625,-0.2100597769021988,-0.021439004689455032,-0.05286387726664543
1782661086452554800,1.8385546875,-0.2108565866947174,-0.017064163461327553,-0.046578191220760345
1782661086462625800,1.848625732421875,-0.2082778364419937,-0.013423889875411987,-0.044223424047231674
1782661086472695800,1.85869580078125,-0.20954152941703796,-0.005727655254304409,-0.04586344212293625
1782661086482765800,1.868765869140625,-0.2082863748073578,-0.0017662029713392258,-0.05070213973522186
1782661086492836900,1.8788369140625,-0.2083410769701004,0.003587104380130768,-0.06004363298416138
1782661086502907000,1.888906982421875,-0.20736822485923767,0.00043045973870903254,-0.07561087608337402
1782661086512978000,1.89897802734375,-0.2024640142917633,0.0006259684450924397,-0.09986130148172379
1782661086523048000,1.9090478515625,-0.195313960313797,-0.001431589713320136,-0.11967682093381882
1782661086533117700,1.91911767578125,-0.18188980221748352,-0.001625141128897667,-0.14763116836547852
1782661086543188700,1.929188720703125,-0.1619642972946167,-0.00866014789789915,-0.1695239394903183
1782661086553259000,1.939259033203125,-0.14526095986366272,-0.010789611376821995,-0.1926359236240387
1782661086563328800,1.949328857421875,-0.12640896439552307,-0.02227529138326645,-0.21120907366275787
1782661086573399800,1.95939990234375,-0.10854853689670563,-0.019361501559615135,-0.21496491134166718
1782661086583469800,1.9694697265625,-0.09777871519327164,-0.006485383957624435,-0.201527401804924
1782661086593540900,1.979540771484375,-0.08941085636615753,0.0042381277307868,-0.17869450151920319
1782661086603611000,1.98961083984375,-0.08458094298839569,0.020903658121824265,-0.1505613923072815
1782661086613681000,1.999680908203125,-0.08569739758968353,0.03875485435128212,-0.12607814371585846
1782661086623752000,2.009751953125,-0.08254901319742203,0.05541665479540825,-0.1052522286772728
1782661086633821700,2.01982177734375,-0.07914458215236664,0.06535335630178452,-0.08917959779500961
1782661086643892700,2.029892822265625,-0.07471521198749542,0.059860050678253174,-0.08174298703670502
1782661086653962800,2.039962646484375,-0.06730740517377853,0.04678649082779884,-0.07615707069635391
1782661086664033000,2.050032958984375,-0.06089424341917038,0.042216505855321884,-0.07827934622764587
1782661086674103800,2.060103759765625,-0.05465126782655716,0.03667416423559189,-0.08098010718822479
1782661086684173800,2.070173828125,-0.04802266135811806,0.03933493047952652,-0.0869397297501564
1782661086694244900,2.080244873046875,-0.03781961649656296,0.032979853451251984,-0.08421848714351654
1782661086704315000,2.09031494140625,-0.03223869577050209,0.014430670998990536,-0.0831335186958313
1782661086714385000,2.100385009765625,-0.017358815297484398,-0.0010066088289022446,-0.06450523436069489
1782661086724456000,2.1104560546875,-0.005118127446621656,-0.013150356709957123,-0.041248124092817307
1782661086734526000,2.12052587890625,-0.003235394135117531,-0.021456729620695114,-0.009335744194686413
1782661086744596700,2.1305966796875,-0.004995476920157671,-0.01878185197710991,0.023189708590507507
1782661086754666800,2.140666748046875,-0.008243289776146412,-0.017816239967942238,0.05069936066865921
1782661086764736800,2.15073681640625,-0.01458001509308815,-0.017361905425786972,0.07636477798223495
1782661086774807800,2.160807861328125,-0.019268887117505074,-0.02381199598312378,0.0920434221625328
1782661086784877800,2.1708779296875,-0.023260964080691338,-0.035708069801330566,0.09243623167276382
1782661086794947800,2.18094775390625,-0.02365129627287388,-0.05111333727836609,0.09311746805906296
1782661086805019000,2.191018798828125,-0.025726431980729103,-0.05536613613367081,0.08952247351408005
1782661086815088600,2.201088623046875,-0.026089895516633987,-0.05511023849248886,0.08854986727237701
1782661086825159700,2.21115966796875,-0.02718205749988556,-0.06252474337816238,0.08488509804010391
1782661086835230000,2.22122998046875,-0.02824299782514572,-0.06070234626531601,0.08304434269666672
1782661086845299700,2.2312998046875,-0.025545747950673103,-0.054895851761102676,0.08187974244356155
1782661086855370800,2.241370849609375,-0.02847123146057129,-0.04948484152555466,0.0805838480591774
1782661086865440800,2.251440673828125,-0.02775723673403263,-0.04687441140413284,0.08017052710056305
1782661086875511800,2.26151171875,-0.02735680714249611,-0.04605220630764961,0.07623632252216339
1782661086885581800,2.271581787109375,-0.0289887934923172,-0.035538047552108765,0.06954193115234375
1782661086895651800,2.28165185546875,-0.030468951910734177,-0.028299741446971893,0.06709929555654526
1782661086905723000,2.291722900390625,-0.03320801258087158,-0.028053399175405502,0.05866425856947899
1782661086915793000,2.30179296875,-0.03271664306521416,-0.03421483933925629,0.04555228725075722
1782661086925863700,2.31186376953125,-0.02492423541843891,-0.0449412539601326,0.02197771891951561
1782661086935934000,2.321933837890625,-0.0191048476845026,-0.05557744577527046,0.007842959836125374
1782661086946004000,2.33200390625,-0.00994543731212616,-0.06637922674417496,-0.0008029919117689133
1782661086956075000,2.342074951171875,-0.00684157432988286,-0.06767266988754272,0.006763910409063101
1782661086966144800,2.352144775390625,-0.005483095999807119,-0.05426524579524994,0.03133423626422882
1782661086976214800,2.36221484375,-0.0027780081145465374,-0.04047279432415962,0.06200529262423515
1782661086986285800,2.372285888671875,0.0016521604266017675,-0.029401499778032303,0.08933545649051666
1782661086996355800,2.38235595703125,0.008022905327379704,-0.02001655288040638,0.09995180368423462
1782661087006427000,2.392427001953125,0.012947356328368187,-0.022107666358351707,0.09278097748756409
1782661087016497000,2.402496826171875,0.014569591730833054,-0.01933969371020794,0.07338664680719376
1782661087026566700,2.412566650390625,0.01786685176193714,-0.02011813595890999,0.051702119410037994
1782661087036637700,2.4226376953125,0.016615286469459534,-0.023190386593341827,0.02916114218533039
1782661087046708000,2.4327080078125,0.02171177789568901,-0.024276690557599068,0.009623659774661064
1782661087056779000,2.442779052734375,0.023677242919802666,-0.014432908967137337,-0.0008370332652702928
1782661087066848800,2.452848876953125,0.022097190842032433,0.000681595760397613,0.000060718331951648
1782661087076918800,2.462918701171875,0.02410394512116909,0.005175953730940819,0.0019212320912629366
1782661087086989800,2.47298974609375,0.031526438891887665,0.01120135560631752,0.00036035344237461686
1782661087097059800,2.483059814453125,0.038928352296352386,0.013772276230156422,0.0019610063172876835
1782661087107131000,2.493130859375,0.04016405716538429,0.01424205768853426,-0.0019240129040554166
1782661087117201000,2.503200927734375,0.04019905626773834,0.016771171241998672,-0.0016953246667981148
1782661087127271000,2.51327099609375,0.03711218386888504,0.02108469419181347,0.0030152746476233006
1782661087137341700,2.523341796875,0.034625597298145294,0.02109137922525406,0.009673492051661015
1782661087147411700,2.53341162109375,0.02749338559806347,0.013806303963065147,0.010479364544153214
1782661087157482000,2.54348193359375,0.02147282473742962,0.00933024100959301,0.006032839883118868
1782661087167553000,2.553552978515625,0.013448718935251236,0.013065057806670666,0.00996979046612978
1782661087177622800,2.563622802734375,-0.001984565518796444,0.020206058397889137,0.01538586150854826
1782661087187693800,2.57369384765625,-0.01084170676767826,0.018731199204921722,0.020624034106731415
1782661087197763800,2.583763916015625,-0.015623336657881737,0.010105283930897713,0.025626374408602715
1782661087207833900,2.593833740234375,-0.010053602047264576,0.004039402585476637,0.02673637866973877
1782661087217905000,2.60390478515625,-0.00731396721675992,0.001497557619586587,0.029622025787830353
1782661087227975000,2.613974853515625,-0.008369110524654388,0.0036262222565710545,0.037872765213251114
1782661087238046000,2.6240458984375,-0.01014277059584856,0.006668914575129747,0.049374472349882126
1782661087248115700,2.63411572265625,-0.010512150824069977,0.006214046385139227,0.05317293852567673
1782661087258186000,2.64418603515625,-0.012547871097922325,0.004126394633203745,0.0523979589343071
1782661087268257000,2.654257080078125,-0.018765021115541458,0.001836342504248023,0.050995271652936935
1782661087278326800,2.664326904296875,-0.02266959846019745,0.0028912778943777084,0.04633663222193718
1782661087288397800,2.674397705078125,-0.03193819895386696,0.006821304559707642,0.03611595556139946
1782661087298467800,2.6844677734375,-0.03259716182947159,0.010869991034269333,0.022673554718494415
1782661087308537600,2.69453759765625,-0.0324256531894207,0.010094478726387024,0.010646188631653786
1782661087318608600,2.704608642578125,-0.033841490745544434,0.00529215345159173,-0.009585408493876457
1782661087328679000,2.714678955078125,-0.03162973374128342,0.002961887512356043,-0.013083470053970814
1782661087338749000,2.7247490234375,-0.03766903281211853,0.0002285144291818142,-0.010069996118545532
1782661087348819700,2.73481982421875,-0.03666102513670921,0.0032517348881810904,-0.002465606201440096
1782661087358889700,2.7448896484375,-0.03527337312698364,0.013637015596032143,0.015242005698382854
1782661087368960800,2.754960693359375,-0.03387494757771492,0.03763103112578392,0.03251979500055313
1782661087379031000,2.765031005859375,-0.038336481899023056,0.055457137525081635,0.04168558120727539
1782661087389100800,2.775100830078125,-0.044703833758831024,0.04016100615262985,0.03265400230884552
1782661087399171800,2.785171875,-0.05270269140601158,0.028469257056713104,0.01884504221379757
1782661087409241900,2.795241943359375,-0.05095885321497917,0.015115901827812195,0.00020184973254799843
1782661087419313000,2.80531298828125,-0.05130591616034508,0.0015245189424604177,-0.025631815195083618
1782661087429383000,2.8153828125,-0.04698280617594719,-0.003744811750948429,-0.03966054692864418
1782661087439453000,2.825452880859375,-0.048027146607637405,-0.013188591226935387,-0.04276203364133835
1782661087449524000,2.83552392578125,-0.044838543981313705,-0.018660321831703186,-0.042791593819856644
1782661087459594000,2.845593994140625,-0.03941059485077858,-0.01844608411192894,-0.03579800948500633
1782661087469665000,2.8556650390625,-0.03629842400550842,-0.022141752764582634,-0.026709971949458122
1782661087479735000,2.865735107421875,-0.032947201281785965,-0.024469736963510513,-0.016629470512270927
1782661087489805000,2.87580517578125,-0.036859914660453796,-0.016654690727591515,-0.003312865272164345
1782661087499876000,2.8858759765625,-0.03877553343772888,-0.008332345634698868,0.017280781641602516
1782661087509946000,2.895946044921875,-0.037709735333919525,-0.007824480533599854,0.030682606622576714
1782661087520016100,2.90601611328125,-0.0391656868159771,-0.003928010351955891,0.03985932841897011
1782661087530087000,2.9160869140625,-0.037830110639333725,-0.004386340267956257,0.042495325207710266
1782661087540157200,2.9261572265625,-0.036873288452625275,-0.0014064693823456764,0.04772476851940155
1782661087550228200,2.936228271484375,-0.035678062587976456,0.0016417847946286201,0.04406185820698738
1782661087560298200,2.94629833984375,-0.029846591874957085,0.005493307951837778,0.04031458497047424
1782661087570368000,2.956367919921875,-0.025285128504037857,0.0045172590762376785,0.03842906653881073
1782661087580439000,2.96643896484375,-0.02037692256271839,-0.004138546530157328,0.02314145863056183
1782661087590509000,2.976509033203125,-0.014425024390220642,-0.005572925321757793,0.01315993070602417
1782661087600580000,2.986580078125,-0.011074929498136044,-0.004047319758683443,0.004166309721767902
1782661087610650000,2.996650146484375,-0.012224881909787655,0.004821006674319506,-0.004500681534409523
1782661087620720000,3.00672021484375,-0.013947468250989914,0.00537367258220911,-0.016931189224123955
1782661087630791200,3.016791259765625,-0.014494214206933975,0.003277498297393322,-0.03711821511387825
1782661087640861000,3.02686083984375,-0.018370289355516434,0.00925398524850607,-0.048810482025146484
1782661087650932000,3.036931884765625,-0.017911693081259727,0.020522885024547577,-0.05076231062412262
1782661087661002200,3.047002197265625,-0.016167160123586655,0.02926270104944706,-0.056388113647699356
1782661087671072000,3.057072021484375,-0.015226530842483044,0.033994339406490326,-0.06002093106508255
1782661087681143000,3.06714306640625,-0.007612073328346014,0.027622519060969353,-0.06685001403093338
1782661087691213000,3.077213134765625,-0.005442396271973848,0.026921309530735016,-0.07445839792490005
1782661087701284000,3.0872841796875,0.00003434240352362394,0.03106631152331829,-0.08588463068008423
1782661087711354000,3.09735400390625,0.003235728247091174,0.025511756539344788,-0.09930296987295151
1782661087721424100,3.107424072265625,0.00573159521445632,0.021716315299272537,-0.10957200825214386
1782661087731495200,3.1174951171875,0.006433338392525911,0.02082948200404644,-0.11337713152170181
1782661087741565000,3.12756494140625,0.004090075381100178,0.024330412968993187,-0.10977393388748169
1782661087751636000,3.137635986328125,0.00035765505162999034,0.032979294657707214,-0.09915830940008163
1782661087761706200,3.147706298828125,-0.007283387240022421,0.03707375004887581,-0.08372093737125397
1782661087771776300,3.1577763671875,-0.012165226973593235,0.03842983394861221,-0.06923520565032959
1782661087781847000,3.167846923828125,-0.014921553432941437,0.0350339449942112,-0.05440656468272209
1782661087791917000,3.1779169921875,-0.013180112466216087,0.03419584780931473,-0.03921482712030411
1782661087801987000,3.187987060546875,-0.010119931772351265,0.025777626782655716,-0.04517816752195358
1782661087812057900,3.198057861328125,-0.0013805021299049258,0.001708509516902268,-0.06434626877307892
1782661087822128000,3.208128173828125,0.010769955813884735,-0.021130818873643875,-0.10428761690855026
1782661087832199200,3.21819921875,0.020028701052069664,-0.030892902985215187,-0.14535516500473022
1782661087842269200,3.228269287109375,0.03241145238280296,-0.028973620384931564,-0.18038907647132874
1782661087852339000,3.2383388671875,0.047035399824380875,-0.012508627958595753,-0.2016458958387375
1782661087862410000,3.248409912109375,0.05304056406021118,-0.001238929107785225,-0.21017199754714966
1782661087872480300,3.258480224609375,0.06301809847354889,0.00441496167331934,-0.20625129342079163
1782661087882551300,3.26855126953125,0.06673981994390488,0.014111923985183239,-0.19826778769493103
1782661087892621000,3.27862109375,0.07724865525960922,0.0287646371871233,-0.17936760187149048
1782661087902691000,3.288691162109375,0.08496525883674622,0.050720348954200745,-0.14421036839485168
1782661087912762000,3.29876220703125,0.08794480562210083,0.07373778522014618,-0.10283122956752777
1782661087922832100,3.30883203125,0.08965423703193665,0.0882619246840477,-0.06314980238676071
1782661087932903200,3.318903076171875,0.09165161103010178,0.08649305254220963,-0.04593459516763687
1782661087942973200,3.32897314453125,0.09945684671401978,0.08669350296258926,-0.032815974205732346
1782661087953043000,3.33904296875,0.11162003874778748,0.0743500143289566,-0.025819582864642143
1782661087963114000,3.349114013671875,0.12330412119626999,0.055099088698625565,-0.025088811293244362
1782661087973184000,3.35918408203125,0.1344798058271408,0.028969217091798782,-0.02314763329923153
1782661087983255000,3.369255126953125,0.14457447826862335,-0.005197419319301844,-0.025969095528125763
1782661087993325000,3.379324951171875,0.14746560156345367,-0.025030246004462242,-0.018706388771533966
1782661088003395000,3.38939501953125,0.15154103934764862,-0.03518863767385483,-0.0028957820031791925
1782661088013466000,3.399466064453125,0.15320658683776855,-0.041565313935279846,0.02302583120763302
1782661088023536000,3.4095361328125,0.15369823575019836,-0.047144751995801926,0.04876698926091194
1782661088033607000,3.41960693359375,0.15312831103801727,-0.06721806526184082,0.07380815595388412
1782661088043677200,3.42967724609375,0.1550171971321106,-0.08102643489837646,0.09741294384002686
1782661088053747200,3.439747314453125,0.15672853589057922,-0.0918164998292923,0.12266556918621063
1782661088063818000,3.44981787109375,0.15487298369407654,-0.10266651213169098,0.13812683522701263
1782661088073888000,3.459887939453125,0.15018634498119354,-0.11793547868728638,0.14305181801319122
1782661088083958300,3.469958251953125,0.15152809023857117,-0.1295594722032547,0.13498473167419434
1782661088094029300,3.480029296875,0.14667102694511414,-0.13014590740203857,0.1299620121717453
1782661088104099000,3.49009912109375,0.14001156389713287,-0.13074731826782227,0.12736664712429047
1782661088114170000,3.500170166015625,0.13797371089458466,-0.13139420747756958,0.11762906610965729
1782661088124240100,3.510240234375,0.1318747103214264,-0.13340212404727936,0.10323214530944824
1782661088134310000,3.520309814453125,0.12778648734092712,-0.12586458027362823,0.09036428481340408
1782661088144381000,3.530380859375,0.11764991283416748,-0.11357109248638153,0.0795990452170372
1782661088154451200,3.540451171875,0.11371243000030518,-0.10377146303653717,0.07241516560316086
1782661088164522200,3.550522216796875,0.10405394434928894,-0.0866854190826416,0.06782015413045883
1782661088174592000,3.560592041015625,0.10022005438804626,-0.07026036828756332,0.07436700165271759
1782661088184662000,3.570662109375,0.09772802889347076,-0.07248508185148239,0.06980055570602417
1782661088194733000,3.580733154296875,0.09592613577842712,-0.06728605926036835,0.058704230934381485
1782661088204803000,3.590802978515625,0.09295261651277542,-0.06523368507623672,0.053716301918029785
1782661088214874000,3.6008740234375,0.09149746596813202,-0.05665697157382965,0.05163663998246193
1782661088224944000,3.610944091796875,0.08878275007009506,-0.05891196057200432,0.04483644664287567
1782661088235014100,3.62101416015625,0.08658750355243683,-0.061178844422101974,0.03688131645321846
1782661088245085000,3.6310849609375,0.08337496221065521,-0.060451675206422806,0.03833652660250664
1782661088255155200,3.6411552734375,0.08472438156604767,-0.054802581667900085,0.04316350817680359
1782661088265225200,3.65122509765625,0.0781213641166687,-0.049407195299863815,0.044815342873334885
1782661088275296000,3.6612958984375,0.07484088093042374,-0.04385077580809593,0.04194844886660576
1782661088285366000,3.671365966796875,0.0690324530005455,-0.04692862182855606,0.038185056298971176
1782661088295437000,3.68143701171875,0.06407152116298676,-0.04451926052570343,0.030967358499765396
1782661088305507000,3.691507080078125,0.054236795753240585,-0.04162919893860817,0.025459175929427147
1782661088315577000,3.7015771484375,0.04778049513697624,-0.04182440787553787,0.02384636551141739
1782661088325648100,3.711648193359375,0.043558694422245026,-0.041826359927654266,0.02190617471933365
1782661088335718100,3.72171826171875,0.03805766999721527,-0.04213102534413338,0.01351748313754797
1782661088345788000,3.731787841796875,0.03085014969110489,-0.03431760519742966,0.018229398876428604
1782661088355859000,3.74185888671875,0.023307278752326965,-0.03030342608690262,0.024332299828529358
1782661088365929200,3.75192919921875,0.018421484157443047,-0.03867439180612564,0.0213648471981287
1782661088376000300,3.762000244140625,0.018181798979640007,-0.04588437080383301,0.010929782874882221
1782661088386070000,3.772070068359375,0.022924790158867836,-0.04733084887266159,0.00946042314171791
1782661088396141000,3.78214111328125,0.026573054492473602,-0.046964131295681,0.019493883475661278
1782661088406211000,3.792211181640625,0.030109351500868797,-0.04984454810619354,0.024545395746827126
1782661088416281000,3.802281005859375,0.028598006814718246,-0.04812600836157799,0.031893856823444366
1782661088426352000,3.81235205078125,0.022857533767819405,-0.04412921890616417,0.054178107529878616
1782661088436422100,3.822422119140625,0.010971578769385815,-0.02608203887939453,0.08694031834602356
1782661088446492200,3.8324921875,0.0014829866122454405,-0.024109801277518272,0.11944565176963806
1782661088456563000,3.84256298828125,-0.0010574026964604855,-0.015407921746373177,0.1360778957605362
1782661088466633200,3.85263330078125,-8.28644260764122e-7,-0.009163489565253258,0.1412559598684311
1782661088476704000,3.8627041015625,-5.623442120850086e-7,-0.012169666588306427,0.13796669244766235
1782661088486774300,3.872774169921875,-0.001911848783493042,-0.02073332667350769,0.12370391190052032
1782661088496844300,3.88284423828125,-0.003940111957490444,-0.02500050887465477,0.10981526225805283
1782661088506915300,3.892915283203125,-0.0023018456995487213,-0.027683556079864502,0.09299694746732712
1782661088516985000,3.902985107421875,-0.0025588409043848515,-0.03187350928783417,0.07212868332862854
1782661088527056100,3.91305615234375,-0.009255093522369862,-0.028232967481017113,0.051560815423727036
1782661088537126400,3.92312646484375,-0.008387967944145203,-0.028717927634716034,0.021816769614815712
1782661088547196200,3.933196044921875,-0.013334842398762703,-0.021249299868941307,-0.006005743518471718
1782661088557267200,3.94326708984375,-0.012156393378973007,-0.019442878663539886,-0.021214788779616356
1782661088567337200,3.953337158203125,-0.008558039553463459,-0.019919229671359062,-0.03210517764091492
1782661088577407200,3.9634072265625,-0.009736488573253155,-0.014083178713917732,-0.03326445072889328
1782661088587478300,3.973478271484375,-0.009970313869416714,-0.016380155459046364,-0.02855784446001053
1782661088597548300,3.98354833984375,-0.010524784214794636,-0.012601396068930626,-0.024612372741103172
1782661088607619300,3.993619384765625,-0.010119451209902763,-0.009095076471567154,-0.012222016230225563
1782661088617689000,4.003689208984375,-0.0038317274302244186,-0.0064625428058207035,-0.005609653424471617
1782661088627759000,4.013759033203125,0.003903780598193407,-0.0075245145708322525,-0.009734048508107662
1782661088637830100,4.023830078125,0.017411867156624794,-0.009368487633764744,-0.022551309317350388
1782661088647900200,4.033900146484375,0.03308044373989105,-0.0018309177830815315,-0.03027649223804474
1782661088657971200,4.04397119140625,0.05601105839014053,0.0030344114638864994,-0.03954855725169182
1782661088668041200,4.054041259765625,0.07708431035280228,0.006585944443941116,-0.04866654798388481
1782661088678111200,4.064111328125,0.09046109765768051,0.0078104655258357525,-0.05495986342430115
1782661088688182000,4.07418212890625,0.10717660188674927,0.005094719119369984,-0.04811456799507141
1782661088698252300,4.084252197265625,0.12379073351621628,0.00016094651073217392,-0.03583339974284172
1782661088708322300,4.094322265625,0.13966499269008636,-0.010942777618765831,-0.00606558658182621
1782661088718393300,4.104393310546875,0.1472264975309372,-0.023060960695147514,0.01276535913348198
1782661088728463000,4.114463134765625,0.15418697893619537,-0.03467826172709465,0.039648041129112244
1782661088738534100,4.1245341796875,0.15228362381458282,-0.041077837347984314,0.06869939714670181
1782661088748604400,4.1346044921875,0.14186199009418488,-0.0465078130364418,0.10264162719249725
1782661088758674200,4.144674072265625,0.13127486407756805,-0.05581023544073105,0.13545683026313782
1782661088768745200,4.1547451171875,0.11252549290657043,-0.07537508010864258,0.1601853370666504
1782661088778815200,4.164815185546875,0.08709603548049927,-0.09767133742570877,0.17495097219944
1782661088788886300,4.17488623046875,0.06146599352359772,-0.11859916895627975,0.1829512119293213
1782661088798956000,4.1849560546875,0.03152726963162422,-0.12508158385753632,0.18054504692554474
1782661088809026300,4.1950263671875,0.002740349154919386,-0.1194399744272232,0.17720775306224823
1782661088819097300,4.205097412109375,-0.02864100970327854,-0.10600459575653076,0.16470633447170258
1782661088829167000,4.2151669921875,-0.06087237596511841,-0.09572024643421173,0.1417584866285324
1782661088839237000,4.225237060546875,-0.08548717200756073,-0.07480084896087646,0.11199687421321869
1782661088849308200,4.23530810546875,-0.10735571384429932,-0.04847760498523712,0.07445087283849716
1782661088859378200,4.245378173828125,-0.1182352602481842,-0.027244223281741142,0.03276202082633972
1782661088869449200,4.25544921875,-0.12167810648679733,-0.002323070541024208,-0.009366482496261597
1782661088879519200,4.265519287109375,-0.12158356606960297,0.007942883297801018,-0.055326517671346664
1782661088889589200,4.27558935546875,-0.12103111296892166,0.013375109061598778,-0.09424469619989395
1782661088899660000,4.285659912109375,-0.11765369772911072,0.032187413424253464,-0.12713873386383057
1782661088909730300,4.295730224609375,-0.1167551577091217,0.04736844450235367,-0.1500457525253296
1782661088919801300,4.30580126953125,-0.11097503453493118,0.04985370486974716,-0.17187167704105377
1782661088929871400,4.315871337890625,-0.10624157637357712,0.0600489042699337,-0.18244723975658417
1782661088939941000,4.325941162109375,-0.10369612276554108,0.07358601689338684,-0.1822674721479416
1782661088950012200,4.33601220703125,-0.10321377962827682,0.08211497962474823,-0.1761780083179474
1782661088960082200,4.346082275390625,-0.10317037254571915,0.09193165600299835,-0.16513948142528534
1782661088970152200,4.356152099609375,-0.09930972754955292,0.09520357102155685,-0.15278266370296478
1782661088980223200,4.36622314453125,-0.09276660531759262,0.09814050793647766,-0.137208491563797
1782661088990293200,4.376293212890625,-0.08540791273117065,0.08630533516407013,-0.12722836434841156
1782661089000364300,4.3863642578125,-0.07684105634689331,0.07987059652805328,-0.11823353916406631
1782661089010434000,4.39643408203125,-0.06506441533565521,0.07179142534732819,-0.10985414683818817
1782661089020504300,4.40650439453125,-0.05446929112076759,0.06289353966712952,-0.09766245633363724
1782661089030575400,4.416575439453125,-0.046018484979867935,0.0561823733150959,-0.08666037768125534
1782661089040645000,4.42664501953125,-0.04212334752082825,0.04715479165315628,-0.07341727614402771
1782661089050716200,4.436716064453125,-0.04056466370820999,0.042612504214048386,-0.05675017833709717
1782661089060786200,4.4467861328125,-0.039441607892513275,0.041103292256593704,-0.04504798352718353
1782661089070856400,4.4568564453125,-0.039778925478458405,0.029799388721585274,-0.03891538456082344
1782661089080927200,4.46692724609375,-0.04207456856966019,0.028606025502085686,-0.03838621452450752
1782661089090997200,4.476997314453125,-0.04197774454951286,0.02742260880768299,-0.040066592395305634
1782661089101067300,4.4870673828125,-0.04600151628255844,0.0272297952324152,-0.04673727601766586
1782661089111138000,4.497137939453125,-0.0498492568731308,0.029370419681072235,-0.05816415324807167
1782661089121208000,4.5072080078125,-0.05694631487131119,0.035452548414468765,-0.07082242518663406
1782661089131279000,4.517279052734375,-0.06775928288698196,0.04185318946838379,-0.08390253782272339
1782661089141349400,4.527349365234375,-0.0745101273059845,0.04855769872665405,-0.09665242582559586
1782661089151419100,4.537419189453125,-0.07643628120422363,0.049958959221839905,-0.11651195585727692
1782661089161490200,4.547490234375,-0.07487539947032928,0.04181741178035736,-0.12677764892578125
1782661089171560200,4.557560302734375,-0.07750855386257172,0.042007993906736374,-0.1283673346042633
1782661089181631200,4.56763134765625,-0.07582809776067734,0.04241146147251129,-0.1198958158493042
1782661089191701200,4.577701171875,-0.07622258365154266,0.026203496381640434,-0.11286745220422745
1782661089201771300,4.587771240234375,-0.07302571833133698,0.023271089419722557,-0.10546146333217621
1782661089211842300,4.59784228515625,-0.0723317563533783,0.022561123594641685,-0.08388238400220871
1782661089221912000,4.607912109375,-0.07732252031564713,0.022499337792396545,-0.05610508471727371
1782661089231982300,4.617982421875,-0.08121676743030548,0.02567768096923828,-0.03271125629544258
1782661089242053400,4.628053466796875,-0.08438938856124878,0.019824586808681488,-0.017756007611751556
1782661089252123100,4.638123046875,-0.0824473574757576,0.01673155650496483,-0.005008002743124962
1782661089262194200,4.648194091796875,-0.07888004928827286,0.020020294934511185,0.001304754288867116
1782661089272264200,4.65826416015625,-0.07787257432937622,0.01523672416806221,0.006739733275026083
1782661089282334200,4.668334228515625,-0.0701771080493927,0.008153248578310013,0.005404424387961626
1782661089292405200,4.6784052734375,-0.0581328459084034,-0.002388967201113701,0.010911764577031136
1782661089302475300,4.688475341796875,-0.04141112416982651,-0.010442899540066719,0.012485425919294357
1782661089312546300,4.69854638671875,-0.028094938024878502,-0.004124878440052271,0.0241596307605505
1782661089322616000,4.708615966796875,-0.01779276505112648,-0.005378961097449064,0.025102389976382256
1782661089332686000,4.71868603515625,-0.003924692049622536,-0.004988028202205896,0.022923041135072708
1782661089342757000,4.728757080078125,0.0027404010761529207,0.0025050416588783264,0.025716165080666542
1782661089352827400,4.738827392578125,0.00251899566501379,0.0032058602664619684,0.029489239677786827
1782661089362897200,4.748897216796875,-0.0018318104557693005,-0.0015207179822027683,0.02163184992969036
1782661089372968200,4.75896826171875,-0.008115708827972412,0.000015784986317157745,0.02485409937798977
1782661089383038200,4.7690380859375,-0.011203911155462265,0.0015196719905361533,0.0284712053835392
1782661089393109200,4.779109130859375,-0.007551273796707392,0.0019486153032630682,0.0334608256816864
1782661089403179300,4.78917919921875,-0.0018720830557867885,0.005859200842678547,0.02978113666176796
1782661089413249300,4.799249267578125,0.0024059596471488476,0.003165713744238019,0.026425302028656006
1782661089423320300,4.8093203125,0.0026762704364955425,0.00400753878057003,0.022548537701368332
1782661089433390000,4.81939013671875,-0.001293540932238102,0.013398759998381138,0.01708305813372135
1782661089443460400,4.82946044921875,-0.01018903125077486,0.019171960651874542,0.011414785869419575
1782661089453531400,4.839531494140625,-0.014564767479896545,0.02331625670194626,-0.00923336111009121
1782661089463602000,4.849601806640625,-0.020529182627797127,0.026494204998016357,-0.025379307568073273
1782661089473672700,4.859672607421875,-0.028058037161827087,0.020946981385350227,-0.050045330077409744
1782661089483742700,4.86974267578125,-0.027428997680544853,0.01572718657553196,-0.06834310293197632
1782661089493812700,4.879812744140625,-0.025541843846440315,0.019121013581752777,-0.07484404742717743
1782661089503883500,4.889883544921875,-0.0299613606184721,0.017418988049030304,-0.07512181997299194
1782661089513953800,4.899953857421875,-0.031063620001077652,0.02045479789376259,-0.067174531519413
1782661089524024800,4.91002490234375,-0.03321439027786255,0.02582692541182041,-0.05305790901184082
1782661089534094800,4.9200947265625,-0.02925577014684677,0.02190288156270981,-0.03202763572335243
1782661089544164600,4.93016455078125,-0.021327540278434753,0.018289506435394287,-0.018041513860225677
1782661089554235600,4.940235595703125,-0.015359858050942421,0.013772539794445038,-0.004042257554829121
1782661089564305700,4.9503056640625,-0.011939560063183308,0.01387507189065218,0.007812270894646645
1782661089574375700,4.960375732421875,-0.008290308527648449,0.0139077827334404,0.021201713010668755
1782661089584446700,4.97044677734375,0.0012669777497649193,0.010676569305360317,0.024587657302618027
1782661089594516700,4.980516845703125,0.009057892486453056,0.0104381013661623,0.02880837395787239
1782661089604587800,4.990587890625,0.010657120496034622,0.011687922291457653,0.03956248238682747
1782661089614657500,5.000657470703125,0.009691303595900536,0.013504104688763618,0.052523478865623474
1782661089624727800,5.010727783203125,0.01089318748563528,0.01604662463068962,0.057216234505176544
1782661089634798800,5.020798828125,0.007811924442648888,0.020393487066030502,0.057537514716386795
1782661089644868600,5.03086865234375,0.011491081677377224,0.016364390030503273,0.0425439178943634
1782661089654938600,5.040938720703125,0.011107963509857655,0.006194753106683493,0.018514402210712433
1782661089665009700,5.051009765625,0.011943663470447063,-0.005626220256090164,-0.007088429294526577
1782661089675080000,5.061079833984375,0.012193179689347744,-0.009680692106485367,-0.02568436600267887
1782661089685150700,5.071150634765625,0.010778509080410004,-0.007500095758587122,-0.030343566089868546
1782661089695220700,5.081220703125,0.00280633638612926,-0.006581571418792009,-0.0324927382171154
1782661089705290800,5.091290771484375,-0.0058806287124753,-0.003229184541851282,-0.028132077306509018
1782661089715361500,5.101361572265625,-0.01069759950041771,0.0017680652672424912,-0.02188608981668949
1782661089725431800,5.111431884765625,-0.014653191901743412,0.004297802224755287,-0.0160503052175045
1782661089735501800,5.121501708984375,-0.014586176723241806,-0.0036430740728974342,-0.007919496856629848
1782661089745572900,5.13157275390625,-0.008638272993266582,-0.013414211571216583,-0.004522635135799646
1782661089755642600,5.141642578125,-0.0030619832687079906,-0.0173819400370121,-0.010383592918515205
1782661089765713700,5.151713623046875,0.003910971339792013,-0.02057080715894699,-0.011362837627530098
1782661089775783700,5.16178369140625,0.005905242171138525,-0.028052031993865967,-0.010539298877120018
1782661089785853700,5.171853759765625,0.00477872509509325,-0.03140735253691673,-0.00102542235981673
1782661089795924700,5.1819248046875,-0.003928591497242451,-0.01514093391597271,0.02382008172571659
1782661089805994800,5.191994873046875,-0.0067776404321193695,-0.001867739949375391,0.035000029951334
1782661089816065800,5.202065673828125,-0.010020972229540348,-0.0030757696367800236,0.02797681652009487
1782661089826135600,5.212135498046875,-0.004600107669830322,-0.009892662987112999,0.013124368153512478
1782661089836205800,5.222205810546875,0.002320361090824008,-0.011282906867563725,0.003211134346202016
1782661089846276900,5.23227685546875,0.007576642092317343,-0.013414234854280949,0.0032894311007112265
1782661089856346600,5.2423466796875,0.011584019288420677,-0.010574841871857643,0.002129065804183483
1782661089866416600,5.252416748046875,0.01911863498389721,-0.006922049913555384,0.006799984257668257
1782661089876487700,5.26248779296875,0.025868719443678856,-0.001895170658826828,0.0020641866140067577
1782661089886557700,5.2725576171875,0.029823780059814453,-0.013683386147022247,-0.019297027960419655
1782661089896628700,5.282628662109375,0.02515719085931778,-0.02071654237806797,-0.03264715149998665
1782661089906698800,5.29269873046875,0.01758662238717079,-0.015002463012933731,-0.022346574813127518
1782661089916768800,5.302768798828125,0.009385793469846249,-0.0014009925071150064,-0.011867912486195564
1782661089926838500,5.312838623046875,0.009466362185776234,0.004068921320140362,-0.013345992192626
1782661089936908800,5.32290869140625,0.011955618858337402,0.0017618251731619239,-0.012839458882808685
1782661089946979800,5.332979736328125,0.01153531949967146,0.0049685947597026825,-0.008447043597698212
1782661089957049600,5.343049560546875,0.011483654379844666,-0.0019713370129466057,-0.0038451014552265406
1782661089967119600,5.35311962890625,0.01658143475651741,-0.004716976545751095,-0.013061122968792915
1782661089977190700,5.363190673828125,0.019797733053565025,-0.003123607486486435,-0.017337359488010406
1782661089987261000,5.373260986328125,0.026720842346549034,-0.0029272502288222313,-0.02358715422451496
1782661089997331700,5.383331787109375,0.03801850602030754,-0.0031922347843647003,-0.03430025279521942
1782661090007401700,5.393401611328125,0.04827960208058357,-0.021478263661265373,-0.06217794120311737
1782661090017471700,5.4034716796875,0.05838416889309883,-0.04414975270628929,-0.10626284778118134
1782661090027542800,5.413542724609375,0.07514849305152893,-0.06046084314584732,-0.13683384656906128
1782661090037612800,5.42361279296875,0.0733143761754036,-0.05021565780043602,-0.1401074081659317
1782661090047682800,5.433682861328125,0.044342078268527985,-0.021146349608898163,-0.11384901404380798
1782661090057753900,5.44375390625,0.008766504935920238,-0.005426510237157345,-0.03660242632031441
1782661090067823600,5.45382373046875,-0.006220249459147453,0.021964868530631065,0.03596324846148491
1782661090077894700,5.463894775390625,-0.0010878053726628423,0.039107903838157654,0.06366970390081406
1782661090087964700,5.473964599609375,0.019363807514309883,0.02722724713385105,0.05847768485546112
1782661090098034700,5.48403466796875,0.02860897034406662,0.009518291801214218,0.04283241182565689
1782661090108105700,5.494105712890625,0.02874756045639515,0.010126974433660507,0.03349550813436508
1782661090118175700,5.50417578125,0.027288680896162987,0.014216525480151176,0.02687675505876541
1782661090128246800,5.514246826171875,0.028705362230539322,0.011404828168451786,0.008336387574672699
1782661090138316500,5.524316650390625,0.027224378660321236,-0.004160815384238958,-0.010365661233663559
1782661090148386800,5.53438671875,0.026541493833065033,-0.011852765455842018,-0.028888413682579994
1782661090158457900,5.544457763671875,0.014475243166089058,-0.014462398365139961,-0.029002398252487183
1782661090168527600,5.554527587890625,0.0036933759693056345,-0.012455670163035393,-0.021299459040164948
1782661090178597600,5.56459765625,-0.0017506580334156752,0.0018076887354254723,-0.003898897208273411
1782661090188668700,5.574668701171875,-0.009126127697527409,0.01011870987713337,0.017045076936483383
1782661090198738700,5.58473876953125,-0.00991229247301817,0.02053912729024887,0.031306568533182144
1782661090208809700,5.594809814453125,-0.01658744551241398,0.02549763023853302,0.033396605402231216
1782661090218879700,5.604879638671875,-0.017842594534158707,0.02423768863081932,0.02517116628587246
1782661090228949800,5.61494970703125,-0.014364069327712059,0.020877448841929436,0.01659836433827877
1782661090239020800,5.625020751953125,-0.014142227359116077,0.022550180554389954,0.0003592055873014033
1782661090249090600,5.635090576171875,-0.014753816649317741,0.020587481558322906,-0.013307631015777588
1782661090259160800,5.645160888671875,-0.016230273991823196,0.019545121118426323,-0.01987418532371521
1782661090269231900,5.65523193359375,-0.020254619419574738,0.01845569908618927,-0.026959678158164024
1782661090279301600,5.665301513671875,-0.017172543331980705,0.020176634192466736,-0.044706184417009354
1782661090289372700,5.67537255859375,-0.011588248424232006,0.02410202845931053,-0.0590372271835804
1782661090299442700,5.685442626953125,-0.011193301528692245,0.02728663571178913,-0.06066681444644928
1782661090309512700,5.6955126953125,-0.01296679861843586,0.024344520643353462,-0.0470549538731575
1782661090319584500,5.70558447265625,-0.014577478170394897,0.015577927231788635,-0.03698394447565079
1782661090329655600,5.715655517578125,-0.020564069971442223,0.022624365985393524,-0.016245197504758835
1782661090339725800,5.725725830078125,-0.01881304197013378,0.017320415005087852,0.004885920323431492
1782661090349795800,5.7357958984375,-0.024819891899824142,0.017561065033078194,0.030883388593792915
1782661090359866600,5.74586669921875,-0.02636772021651268,0.018839117139577866,0.04808048903942108
1782661090369936600,5.7559365234375,-0.021470868960022926,0.021719980984926224,0.06770248711109161
1782661090380007700,5.766007568359375,-0.0249343104660511,0.02885352447628975,0.07711330056190491
1782661090390078000,5.776077880859375,-0.02202923782169819,0.020114487037062645,0.0717812031507492
1782661090400147700,5.786147705078125,-0.023135514929890633,0.010261325165629387,0.05886540561914444
1782661090410218800,5.79621875,-0.023433154448866844,0.0027202025521546602,0.047752972692251205
1782661090420288800,5.806288818359375,-0.025975940749049187,0.0010882174829021096,0.043117474764585495
1782661090430358500,5.816358642578125,-0.024267567321658134,-0.000901882303878665,0.03492916747927666
1782661090440429600,5.8264296875,-0.02417568862438202,-0.00725938007235527,0.029724018648266792
1782661090450499800,5.836499755859375,-0.025778435170650482,-0.005839081946760416,0.020327867940068245
1782661090460570400,5.8465703125,-0.0316736102104187,-0.012260762974619865,0.014871049672365189
1782661090470640400,5.856640380859375,-0.03566543012857437,-0.013517528772354126,0.0019195134518668056
1782661090480710100,5.866710205078125,-0.040384020656347275,-0.018393244594335556,-0.010509459301829338
1782661090490781200,5.87678125,-0.04286309331655502,-0.01976560801267624,-0.01710319146513939
1782661090500851500,5.8868515625,-0.042459093034267426,-0.020321674644947052,-0.020446790382266045
1782661090510921200,5.896921142578125,-0.04428548738360405,-0.030391354113817215,-0.027847448363900185
1782661090520992300,5.9069921875,-0.044194940477609634,-0.032129332423210144,-0.037719789892435074
1782661090531062300,5.917062255859375,-0.046432014554739,-0.03630627691745758,-0.043083496391773224
1782661090541133300,5.92713330078125,-0.054473698139190674,-0.048903293907642365,-0.04475835710763931
1782661090551203300,5.937203369140625,-0.05643618106842041,-0.0417252779006958,-0.0201888345181942
1782661090561273300,5.9472734375,-0.06282670050859451,-0.006500442512333393,0.013579515740275383
1782661090571344400,5.957344482421875,-0.07240140438079834,0.011346844956278801,0.028489883989095688
1782661090581414100,5.9674140625,-0.07630079984664917,0.0685771107673645,0.05321333929896355
1782661090591484400,5.977484375,-0.06236141920089722,-0.009187775664031506,-0.017685573548078537
1782661090601555500,5.987555419921875,-0.046955566853284836,-0.025516947731375694,-0.05750356242060661
1782661090611625500,5.99762548828125,-0.041870906949043274,-0.0158221498131752,-0.05921163782477379
1782661090621696300,6.0076962890625,-0.040666092187166214,-0.00017527956515550613,-0.05044637620449066
1782661090631766300,6.017766357421875,-0.03694438561797142,0.014745116233825684,-0.03363249450922012
1782661090641836300,6.027836181640625,-0.030890220776200294,0.027091531082987785,-0.022223779931664467
1782661090651907300,6.0379072265625,-0.023229490965604782,0.019950605928897858,-0.020473791286349297
1782661090661977300,6.047977294921875,-0.01283517200499773,0.027694810181856155,-0.01351228915154934
1782661090672047400,6.05804736328125,-0.006957369390875101,0.05705327168107033,-0.002455898327752948
1782661090682118400,6.068118408203125,-0.003997798543423414,0.027202431112527847,-0.018014350906014442
1782661090692188200,6.078188232421875,0.013548025861382484,0.002305794507265091,-0.031203147023916245
