time,seconds_elapsed,z,y,x
1782661027694995500,0.074995361328125,0.08369747549295425,0.15731953084468842,0.16107037663459778
1782661027705066500,0.08506640625,0.05555132403969765,0.2238120138645172,0.24516074359416962
1782661027715136500,0.095136474609375,0.031222151592373848,0.2443505823612213,0.28977182507514954
1782661027725207600,0.10520751953125,0.01812366023659706,0.2372540533542633,0.2996710538864136
1782661027735278600,0.115278564453125,0.015265418216586113,0.198442742228508,0.27325335144996643
1782661027745349400,0.125349365234375,0.02837269753217697,0.10938983410596848,0.21888679265975952
1782661027755419400,0.13541943359375,0.06503278762102127,0.057878050953149796,0.1639096438884735
1782661027765490400,0.145490478515625,0.08449703454971313,0.0681711733341217,0.09236808866262436
1782661027775561500,0.1555615234375,0.0817481279373169,-0.018632937222719193,-0.006260792724788189
1782661027785631500,0.165631591796875,0.07777415961027145,-0.09606195241212845,-0.07076388597488403
1782661027795702500,0.17570263671875,0.07202830910682678,-0.07043237239122391,-0.08800207078456879
1782661027805773600,0.185773681640625,0.05358964949846268,-0.040081121027469635,-0.0858563631772995
1782661027815844600,0.1958447265625,0.03492175042629242,-0.02922995202243328,-0.07857969403266907
1782661027825914600,0.20591455078125,0.013904085382819176,-0.01761217787861824,-0.056302886456251144
1782661027835985400,0.2159853515625,0.0028473571874201298,0.016377856954932213,-0.024417582899332047
1782661027846056400,0.226056396484375,-0.00777279632166028,0.05106686055660248,0.011356660164892673
1782661027856127500,0.23612744140625,-0.012086440809071064,0.0717063769698143,0.05625546723604202
1782661027866197500,0.246197509765625,-0.01432030089199543,0.09952868521213531,0.0907047837972641
1782661027876268500,0.2562685546875,-0.005109758116304874,0.1040629893541336,0.11032535880804062
1782661027886339300,0.26633935546875,0.010400758124887943,0.09125956892967224,0.11343380063772202
1782661027896410400,0.276410400390625,0.027476809918880463,0.08005138486623764,0.09586846083402634
1782661027906480600,0.286480712890625,0.039287131279706955,0.04778265953063965,0.04930469021201134
1782661027916551700,0.2965517578125,0.04849143326282501,-0.002611239440739155,-0.01043465081602335
1782661027926622700,0.306622802734375,0.052961282432079315,-0.03534947708249092,-0.0453212596476078
1782661027936692500,0.3166923828125,0.06453557312488556,-0.02630099467933178,-0.03935068100690842
1782661027946763500,0.326763427734375,0.06861074268817902,-0.003569848369807005,-0.017375877127051353
1782661027956834600,0.33683447265625,0.06980083137750626,0.02477003075182438,0.022266797721385956
1782661027966905600,0.346905517578125,0.06989245116710663,0.06477656960487366,0.07715348154306412
1782661027976975400,0.356975341796875,0.07423153519630432,0.13774292171001434,0.14053405821323395
1782661027987046400,0.36704638671875,0.07482914626598358,0.19493456184864044,0.19608652591705322
1782661027997117400,0.377117431640625,0.07083707302808762,0.21927665174007416,0.22171571850776672
1782661028007188500,0.3871884765625,0.06117938831448555,0.21100647747516632,0.20728644728660583
1782661028017258500,0.397258544921875,0.053791388869285583,0.16675594449043274,0.1782284826040268
1782661028027329500,0.40732958984375,0.05570859834551811,0.141333669424057,0.16650204360485077
1782661028037400600,0.417400634765625,0.05894727632403374,0.11448290944099426,0.15798349678516388
1782661028047471600,0.4274716796875,0.06813517957925797,0.0814911425113678,0.15062998235225677
1782661028057541600,0.437541748046875,0.07886332273483276,0.050997402518987656,0.1421377807855606
1782661028067612400,0.4476123046875,0.08365488052368164,0.030118217691779137,0.1364695131778717
1782661028077683500,0.457683349609375,0.07613891363143921,0.018070343881845474,0.13289128243923187
1782661028087754500,0.46775439453125,0.06680559366941452,0.01581411436200142,0.12924034893512726
1782661028097824500,0.477824462890625,0.05435825511813164,0.01548711583018303,0.12685038149356842
1782661028107895600,0.4878955078125,0.037677545100450516,0.021519174799323082,0.1220705434679985
1782661028117966300,0.49796630859375,0.019469356164336205,0.03693028539419174,0.12443985044956207
1782661028128036600,0.50803662109375,0.0013441466726362705,0.04203822836279869,0.11801257729530334
1782661028138107600,0.518107666015625,-0.013034841977059841,0.033647309988737106,0.09918094426393509
1782661028148178700,0.5281787109375,-0.023033680394291878,0.031415048986673355,0.07859683781862259
1782661028158249700,0.538249755859375,-0.023560527712106705,0.03154405951499939,0.056552447378635406
1782661028168319500,0.548319580078125,-0.022853191941976547,0.00922117754817009,0.026204396039247513
1782661028178390500,0.558390625,-0.021252887323498726,0.0043907687067985535,0.01273142546415329
1782661028188461600,0.568461669921875,-0.026059627532958984,0.012148290872573853,0.013569789007306099
1782661028198532600,0.57853271484375,-0.0337008461356163,0.02802322432398796,0.015824763104319572
1782661028208602400,0.588602294921875,-0.04142747446894646,0.0523754358291626,0.023895205929875374
1782661028218673400,0.59867333984375,-0.0468171201646328,0.06476937979459763,0.02657446078956127
1782661028228744400,0.608744384765625,-0.048902906477451324,0.059708837419748306,0.021420711651444435
1782661028238815500,0.6188154296875,-0.042211852967739105,0.04640847444534302,0.00554195512086153
1782661028248885500,0.628885498046875,-0.03050805814564228,0.02939034253358841,-0.004176718648523092
1782661028258956500,0.63895654296875,-0.02289392799139023,0.010102717205882072,-0.019062988460063934
1782661028269027600,0.649027587890625,-0.025454556569457054,0.006711447611451149,-0.012345431372523308
1782661028279097600,0.65909765625,-0.039668384939432144,0.032949160784482956,0.01190919429063797
1782661028289168600,0.669168701171875,-0.052602026611566544,0.06042419373989105,0.047981444746255875
1782661028299239700,0.67923974609375,-0.06345134228467941,0.0764833316206932,0.0733833983540535
1782661028309310500,0.689310546875,-0.0771234780550003,0.08233722299337387,0.08042213320732117
1782661028319380500,0.69938037109375,-0.08660726249217987,0.08516976237297058,0.0825236365199089
1782661028329451500,0.709451416015625,-0.09832863509654999,0.0666690468788147,0.06879637390375137
1782661028339522600,0.7195224609375,-0.10143346339464188,0.05683966353535652,0.0564720518887043
1782661028349593300,0.72959326171875,-0.10472646355628967,0.05688120797276497,0.03873513266444206
1782661028359663400,0.739663330078125,-0.10452575236558914,0.03690514713525772,0.011844251304864883
1782661028369734400,0.749734375,-0.10122556239366531,0.01223069429397583,-0.01898370124399662
1782661028379805400,0.759805419921875,-0.10068099945783615,0.010963440872728825,-0.020257074385881424
1782661028389876500,0.76987646484375,-0.0966271385550499,0.02167227864265442,-0.007783626206219196
1782661028399946500,0.779946533203125,-0.08933373540639877,0.028399581089615822,0.004708005115389824
1782661028410017300,0.790017333984375,-0.0818830132484436,0.027075722813606262,0.009612216614186764
1782661028420088300,0.80008837890625,-0.06830070167779922,0.0034237494692206383,0.008990978822112083
1782661028430158300,0.810158447265625,-0.057702116668224335,0.001549150561913848,0.018383149057626724
1782661028440229400,0.8202294921875,-0.044102344661951065,0.012256277725100517,0.036150768399238586
1782661028450300400,0.830300537109375,-0.029607556760311127,0.007469777949154377,0.04441269487142563
1782661028460371200,0.84037109375,-0.01360915508121252,0.001040357630699873,0.04363786429166794
1782661028470441200,0.850441162109375,0.002976212650537491,-0.00460421247407794,0.04047136753797531
1782661028480512300,0.86051220703125,0.014829342253506184,-0.007634494453668594,0.045417964458465576
1782661028490583300,0.870583251953125,0.021168462932109833,0.004681027960032225,0.059077318757772446
1782661028500654300,0.880654296875,0.03187565505504608,0.015549860894680023,0.06808780878782272
1782661028510724400,0.890724365234375,0.038204390555620193,0.0203467458486557,0.07192489504814148
1782661028520795400,0.90079541015625,0.05049886554479599,0.007085759658366442,0.062134359031915665
1782661028530866400,0.910866455078125,0.056298695504665375,-0.0010169082088395953,0.045082937926054
1782661028540936200,0.920936279296875,0.058699075132608414,0.005262451712042093,0.04154180362820625
1782661028551007200,0.93100732421875,0.057194389402866364,0.019350040704011917,0.03735344856977463
1782661028561078300,0.941078369140625,0.05928895249962807,0.02007729560136795,0.03281481936573982
1782661028571149300,0.9511494140625,0.05888095498085022,0.010288313962519169,0.0128866508603096
1782661028581219300,0.96121923828125,0.05284325033426285,-0.016614755615592003,-0.004982249811291695
1782661028591290000,0.9712900390625,0.04225931689143181,0.0029815819580107927,-0.0004173250636085868
1782661028601361200,0.981361083984375,0.027627846226096153,0.022311486303806305,0.016022251918911934
1782661028611432200,0.99143212890625,0.010258442722260952,0.02175195701420307,0.013045637868344784
1782661028621502500,1.00150244140625,-0.005083559546619654,0.019875643774867058,0.003996632993221283
1782661028631573500,1.011573486328125,-0.014553760178387165,0.001760823535732925,-0.013485155999660492
1782661028641644300,1.021644287109375,-0.028759922832250595,-0.01715998537838459,-0.020422007888555527
1782661028651714300,1.03171435546875,-0.041702620685100555,0.00004376948345452547,-0.006407388485968113
1782661028661785300,1.041785400390625,-0.051885418593883514,0.012972732074558735,0.004184918478131294
1782661028671856400,1.0518564453125,-0.05701892822980881,0.007489549461752176,0.0024719731882214546
1782661028681927400,1.061927490234375,-0.05590219795703888,0.0010943496599793434,-0.015120220370590687
1782661028691997200,1.0719970703125,-0.051913317292928696,-0.028351157903671265,-0.0366944894194603
1782661028702068200,1.082068115234375,-0.047911979258060455,-0.03779001906514168,-0.054730482399463654
1782661028712139300,1.09213916015625,-0.04655616730451584,-0.029518509283661842,-0.0475708432495594
1782661028722210300,1.102210205078125,-0.04079224541783333,-0.019741497933864594,-0.03795062005519867
1782661028732280300,1.1122802734375,-0.030732687562704086,-0.018360914662480354,-0.030649831518530846
1782661028742351400,1.122351318359375,-0.022180456668138504,-0.016795968636870384,-0.03237244486808777
1782661028752422400,1.13242236328125,-0.0137917660176754,-0.020885784178972244,-0.03274768590927124
1782661028762492400,1.142492431640625,-0.00527338357642293,-0.00810076855123043,-0.029023364186286926
1782661028772563500,1.1525634765625,-0.0026062275283038616,0.006884039845317602,-0.015731262043118477
1782661028782634200,1.16263427734375,0.00387384369969368,0.017629234120249748,-0.007537818979471922
1782661028792705300,1.172705322265625,0.010847064666450024,0.016959449276328087,-0.0030141733586788177
1782661028802775300,1.182775390625,0.01955673284828663,0.013629038818180561,-0.001612057676538825
1782661028812846300,1.192846435546875,0.025839928537607193,0.010653488337993622,-0.0025865084026008844
1782661028822917400,1.20291748046875,0.030811594799160957,0.012102968990802765,0.0014315866865217686
1782661028832988200,1.21298828125,0.03558237850666046,0.00858653150498867,-0.0019359803991392255
1782661028843058400,1.223058349609375,0.038688890635967255,0.00010448961984366179,-0.002408386208117008
1782661028853129500,1.23312939453125,0.03504515439271927,-0.006856480613350868,-0.014219239354133606
1782661028863200500,1.243200439453125,0.03525814414024353,0.0007219637045636773,-0.017161084339022636
1782661028873270300,1.253270263671875,0.033178746700286865,0.0030674096196889877,-0.015240944921970367
1782661028883341300,1.26334130859375,0.03429940715432167,0.00865205843001604,-0.01206192933022976
1782661028893412400,1.273412353515625,0.034861598163843155,0.006365734618157148,-0.005150227807462215
1782661028903483400,1.2834833984375,0.038235560059547424,-0.007751682307571173,-0.00724054267629981
1782661028913553200,1.29355322265625,0.03945954889059067,-0.014915584586560726,-0.014880086295306683
1782661028923624200,1.303624267578125,0.03616122156381607,-0.02081022597849369,-0.021372873336076736
1782661028933695200,1.3136953125,0.03671915456652641,-0.023722926154732704,-0.01777787320315838
1782661028943765500,1.323765625,0.03287740796804428,-0.02997524105012417,-0.01747339591383934
1782661028953836500,1.33383642578125,0.032056886702775955,-0.031690049916505814,-0.018398577347397804
1782661028963907300,1.3439072265625,0.029016021639108658,-0.02834741584956646,-0.012702413834631443
1782661028973978400,1.353978271484375,0.02775581367313862,-0.030168484896421432,-0.00227454025298357
1782661028984048400,1.36404833984375,0.024074595421552658,-0.02686307206749916,0.0062865293584764
1782661028994119400,1.374119384765625,0.020628731697797775,-0.010794091038405895,0.028127379715442657
1782661029004190500,1.3841904296875,0.014724577777087688,-0.006272611208260059,0.04870298504829407
1782661029014261200,1.39426123046875,0.016168277710676193,0.004362190142273903,0.05886560678482056
1782661029024331300,1.404331298828125,0.017243657261133194,0.006792793981730938,0.05539502203464508
1782661029034402300,1.41440234375,0.017382940277457237,0.0024563688784837723,0.036241304129362106
1782661029044473300,1.424473388671875,0.0190759114921093,-0.006493716966360807,0.013830004259943962
1782661029054543400,1.43454345703125,0.01975288800895214,-0.016494419425725937,-0.011076676659286022
1782661029064614400,1.444614501953125,0.023486243560910225,-0.02189636044204235,-0.03613284230232239
1782661029074685400,1.454685546875,0.025668436661362648,-0.019975954666733742,-0.04602568596601486
1782661029084756500,1.464756591796875,0.02207343652844429,-0.005110188852995634,-0.04782731458544731
1782661029094826500,1.474826416015625,0.011310269124805927,0.013188390992581844,-0.045506902039051056
1782661029104897300,1.484897216796875,-0.0020801008213311434,0.03404899686574936,-0.04360758513212204
1782661029114968300,1.49496826171875,-0.013084282167255878,0.05162852257490158,-0.04582440108060837
1782661029125038300,1.505038330078125,-0.021687297150492668,0.05881963670253754,-0.05528910458087921
1782661029135109400,1.515109375,-0.028269300237298012,0.060247890651226044,-0.07189977169036865
1782661029145180400,1.525180419921875,-0.031245574355125427,0.04333515465259552,-0.09151031821966171
1782661029155251200,1.535251220703125,-0.033532965928316116,0.034697193652391434,-0.10115469247102737
1782661029165321500,1.545321533203125,-0.03580936789512634,0.04174169898033142,-0.09585652500391006
1782661029175392500,1.555392578125,-0.043224141001701355,0.04256141930818558,-0.09042900055646896
1782661029185463600,1.565463623046875,-0.04664737358689308,0.03556332737207413,-0.08329365402460098
1782661029195533300,1.575533203125,-0.050938788801431656,0.02511628158390522,-0.08242173492908478
1782661029205604400,1.585604248046875,-0.047961439937353134,0.013445434160530567,-0.07147402316331863
1782661029215675400,1.59567529296875,-0.0489601232111454,0.005319596733897924,-0.06911659240722656
1782661029225746400,1.605746337890625,-0.050538912415504456,-0.004216721281409264,-0.06347496062517166
1782661029235816200,1.615816162109375,-0.0524476021528244,-0.01478494331240654,-0.05757606402039528
1782661029245887200,1.62588720703125,-0.04911838844418526,-0.017747577279806137,-0.04325268417596817
1782661029255958300,1.635958251953125,-0.05007925629615784,-0.01132829301059246,-0.02785615064203739
1782661029266028300,1.6460283203125,-0.0490136556327343,-0.0037977350875735283,-0.012509239837527275
1782661029276099300,1.656099365234375,-0.04264896363019943,-0.005276056006550789,0.0009924540063366294
1782661029286170400,1.66617041015625,-0.03585951030254364,-0.007867403328418732,0.008727011270821095
1782661029296241400,1.676241455078125,-0.024754662066698074,-0.013433144427835941,0.010165917687118053
1782661029306311400,1.6863115234375,-0.02049333043396473,-0.014025303535163403,0.013393305242061615
1782661029316382500,1.696382568359375,-0.015495107509195805,-0.005850731395184994,0.01414058730006218
1782661029326453500,1.70645361328125,-0.012172081507742405,-0.0036910134367644787,0.018256383016705513
1782661029336523300,1.716523193359375,-0.008871359750628471,-0.007527829613536596,0.012721802107989788
1782661029346594300,1.72659423828125,-0.003135044127702713,-0.011228006333112717,0.0036110486835241318
1782661029356665300,1.736665283203125,0.0039716013707220554,-0.011344918981194496,0.0015295223565772176
1782661029366736400,1.746736328125,0.013997651636600494,-0.01590462028980255,-0.006252349354326725
1782661029376806100,1.75680615234375,0.0143606411293149,-0.01661115698516369,-0.008732550777494907
1782661029386877200,1.766877197265625,0.02096995711326599,-0.019041668623685837,-0.009061511605978012
1782661029396948200,1.7769482421875,0.023167332634329796,-0.023499269038438797,-0.005303259007632732
1782661029407018200,1.787018310546875,0.02062894031405449,-0.03287224844098091,0.0036334318574517965
1782661029417089000,1.797089111328125,0.022539492696523666,-0.031255174428224564,0.016629658639431
1782661029427160000,1.80716015625,0.02038818970322609,-0.03790402412414551,0.03017209842801094
1782661029437231000,1.817231201171875,0.01446798350661993,-0.04001085087656975,0.04171423614025116
1782661029447301000,1.827301025390625,0.006020637694746256,-0.03327658399939537,0.052736785262823105
1782661029457372200,1.8373720703125,-0.005009643267840147,-0.03777759149670601,0.0535261444747448
1782661029467443000,1.84744287109375,-0.007357951253652573,-0.04726065695285797,0.0462360717356205
1782661029477513000,1.857512939453125,-0.013137010857462883,-0.04531548544764519,0.03890199586749077
1782661029487584000,1.867583984375,-0.018514735624194145,-0.04760408774018288,0.03325486555695534
1782661029497655000,1.877655029296875,-0.01860341802239418,-0.050722651183605194,0.029069975018501282
1782661029507726000,1.88772607421875,-0.018982192501425743,-0.05462997406721115,0.026965629309415817
1782661029517796000,1.897796142578125,-0.018833322450518608,-0.04757073149085045,0.032317519187927246
1782661029527867100,1.9078671875,-0.0203395988792181,-0.03253519535064697,0.048306774348020554
1782661029537938200,1.917938232421875,-0.021246405318379402,-0.01885373890399933,0.05695325881242752
1782661029548008200,1.92800830078125,-0.01964591257274151,-0.008366353809833527,0.05773307383060455
1782661029558079000,1.938078857421875,-0.016545193269848824,-0.0006612957222387195,0.05139155313372612
1782661029568150000,1.94814990234375,-0.019088709726929665,-0.004443829879164696,0.03433737903833389
1782661029578221000,1.958220947265625,-0.015106485225260258,-0.011377369053661823,0.005601868033409119
1782661029588291000,1.968291015625,-0.011091837659478188,-0.015834655612707138,-0.022347647696733475
1782661029598362000,1.978362060546875,-0.011669743806123734,-0.017740946263074875,-0.0465557835996151
1782661029608433000,1.988432861328125,-0.019656699150800705,-0.0020639998838305473,-0.05234568193554878
1782661029618503200,1.998503173828125,-0.022363800555467606,0.012034241110086441,-0.04717116057872772
1782661029628574200,2.00857421875,-0.02875518426299095,0.02166576124727726,-0.038007497787475586
1782661029638645200,2.018645263671875,-0.03137680143117905,0.024425063282251358,-0.03153841570019722
1782661029648716300,2.02871630859375,-0.03380933403968811,0.028037680312991142,-0.02207476831972599
1782661029658786000,2.0387861328125,-0.03225963935256004,0.02933863364160061,-0.006942152976989746
1782661029668857000,2.048857177734375,-0.03349068760871887,0.03108074516057968,0.0017301889602094889
1782661029678928100,2.05892822265625,-0.03142727166414261,0.03831096366047859,0.01026828307658434
1782661029688998000,2.068997802734375,-0.028764773160219193,0.03512990474700928,0.016345752403140068
1782661029699069000,2.07906884765625,-0.022748425602912903,0.021771755069494247,0.021022528409957886
1782661029709140000,2.089139892578125,-0.01713608019053936,0.011497054249048233,0.022132374346256256
1782661029719210200,2.099210205078125,-0.011685921810567379,-0.0068033910356462,0.01638047955930233
1782661029729281300,2.10928125,-0.008399980142712593,-0.01213722862303257,0.018028417602181435
1782661029739352000,2.11935205078125,-0.009607723914086819,-0.011936426162719727,0.02955404482781887
1782661029749423000,2.129423095703125,-0.007401827722787857,-0.007332087028771639,0.051134172827005386
1782661029759493000,2.1394931640625,-0.010635171085596085,-0.0005993494996801019,0.06932809203863144
1782661029769564200,2.149564208984375,-0.011850771494209766,0.006791556254029274,0.08119526505470276
1782661029779635200,2.15963525390625,-0.01409901212900877,0.002819185145199299,0.08178329467773438
1782661029789705000,2.169705078125,-0.011816752143204212,-0.0024906559847295284,0.071600042283535
1782661029799776000,2.17977587890625,-0.012591199018061161,-0.009185044094920158,0.04789232090115547
1782661029809847000,2.189846923828125,-0.012408771552145481,-0.019328782334923744,0.024110127240419388
1782661029819918000,2.19991796875,-0.008012425154447556,-0.031138835474848747,0.0007547374116256833
1782661029829988000,2.209988037109375,-0.005524764768779278,-0.031706176698207855,-0.02386985719203949
1782661029840059100,2.22005908203125,0.002287618350237608,-0.0331762433052063,-0.037259168922901154
1782661029850130200,2.230130126953125,-0.0003063008189201355,-0.03410230576992035,-0.05860408395528793
1782661029860200200,2.2402001953125,0.000549106509424746,-0.030243918299674988,-0.06764444708824158
1782661029870271200,2.250271240234375,0.003272920846939087,-0.023176297545433044,-0.07753698527812958
1782661029880342000,2.260342041015625,0.002297671278938651,-0.016121849417686462,-0.08000733703374863
1782661029890412000,2.270412109375,-0.0011266875080764294,-0.005389065947383642,-0.07121001929044724
1782661029900483000,2.280483154296875,-0.0030284509994089603,0.008501715958118439,-0.05939730629324913
1782661029910554000,2.29055419921875,-0.0066961562260985374,0.01371059287339449,-0.05145469307899475
1782661029920625200,2.300625244140625,-0.004103302489966154,0.0175362229347229,-0.04195333272218704
1782661029930695200,2.310695068359375,-0.003373396582901478,0.014968791976571083,-0.035558514297008514
1782661029940766200,2.32076611328125,0.0012895319378003478,0.009420362301170826,-0.032010115683078766
1782661029950837200,2.330837158203125,0.0017246260540559888,0.0029711078386753798,-0.028408151119947433
1782661029960907000,2.340906982421875,0.0018220976926386356,0.005872621666640043,-0.016859086230397224
1782661029970978000,2.35097802734375,-0.0003751434851437807,0.0028177311178296804,-0.010713656432926655
1782661029981049000,2.361049072265625,0.002703204285353422,-0.008448505774140358,-0.004927673377096653
1782661029991119000,2.371119140625,0.0029588681645691395,-0.010189722292125225,0.0005833671893924475
1782661030001190100,2.381190185546875,-0.0000843261368572712,-0.004013851750642061,0.012204070575535297
1782661030011261000,2.391260986328125,-0.006192285567522049,-0.0006657257908955216,0.015576964244246483
1782661030021332000,2.40133203125,-0.007703096605837345,-0.005785386543720961,0.009646104648709297
1782661030031402000,2.411402099609375,-0.010043087415397167,-0.0069924392737448215,0.0020957423839718103
1782661030041473000,2.42147314453125,-0.008574886247515678,0.0007760013686493039,0.001297593116760254
1782661030051544000,2.4315439453125,-0.008885740302503109,-0.0051524764858186245,-0.007357953116297722
1782661030061614000,2.441614013671875,-0.0030765868723392487,-0.0206744447350502,-0.025724444538354874
1782661030071685000,2.45168505859375,0.001116093248128891,-0.02194751426577568,-0.0396210178732872
1782661030081756200,2.461756103515625,0.000648708431981504,-0.010533472523093224,-0.025769386440515518
1782661030091826200,2.471826171875,-0.0058533987030386925,0.01332973875105381,-0.0025632381439208984
1782661030101897000,2.48189697265625,-0.006707474589347839,0.012172329239547253,0.0049953460693359375
1782661030111968000,2.491968017578125,-0.0034454355482012033,0.009712533093988895,0.007355051580816507
1782661030122039000,2.5020390625,-0.0016754986718297005,0.008036606013774872,0.011220895685255527
1782661030132109000,2.512109130859375,-0.0012390107149258256,0.005659077782183886,0.016171490773558617
1782661030142180000,2.52218017578125,-0.0004136970965191722,0.007303846068680286,0.011869687587022781
1782661030152251000,2.5322509765625,0.004368411842733622,0.004653614945709705,0.010936656966805458
1782661030162321200,2.542321044921875,0.0038935700431466103,-0.0001446023816242814,0.005569055210798979
1782661030172392200,2.55239208984375,0.001201714389026165,-0.004611465148627758,-0.005966943688690662
1782661030182463200,2.562463134765625,-0.0016667763702571392,-0.004646086134016514,-0.012338023632764816
1782661030192534300,2.5725341796875,-0.003803432919085026,0.002200501970946789,-0.0236702598631382
1782661030202604000,2.58260400390625,-0.008144917897880077,0.005253549665212631,-0.028532393276691437
1782661030212675000,2.592675048828125,-0.013540550135076046,0.007481719832867384,-0.032550957053899765
1782661030222746000,2.60274609375,-0.021635759621858597,0.015543108806014061,-0.0300515815615654
1782661030232815900,2.61281591796875,-0.025040414184331894,0.017446907237172127,-0.02102838270366192
1782661030242887000,2.622886962890625,-0.029363524168729782,0.02594798430800438,-0.018481068313121796
1782661030252958000,2.6329580078125,-0.03014236129820347,0.03253989666700363,-0.019233213737607002
1782661030263028200,2.6430283203125,-0.030355678871273994,0.02351284585893154,-0.03667878359556198
1782661030273099300,2.653099365234375,-0.020226748660206795,0.005738269537687302,-0.05713748559355736
1782661030283170000,2.663170166015625,-0.013050062581896782,-0.010810879059135914,-0.0722498670220375
1782661030293241000,2.673240966796875,-0.001454126089811325,-0.01977880857884884,-0.0734509527683258
1782661030303311000,2.68331103515625,0.005580347962677479,-0.016860516741871834,-0.061879776418209076
1782661030313382100,2.693382080078125,0.007000414654612541,-0.01378375943750143,-0.050311893224716187
1782661030323453200,2.703453125,0.01325058750808239,-0.0165726225823164,-0.04316902905702591
1782661030333523000,2.71352294921875,0.012520880438387394,-0.009092823602259159,-0.03267819806933403
1782661030343594000,2.723593994140625,0.009384742006659508,-0.0011438204674050212,-0.019944828003644943
1782661030353665000,2.7336650390625,0.0055264877155423164,-0.0010996345663443208,-0.018836870789527893
1782661030363735300,2.7437353515625,0.005104909650981426,-0.013314489275217056,-0.020156200975179672
1782661030373806000,2.75380615234375,0.011973928660154343,-0.029311519116163254,-0.03163477033376694
1782661030383877000,2.763877197265625,0.01184130273759365,-0.042248889803886414,-0.04327038675546646
1782661030393947100,2.773947021484375,0.01673905923962593,-0.05249724164605141,-0.05120277404785156
1782661030404018400,2.784018310546875,0.01883736625313759,-0.06761334091424942,-0.05124538764357567
1782661030414089500,2.79408935546875,0.02388785034418106,-0.07043002545833588,-0.04836095869541168
1782661030424160500,2.804160400390625,0.029685284942388535,-0.08015722036361694,-0.037242524325847626
1782661030434230500,2.81423046875,0.0325571745634079,-0.08461713790893555,-0.033072348684072495
1782661030444301300,2.82430126953125,0.03467438742518425,-0.08759269118309021,-0.024659154936671257
1782661030454372400,2.834372314453125,0.040021274238824844,-0.09789297729730606,-0.010446393862366676
1782661030464442400,2.8444423828125,0.04228709265589714,-0.11512469500303268,0.0016776470001786947
1782661030474513400,2.854513427734375,0.04925791919231415,-0.12203031778335571,0.017109232023358345
1782661030484584400,2.86458447265625,0.06203976273536682,-0.10449260473251343,0.030469512566924095
1782661030494655500,2.874655517578125,0.06366249173879623,-0.0765676200389862,0.0431024432182312
1782661030504725500,2.8847255859375,0.06344437599182129,-0.03848015516996384,0.06591348350048065
1782661030514796500,2.894796630859375,0.0542667955160141,-0.011941729113459587,0.08261186629533768
1782661030524867600,2.90486767578125,0.04351268336176872,-0.008854592218995094,0.07998465746641159
1782661030534937300,2.914937255859375,0.03705272078514099,-0.02219129167497158,0.07134959101676941
1782661030545008400,2.92500830078125,0.03182759881019592,-0.027212947607040405,0.06839215010404587
1782661030555079400,2.935079345703125,0.027624130249023438,-0.020414505153894424,0.06549521535634995
1782661030565149400,2.9451494140625,0.025081343948841095,-0.021815860643982887,0.06340304017066956
1782661030575220500,2.955220458984375,0.02924286387860775,-0.027321750298142433,0.054113730788230896
1782661030585291300,2.965291259765625,0.034445349127054214,-0.026234647259116173,0.04348292574286461
1782661030595361500,2.975361572265625,0.03836838901042938,-0.028885487467050552,0.0266673993319273
1782661030605432600,2.9854326171875,0.03931993618607521,-0.02592112310230732,0.02149767056107521
1782661030615503600,2.995503662109375,0.03544437140226364,-0.017331920564174652,0.016417238861322403
1782661030625574700,3.00557470703125,0.03153271973133087,0.004286023322492838,0.020533952862024307
1782661030635644400,3.01564453125,0.024447042495012283,0.014632091857492924,0.018502207472920418
1782661030645715500,3.025715576171875,0.020245639607310295,0.011277574114501476,0.015536777675151825
1782661030655786500,3.035786376953125,0.012442778795957565,0.006929018534719944,0.005711885169148445
1782661030665856300,3.045856201171875,0.009471223689615726,0.004224578849971294,-0.0007217791280709207
1782661030675927300,3.05592724609375,0.003588366787880659,-0.0037471819669008255,0.005532347597181797
1782661030685998300,3.065998291015625,0.000947310181800276,-0.0034758057445287704,0.007849031127989292
1782661030696068600,3.076068603515625,0.004528132267296314,0.0006540286121889949,0.0070636034943163395
1782661030706139600,3.0861396484375,0.002463916316628456,-0.0006469256477430463,0.00030982663156464696
1782661030716210400,3.09621044921875,-0.0038479093927890062,-0.004077850840985775,-0.008073353208601475
1782661030726280400,3.106280517578125,-0.017003659158945084,-0.011748554185032845,-0.010561011731624603
1782661030736351500,3.1163515625,-0.016618436202406883,-0.015483026392757893,-0.010031555779278278
1782661030746422500,3.126422607421875,-0.017335359007120132,-0.01195407286286354,-0.005465032998472452
1782661030756493600,3.13649365234375,-0.013208459131419659,-0.012055657804012299,-0.006417687050998211
1782661030766563300,3.146563232421875,-0.008873897604644299,-0.016978777945041656,-0.016269251704216003
1782661030776634400,3.15663427734375,-0.011399236507713795,-0.016063794493675232,-0.02544492669403553
1782661030786705400,3.166705322265625,-0.014412869699299335,-0.023739557713270187,-0.029253248125314713
1782661030796775700,3.176775634765625,-0.016684148460626602,-0.03519858419895172,-0.031100764870643616
1782661030806846500,3.186846435546875,-0.012344792485237122,-0.031852588057518005,-0.037475839257240295
1782661030816917500,3.19691748046875,-0.001900075818412006,-0.0478372648358345,-0.042256519198417664
1782661030826987500,3.206987548828125,0.009506243281066418,-0.055443521589040756,-0.04108632728457451
1782661030837058600,3.21705859375,0.011211262084543705,-0.06465519219636917,-0.04046175628900528
1782661030847129600,3.227129638671875,0.009064753539860249,-0.06507224589586258,-0.03883296623826027
1782661030857199400,3.237199462890625,0.0025886762887239456,-0.06414049118757248,-0.0283663347363472
1782661030867270400,3.2472705078125,-0.004660714417695999,-0.05369265004992485,-0.014157039113342762
1782661030877341400,3.257341552734375,-0.013060116209089756,-0.04234522581100464,-0.009312480688095093
1782661030887412500,3.26741259765625,-0.0206953976303339,-0.04070365056395531,-0.0023171561770141125
1782661030897482500,3.277482421875,-0.014972072094678879,-0.04360275715589523,-0.004348001908510923
1782661030907553500,3.287553466796875,-0.010056409984827042,-0.056012023240327835,0.000002804212272167206
1782661030917624600,3.29762451171875,-0.0018072762759402394,-0.07724103331565857,-0.0015171272680163383
1782661030927694600,3.307694580078125,0.008738575503230095,-0.08253353089094162,0.00911873858422041
1782661030937765400,3.317765380859375,0.015257339924573898,-0.07516662776470184,0.022164545953273773
1782661030947836400,3.32783642578125,0.023297157138586044,-0.059578876942396164,0.03756720572710037
1782661030957906400,3.337906494140625,0.031025709584355354,-0.05520890653133392,0.04535737633705139
1782661030967977500,3.3479775390625,0.03946553170681,-0.05255133658647537,0.04993082210421562
1782661030978048500,3.358048583984375,0.038375042378902435,-0.053744927048683167,0.05713629722595215
1782661030988118500,3.368118408203125,0.04026828333735466,-0.04882287234067917,0.0781041607260704
1782661030998189600,3.378189453125,0.04113798215985298,-0.02916673757135868,0.09422348439693451
1782661031008260600,3.388260498046875,0.03672805428504944,-0.01234248373657465,0.10295199602842331
1782661031018331600,3.39833154296875,0.03136545419692993,-0.008121850900352001,0.10072873532772064
1782661031028401400,3.4084013671875,0.02787564881145954,-0.004480510484427214,0.09321276098489761
1782661031038472400,3.418472412109375,0.022871050983667374,-0.012527743354439735,0.07547996193170547
1782661031048543500,3.42854345703125,0.02159406617283821,-0.02001096121966839,0.05272804945707321
1782661031058613500,3.438613525390625,0.02152593806385994,-0.01939033716917038,0.028712555766105652
1782661031068684500,3.4486845703125,0.02344341389834881,-0.020027365535497665,0.008644305169582367
1782661031078755300,3.45875537109375,0.019089022651314735,-0.01722133904695511,-0.012351641431450844
1782661031088825300,3.468825439453125,0.02014336921274662,-0.012040955945849419,-0.03129363805055618
1782661031098896400,3.478896484375,0.019399212673306465,-0.02388625591993332,-0.0478796660900116
1782661031108967400,3.488967529296875,0.017521418631076813,-0.015383315272629261,-0.05397537723183632
1782661031119037400,3.499037353515625,0.021285129711031914,-0.004131962079554796,-0.04732368141412735
1782661031129108500,3.5091083984375,0.02119884267449379,-0.002389189787209034,-0.038617540150880814
1782661031139179500,3.519179443359375,0.021254168823361397,0.004474161192774773,-0.027701202780008316
1782661031149250600,3.52925048828125,0.022026753053069115,0.0053772395476698875,-0.01767253689467907
1782661031159320600,3.539320556640625,0.01699085161089897,-0.004059434402734041,-0.01794356293976307
1782661031169391400,3.549391357421875,0.01324378326535225,-0.013826045207679272,-0.008163370192050934
1782661031179462400,3.55946240234375,0.01325156819075346,-0.020824093371629715,-0.008184351027011871
1782661031189532400,3.569532470703125,0.014543467201292515,-0.023122135549783707,-0.009823527187108994
1782661031199603500,3.579603515625,0.0114414868876338,-0.019531838595867157,-0.00048156557022593915
1782661031209674200,3.58967431640625,0.01185773964971304,-0.01606280542910099,0.005458348896354437
1782661031219744500,3.59974462890625,0.004454822279512882,-0.011170396581292152,0.003239385085180402
1782661031229815600,3.609815673828125,0.005863634869456291,-0.016594989225268364,-0.008223126642405987
1782661031239886600,3.619886474609375,0.006882818881422281,-0.02584802731871605,-0.021709173917770386
1782661031249956400,3.629956298828125,0.014851262792944908,-0.0291689895093441,-0.02997882105410099
1782661031260027400,3.64002734375,0.025544263422489166,-0.031338274478912354,-0.03277738764882088
1782661031270098400,3.650098388671875,0.03043808788061142,-0.037192702293395996,-0.03155792877078056
1782661031280168400,3.66016845703125,0.03408354893326759,-0.04183690622448921,-0.0334029495716095
1782661031290239500,3.670239501953125,0.03305636718869209,-0.03667144104838371,-0.02385231852531433
1782661031300310300,3.680310302734375,0.0337696298956871,-0.025443729013204575,-0.00891612283885479
1782661031310381300,3.69038134765625,0.03651721403002739,-0.012458421289920807,0.004774389788508415
1782661031320451600,3.70045166015625,0.03759380057454109,-0.0008001395035535097,0.010051627643406391
1782661031330522600,3.710522705078125,0.035612672567367554,0.004716598428785801,0.015017624013125896
1782661031340593700,3.72059375,0.032661885023117065,0.002740591298788786,0.016840659081935883
1782661031350663400,3.730663330078125,0.03341103345155716,0.00009660492651164532,0.016145307570695877
1782661031360734500,3.740734375,0.02802937477827072,-0.004106392152607441,0.010484647937119007
1782661031370805500,3.750805419921875,0.029736194759607315,-0.011392001993954182,0.01222182810306549
1782661031380875500,3.76087548828125,0.02427266351878643,-0.011248994618654251,0.01266562007367611
1782661031390946300,3.7709462890625,0.02499597892165184,-0.00728514464572072,0.013243259862065315
1782661031401017300,3.781017333984375,0.019299397245049477,-0.01358881127089262,0.0031012161634862423
1782661031411088000,3.791087890625,0.01637684367597103,-0.010841494426131248,0.0016950671561062336
1782661031421159000,3.801158935546875,0.009680656716227531,0.0006888107163831592,0.00766370166093111
1782661031431230000,3.81122998046875,0.0061698113568127155,-0.0010563586838543415,0.006367807276546955
1782661031441301000,3.821301025390625,0.005081985145807266,-0.007156040519475937,-0.0003830122295767069
1782661031451371000,3.83137109375,0.003877171315252781,0.00040280958637595177,0.00027026113821193576
1782661031461441800,3.84144189453125,0.003790896385908127,0.002191481413319707,-0.00901807937771082
1782661031471512800,3.851512939453125,0.007843694649636745,-0.0077144126407802105,-0.02133600041270256
1782661031481582800,3.861582763671875,0.016064267605543137,-0.012861538678407669,-0.024656983092427254
1782661031491654000,3.87165380859375,0.01920946128666401,-0.014839202165603638,-0.019423872232437134
1782661031501725000,3.881724853515625,0.018780548125505447,-0.012503189966082573,-0.004797943867743015
1782661031511794700,3.891794677734375,0.019732095301151276,-0.009044010192155838,0.008813206106424332
1782661031521865700,3.90186572265625,0.01682586967945099,-0.005291707348078489,0.018671788275241852
1782661031531936800,3.911936767578125,0.012472933158278465,0.005501285661011934,0.031993456184864044
1782661031542006800,3.9220068359375,0.009876072406768799,0.012105569243431091,0.03786681964993477
1782661031552077800,3.932077880859375,0.010248914361000061,0.005968314595520496,0.03774058446288109
1782661031562148900,3.94214892578125,0.008121180348098278,0.0027171592228114605,0.025588499382138252
1782661031572219000,3.952218994140625,0.009390708990395069,-0.007747465744614601,0.012109708972275257
1782661031582290000,3.9622900390625,0.008290611207485199,-0.011735268868505955,-0.0010618665255606174
1782661031592360700,3.972360595703125,0.009416596032679081,-0.008952531963586807,-0.013319332152605057
1782661031602430700,3.9824306640625,0.010681556537747383,-0.014734449796378613,-0.026537051424384117
1782661031612501800,3.992501708984375,0.009096442721784115,-0.025000669062137604,-0.046938199549913406
1782661031622572800,4.00257275390625,0.011478893458843231,-0.02128085121512413,-0.05218272656202316
1782661031632643800,4.012643798828125,0.005549631547182798,-0.023764781653881073,-0.051961686462163925
1782661031642713900,4.0227138671875,0.004037767648696899,-0.020869839936494827,-0.04401138424873352
1782661031652785000,4.032784912109375,-0.0013474100269377232,-0.02588270977139473,-0.03979586809873581
1782661031662856000,4.04285595703125,-0.009637903422117233,-0.015142742544412613,-0.032481517642736435
1782661031672926000,4.052926025390625,-0.020429300144314766,0.008576169610023499,-0.01572943665087223
1782661031682996700,4.062996826171875,-0.02811606042087078,0.0119997039437294,-0.007061841432005167
1782661031693067800,4.07306787109375,-0.03328898549079895,0.015481787733733654,-0.009667744860053062
1782661031703137800,4.0831376953125,-0.038818102329969406,0.01698930561542511,-0.012897639535367489
1782661031713208800,4.093208740234375,-0.038258302956819534,0.012113058008253574,-0.021624552085995674
1782661031723280000,4.10327978515625,-0.03868453949689865,0.014332504011690617,-0.02908611297607422
1782661031733350000,4.113349853515625,-0.03927416354417801,0.010759341530501842,-0.03886151313781738
1782661031743421000,4.1234208984375,-0.03571931645274162,0.004860386252403259,-0.04774070158600807
1782661031753492000,4.133491943359375,-0.03486949950456619,-0.0014089611358940601,-0.044869281351566315
1782661031763562000,4.14356201171875,-0.0371384397149086,-0.01039577554911375,-0.03778205066919327
1782661031773632800,4.1536328125,-0.03682924807071686,-0.006170404143631458,-0.027537934482097626
1782661031783703800,4.163703857421875,-0.03662313520908356,-0.0022281999699771404,-0.012398634105920792
1782661031793773800,4.17377392578125,-0.03875526040792465,-0.0016063519287854433,0.0002838711370714009
1782661031803844900,4.183844970703125,-0.04064701870083809,0.003276330418884754,0.013719574548304081
1782661031813916000,4.193916015625,-0.042189519852399826,0.00905725359916687,0.02143794856965542
1782661031823986000,4.20398583984375,-0.04221370071172714,0.004958390258252621,0.019461771473288536
1782661031834057000,4.214056884765625,-0.04103311896324158,0.0002360733924433589,0.011257370933890343
1782661031844128000,4.2241279296875,-0.03509633243083954,-0.0014237898867577314,0.0025423027109354734
1782661031854199000,4.234198974609375,-0.028712468221783638,-0.0018104808405041695,-0.003141681896522641
1782661031864268800,4.244268798828125,-0.02370852418243885,-0.006411326117813587,-0.017319370061159134
1782661031874339800,4.25433984375,-0.019163839519023895,-0.002729239873588085,-0.022878719493746758
1782661031884411000,4.264410888671875,-0.0125691844150424,-0.000036549288779497147,-0.023210197687149048
1782661031894481000,4.27448095703125,-0.007646065670996904,0.002299042884260416,-0.026561520993709564
1782661031904551700,4.2845517578125,-0.00637016911059618,0.003528362372890115,-0.023322196677327156
1782661031914622700,4.294622802734375,-0.0015469177160412073,0.008558541536331177,-0.01527438871562481
1782661031924693000,4.30469287109375,-0.0002253856509923935,0.01250329427421093,-0.004164086189121008
1782661031934764000,4.314763916015625,0.0027128797955811024,0.011048143729567528,0.0004951139562763274
1782661031944835000,4.3248349609375,0.005093551240861416,0.00939653255045414,0.005921964533627033
1782661031954904800,4.33490478515625,0.006835524924099445,0.006586098112165928,0.010880771093070507
1782661031964975900,4.344975830078125,0.004334626719355583,0.00002248783130198717,0.009772658348083496
1782661031975047000,4.355046875,0.00302887917496264,-0.011228036135435104,0.0005983351729810238
1782661031985117000,4.365116943359375,-0.0017005822155624628,-0.006858498323708773,0.004077736753970385
1782661031995187700,4.375187744140625,-0.006951004266738892,-0.0023931763134896755,0.007106283213943243
1782661032005258800,4.3852587890625,-0.013874269090592861,-0.000002429122105240822,0.002370977308601141
1782661032015328800,4.395328857421875,-0.018082596361637115,0.0002609575167298317,-0.0012274859473109245
1782661032025399800,4.40539990234375,-0.023625900968909264,-0.0003338430542498827,-0.007761593908071518
1782661032035470800,4.415470947265625,-0.027003854513168335,0.0009924110490828753,-0.013436790555715561
1782661032045540900,4.425540771484375,-0.028699105605483055,0.005040850955992937,-0.01701490394771099
1782661032055612000,4.43561181640625,-0.028596840798854828,0.006468571722507477,-0.019075658172369003
1782661032065683000,4.445682861328125,-0.02972216159105301,0.0032198168337345123,-0.01556835975497961
1782661032075754000,4.45575390625,-0.0237103421241045,-0.0021810736507177353,-0.013357137329876423
1782661032085823700,4.46582373046875,-0.01833467371761799,-0.010676013305783272,-0.013447387143969536
1782661032095894800,4.475894775390625,-0.011930303648114204,-0.009240569546818733,-0.003037090878933668
1782661032105965800,4.4859658203125,-0.0068577867932617664,-0.0007048030383884907,0.012623192742466927
1782661032116035800,4.496035888671875,-0.005276934243738651,0.000962868332862854,0.022010302171111107
1782661032126106600,4.506106689453125,-0.004509080201387405,-0.004615504760295153,0.025153055787086487
1782661032136177700,4.516177734375,0.001088351709768176,-0.007164415903389454,0.030084963887929916
1782661032146248000,4.526248046875,0.0017249123193323612,-0.0006488417275249958,0.0244081262499094
1782661032156319000,4.536319091796875,0.005510062910616398,0.004611168056726456,0.016441812738776207
1782661032166390000,4.54639013671875,0.004960138350725174,0.0038002985529601574,0.0075241937302052975
1782661032176459800,4.556459716796875,0.007242200896143913,0.0008905288996174932,-0.00042401018436066806
1782661032186530800,4.56653076171875,0.00971412193030119,-0.0023273606784641743,-0.005985901691019535
1782661032196601900,4.576601806640625,0.008699457161128521,0.00024232349824160337,-0.0036905230954289436
1782661032206672000,4.586671875,0.011659215204417706,0.0012902750167995691,-0.0009259297512471676
1782661032216742700,4.59674267578125,0.012087451294064522,0.002185629680752754,0.0031031668186187744
1782661032226813700,4.606813720703125,0.012211044318974018,0.004970809910446405,0.004092245828360319
1782661032236884000,4.616884033203125,0.008049588650465012,0.0036498820409178734,-0.0019225035794079304
1782661032246955000,4.626955078125,0.006393030285835266,0.005732927471399307,-0.015030177310109138
1782661032257026000,4.637026123046875,0.00762074813246727,0.002776019275188446,-0.02682744897902012
1782661032267095800,4.647095703125,0.004226100165396929,0.0025376100093126297,-0.03800586983561516
1782661032277166800,4.657166748046875,0.0035547176375985146,0.005595184862613678,-0.04287572577595711
1782661032287238000,4.66723779296875,0.0007989958976395428,-0.002250581979751587,-0.044917456805706024
1782661032297308000,4.677307861328125,0.0006306840805336833,-0.0024154316633939743,-0.04443090036511421
1782661032307378700,4.687378662109375,0.002326836809515953,0.0023280710447579622,-0.03274981677532196
1782661032317449700,4.69744970703125,-0.0023547341115772724,0.0074309539049863815,-0.019319232553243637
1782661032327520000,4.70752001953125,-0.009276612661778927,0.01726231910288334,-0.0004846098890993744
1782661032337591000,4.717591064453125,-0.013260701671242714,0.023664027452468872,0.018360449001193047
1782661032347661800,4.727661865234375,-0.014926855452358723,0.020547326654195786,0.025381308048963547
1782661032357731800,4.73773193359375,-0.010501214303076267,0.006726585794240236,0.01979745738208294
1782661032367803000,4.747802978515625,-0.010928192175924778,0.005801062099635601,0.02014247514307499
1782661032377874000,4.7578740234375,-0.007348370738327503,0.00859631597995758,0.018839124590158463
1782661032387945000,4.767945068359375,-0.013274647295475006,0.011676494032144547,0.017060447484254837
1782661032398014700,4.7780146484375,-0.01221151277422905,0.007330747786909342,0.009782827459275723
1782661032408085200,4.788085205078125,-0.012271402403712273,0.008620742708444595,0.008373639546334743
1782661032418155500,4.798155517578125,-0.009836474433541298,0.0070097967982292175,0.008783766068518162
1782661032428226600,4.8082265625,-0.007047261111438274,0.008152768015861511,0.00612639868631959
1782661032438297600,4.818297607421875,-0.0025185560807585716,0.008635332807898521,-0.004337960388511419
1782661032448368400,4.828368408203125,0.0018810960464179516,0.013255096971988678,-0.004191016778349876
1782661032458438400,4.8384384765625,0.004374613985419273,0.014258576557040215,-0.0046634613536298275
1782661032468509400,4.848509521484375,0.004339104983955622,0.013506578281521797,-0.00773828849196434
1782661032478580500,4.85858056640625,0.008302954025566578,0.01340218260884285,-0.00803576409816742
1782661032488650200,4.868650146484375,0.009684949181973934,0.010562184266746044,-0.007535053417086601
1782661032498721300,4.87872119140625,0.011755291372537613,0.01059920247644186,0.0021886799950152636
1782661032508792300,4.888792236328125,0.01486861240118742,0.013979218900203705,0.00998129416257143
1782661032518862600,4.898862548828125,0.018712885677814484,0.01211234275251627,0.01506819762289524
1782661032528933400,4.908933349609375,0.024459706619381905,0.008625343441963196,0.01721329800784588
1782661032539004400,4.91900439453125,0.024409905076026917,-0.0005460502579808235,0.01849188096821308
1782661032549074400,4.929074462890625,0.02382686734199524,-0.0020031421445310116,0.02351687103509903
1782661032559145500,4.9391455078125,0.019994312897324562,0.004683522507548332,0.03320332244038582
1782661032569216500,4.949216552734375,0.018677564337849617,0.016375601291656494,0.04691989719867706
1782661032579286300,4.959286376953125,0.02008610963821411,0.020646512508392334,0.06476813554763794
1782661032589357300,4.969357421875,0.019721748307347298,0.019642919301986694,0.08674430102109909
1782661032599428400,4.979428466796875,0.01756458729505539,0.015562957152724266,0.10981952399015427
1782661032609498600,4.98949853515625,0.014729976654052734,-0.010853511281311512,0.11940588802099228
1782661032619569400,4.9995693359375,0.016360897570848465,-0.025171730667352676,0.11531633883714676
1782661032629640400,5.009640380859375,0.017515577375888824,-0.021730545908212662,0.11219143122434616
1782661032639710500,5.01971044921875,0.011032911948859692,-0.03202419355511665,0.09825164824724197
1782661032649781500,5.029781494140625,0.005596585106104612,-0.038024675101041794,0.07229826599359512
1782661032659852500,5.0398525390625,0.009789199568331242,-0.0467824824154377,0.04546106234192848
1782661032669922300,5.04992236328125,0.011184043250977993,-0.05562802031636238,0.016501571983098984
1782661032679993300,5.059993408203125,0.008992527611553669,-0.06332907825708389,-0.0038377870805561543
1782661032690064400,5.070064453125,0.006077680736780167,-0.06082901731133461,-0.009854480624198914
1782661032700134400,5.080134521484375,0.0006658713100478053,-0.0504956878721714,0.0002863049739971757
1782661032710205400,5.090205322265625,0.0024085878394544125,-0.025036364793777466,0.016933409497141838
1782661032720276500,5.1002763671875,0.002074894029647112,-0.009804682806134224,0.021082080900669098
1782661032730346500,5.110346435546875,-0.0014896825887262821,-0.007756292354315519,0.020890556275844574
1782661032740417500,5.12041748046875,-0.0029195339884608984,-0.0006171560380607843,0.01893766038119793
1782661032750488300,5.13048828125,-0.00994209572672844,0.0051098973490297794,0.011607978492975235
1782661032760558300,5.140558349609375,-0.014568006619811058,0.010590950027108192,0.0032168906182050705
1782661032770629400,5.15062939453125,-0.019769839942455292,0.009042974561452866,-0.004949953407049179
1782661032780700400,5.160700439453125,-0.02084122970700264,0.012336505576968193,-0.020227709785103798
1782661032790770200,5.170770263671875,-0.021533844992518425,0.017395518720149994,-0.03503289073705673
1782661032800841200,5.18084130859375,-0.023043856024742126,0.008785786107182503,-0.05247073620557785
1782661032810912300,5.190912353515625,-0.021610066294670105,0.00105120032094419,-0.06430613994598389
1782661032820982500,5.200982421875,-0.02206253819167614,-0.0035584652796387672,-0.06832724064588547
1782661032831053600,5.211053466796875,-0.02734612114727497,-0.0011290900874882936,-0.05961986258625984
1782661032841124400,5.221124267578125,-0.034402165561914444,-0.003251363057643175,-0.05347488448023796
1782661032851194400,5.2311943359375,-0.03621864318847656,-0.004703165031969547,-0.04719413071870804
1782661032861265400,5.241265380859375,-0.03866023197770119,-0.004718877840787172,-0.04243719205260277
1782661032871336400,5.25133642578125,-0.04096411168575287,-0.005618649534881115,-0.037215184420347214
1782661032881406200,5.26140625,-0.04093455150723457,-0.012835017405450344,-0.03616776317358017
1782661032891477200,5.271477294921875,-0.03936377167701721,-0.021069202572107315,-0.030778447166085243
1782661032901548300,5.28154833984375,-0.032994553446769714,-0.029139645397663116,-0.024757839739322662
1782661032911618600,5.29161865234375,-0.02956211380660534,-0.03917736932635307,-0.013606047257781029
1782661032921689600,5.301689697265625,-0.029824966564774513,-0.05201913043856621,-0.001132599776610732
1782661032931760400,5.311760498046875,-0.03500838205218315,-0.042378250509500504,0.01863762177526951
1782661032941830400,5.321830322265625,-0.03478201478719711,-0.03579917922616005,0.021812641993165016
1782661032951901400,5.3319013671875,-0.029717277735471725,-0.048969198018312454,0.02140522189438343
1782661032961972500,5.341972412109375,-0.02601708471775055,-0.06511514633893967,0.00807290431112051
1782661032972042200,5.352042236328125,-0.022168854251503944,-0.07553514838218689,-0.005709989462047815
1782661032982113300,5.36211328125,-0.016102705150842667,-0.08906959742307663,-0.020862843841314316
1782661032992184300,5.372184326171875,-0.010556689463555813,-0.09927840530872345,-0.026905633509159088
1782661033002254600,5.382254638671875,-0.00705010537058115,-0.0909578949213028,-0.012198593467473984
1782661033012325400,5.392325439453125,-0.007080006413161755,-0.06514421105384827,0.015624385327100754
1782661033022396400,5.402396484375,-0.010775142349302769,-0.046184368431568146,0.032959163188934326
1782661033032466400,5.412466552734375,-0.0143989697098732,-0.03304395452141762,0.04303687810897827
1782661033042537500,5.422537353515625,-0.01723390445113182,-0.031213562935590744,0.03869539126753807
1782661033052608500,5.4326083984375,-0.02111412025988102,-0.026353105902671814,0.028202710673213005
1782661033062678300,5.44267822265625,-0.025348281487822533,-0.03744730353355408,0.012567292898893356
1782661033072749300,5.452749267578125,-0.03285471349954605,-0.04912343993782997,0.0037257191725075245
1782661033082820400,5.4628203125,-0.030285296961665154,-0.03818291053175926,0.000288643641397357
1782661033092890600,5.472890625,-0.024378929287195206,-0.04477865248918533,-0.009832187555730343
1782661033102961400,5.48296142578125,-0.019066987559199333,-0.06924937665462494,-0.032136429101228714
1782661033113032400,5.493032470703125,-0.014217785559594631,-0.0835849791765213,-0.055581096559762955
1782661033123102500,5.5031025390625,-0.009424361400306225,-0.10526096820831299,-0.09556607156991959
1782661033133173500,5.513173583984375,-0.010375410318374634,-0.1137998178601265,-0.11900444328784943
1782661033143244500,5.52324462890625,-0.014671089127659798,-0.11246024817228317,-0.1241840273141861
1782661033153314300,5.533314208984375,-0.021517829969525337,-0.0903766080737114,-0.1153823584318161
1782661033163385300,5.54338525390625,-0.02352106012403965,-0.07484877854585648,-0.09856929630041122
1782661033173456400,5.553456298828125,-0.030264366418123245,-0.051060646772384644,-0.07791644334793091
1782661033183526400,5.5635263671875,-0.03077356331050396,-0.033790044486522675,-0.06296944618225098
1782661033193597400,5.573597412109375,-0.03690521791577339,-0.03552651032805443,-0.05750499665737152
1782661033203668500,5.58366845703125,-0.03466895967721939,-0.03193763270974159,-0.054997894912958145
1782661033213738500,5.593738525390625,-0.030498787760734558,-0.04149366170167923,-0.053933825343847275
1782661033223809500,5.6038095703125,-0.023243272677063942,-0.038041405379772186,-0.05657248571515083
1782661033233880300,5.61388037109375,-0.013788307085633278,-0.04326703026890755,-0.051416125148534775
1782661033243950300,5.623950439453125,-0.00028528121765702963,-0.04873769357800484,-0.04987841472029686
1782661033254021400,5.634021484375,0.008569370023906231,-0.03574163466691971,-0.03903104364871979
1782661033264092400,5.644092529296875,0.00447156373411417,-0.017116021364927292,-0.02116842195391655
1782661033274162200,5.654162109375,-0.002343500731512904,-0.00655565969645977,0.006204647943377495
1782661033284233200,5.664233154296875,-0.009168916381895542,0.0059758443385362625,0.03829307481646538
1782661033294304300,5.67430419921875,-0.005821095779538155,0.015268215909600258,0.06220730021595955
1782661033304374500,5.68437451171875,-0.0006044955225661397,0.035347118973731995,0.09372340887784958
1782661033314445600,5.694445556640625,0.0057095494121313095,0.02091831900179386,0.0935317873954773
1782661033324517400,5.704517333984375,0.009447029791772366,0.018472470343112946,0.08581048995256424
1782661033334587400,5.71458740234375,0.010498031042516232,0.02284417673945427,0.06872764229774475
1782661033344658400,5.724658447265625,0.02182845026254654,0.059829626232385635,0.04322734475135803
1782661033354729500,5.7347294921875,0.02866007387638092,0.10281836241483688,0.01063988171517849
1782661033364799500,5.744799560546875,0.032780785113573074,0.08741969615221024,-0.042229194194078445
1782661033374870300,5.754870361328125,0.02440941333770752,0.02344781905412674,-0.09406877309083939
1782661033384941300,5.76494140625,0.022700728848576546,0.039182040840387344,-0.07529189437627792
1782661033395011300,5.77501123046875,0.006613800302147865,0.06329448521137238,-0.011564972810447216
1782661033405082000,5.78508203125,-0.02668796479701996,0.05157551169395447,0.06570637971162796
1782661033415153200,5.795153076171875,-0.078279048204422,0.03940284624695778,0.15674364566802979
1782661033425223200,5.80522314453125,-0.11919426172971725,-0.0053451829589903355,0.2328922152519226
1782661033435294200,5.815294189453125,-0.12559829652309418,0.02119976282119751,0.31320539116859436
1782661033445365200,5.825365234375,-0.11790549010038376,-0.07694704085588455,0.3004067838191986
