time,seconds_elapsed,z,y,x
1782812058358228700,0.073228759765625,-0.0008001996902748942,-0.0004947828128933907,-0.0017197740962728858
1782812058368299800,0.0832998046875,-0.0010098417988047004,0.0004756749840453267,-0.0007524464745074511
1782812058378370800,0.093370849609375,0.0015651686117053032,0.0012661011423915625,-0.00198708800598979
1782812058388441900,0.10344189453125,0.0003488917136564851,0.0010422897757962346,-0.0016243658028542995
1782812058398514000,0.113513916015625,0.0007957702036947012,-0.0004605320282280445,0.0001226678432431072
1782812058408585000,0.1235849609375,-0.0018716402119025588,0.0003814813680946827,-0.00013654647045768797
1782812058418655700,0.13365576171875,0.0012748846784234047,0.00023820321075618267,-0.0003767636080738157
1782812058428726800,0.143726806640625,-0.0016014102147892118,-0.0018203945364803076,0.0007555323536507785
1782812058438797600,0.153797607421875,-0.0013609268935397267,0.002504579024389386,-0.0018615559674799442
1782812058448868600,0.16386865234375,-0.0031317616812884808,0.001206067157909274,0.0005019877571612597
1782812058458939600,0.173939697265625,0.0020486190915107727,-0.00014948192983865738,-0.0007784600602462888
1782812058469010700,0.1840107421875,-0.0012401767307892442,0.000052578048780560493,-0.00003200236824341118
1782812058479081700,0.194081787109375,-0.00039409042801707983,-0.000612679636105895,0.0016609689919278026
1782812058489152800,0.20415283203125,0.00026350218104198575,-0.0006277854554355145,0.0007896091556176543
1782812058499223600,0.2142236328125,0.0009905451443046331,-0.000903689069673419,-0.0003891059313900769
1782812058509294600,0.224294677734375,-0.002338126301765442,0.0014512712368741632,-0.0007792310789227486
1782812058519365600,0.23436572265625,0.00003475032281130552,-0.00019616028293967247,0.0012684734538197517
1782812058529436700,0.244436767578125,-0.0008296080632135272,-0.0025797239504754543,-0.00026339085889048874
1782812058539507700,0.2545078125,0.00003964768256992102,0.0010696055833250284,-0.0011646045604720712
1782812058549578800,0.264578857421875,-0.0003427324118092656,-0.0006243973039090633,0.0002517515968065709
1782812058559649500,0.2746494140625,0.0002426304272376001,0.0010496657341718674,0.00031513485009782016
1782812058569720600,0.284720458984375,-0.0026417402550578117,-0.0007251428905874491,-0.00014460533566307276
1782812058579791600,0.29479150390625,0.0000714882044121623,0.0010056454921141267,0.0003608626138884574
1782812058589862700,0.304862548828125,-0.001422586035914719,-0.0005223981570452452,0.00012370478361845016
1782812058599933700,0.31493359375,-0.002549635712057352,-0.001206297893077135,0.00033942083246074617
1782812058610005500,0.325005615234375,-0.0005829615984112024,0.002444494515657425,-0.00013204154674895108
1782812058620076500,0.33507666015625,0.002437862101942301,-0.0001339782029390335,-0.00045028928434476256
1782812058630147600,0.345147705078125,-0.00031336501706391573,0.0014824133832007647,-0.0006561833433806896
1782812058640218600,0.355218505859375,-0.0006558474851772189,-0.001855060225352645,0.0023196330294013023
1782812058650289400,0.365289306640625,-0.000622475752606988,0.00043227255810052156,-0.0007747465278953314
1782812058660360400,0.3753603515625,-0.0010493805166333914,0.0011380101786926389,0.0021794980857521296
1782812058670431500,0.385431396484375,-0.002381577156484127,0.0015966660575941205,-0.0014314062427729368
1782812058680502500,0.39550244140625,0.0001910365535877645,0.0022214436903595924,0.0006549141253344715
1782812058690573600,0.405573486328125,0.0013038889737799764,0.0014562306459993124,-0.0006616648752242327
1782812058700644600,0.41564453125,0.0007875020382925868,-0.002465540310367942,0.00032690048101358116
1782812058710715600,0.425715576171875,0.0003481172607280314,-0.0009183143265545368,-0.0007590044406242669
1782812058720786700,0.43578662109375,-0.00039090996142476797,-0.00036863796412944794,0.0022559603676199913
1782812058730857700,0.445857666015625,-0.0003397013060748577,-0.00026403856463730335,-0.0002918084792327136
1782812058740928800,0.4559287109375,-0.002425489015877247,-0.0004960000514984131,0.0010983615648001432
1782812058750999800,0.465999755859375,-0.0014214013935998082,0.0010066975373774767,-0.0012858895352110267
1782812058761070600,0.476070556640625,-0.0003372285282239318,-0.00003912579268217087,-0.0007450014818459749
1782812058771141600,0.4861416015625,-0.0002830271841958165,-0.0005039460957050323,0.0011120438575744629
1782812058781212700,0.496212646484375,0.0001534648472443223,-0.0007516201585531235,0.0006971234106458724
1782812058791283700,0.50628369140625,0.0006035289843566716,0.001447116257622838,0.00016954838065430522
1782812058801354800,0.516354736328125,0.0006605206290259957,0.0000473586842417717,0.0009732904145494103
1782812058811426600,0.526426513671875,-0.0003180895000696182,-0.0014814101159572601,0.00005387980490922928
1782812058821497600,0.53649755859375,0.0003959039459004998,-0.0002877814695239067,0.0003249896108172834
1782812058831568400,0.546568359375,0.002374450210481882,-0.000820486806333065,-0.0000498906010761857
1782812058841639400,0.556639404296875,-0.00046181620564311743,-0.0020066588185727596,0.00028859719168394804
1782812058851710500,0.56671044921875,0.002504815813153982,0.001526692882180214,0.000354465504642576
1782812058861781500,0.576781494140625,-0.0013141570379957557,-0.0016291530337184668,-0.0007603337289765477
1782812058871852500,0.5868525390625,-0.0008381673833355308,0.0014799325726926327,-0.0004289091157261282
1782812058881923600,0.596923583984375,-0.0010126045672222972,0.00010547507554292679,0.0005143825546838343
1782812058891994400,0.606994384765625,-0.0006497596623376012,-0.0024233809672296047,0.0001887551334220916
1782812058902065400,0.6170654296875,0.0003545183571986854,-0.0006230841390788555,-0.00024853594368323684
1782812058912136400,0.627136474609375,0.001241321791894734,-0.000990800792351365,-0.0011397416237741709
1782812058922207500,0.63720751953125,-0.001512652961537242,0.0009109625825658441,-0.0002587679773569107
1782812058932278500,0.647278564453125,0.0006555314175784588,-0.00012199161574244499,-0.001646334072574973
1782812058942349600,0.657349609375,-0.000035292585380375385,-0.00011666538193821907,-0.000970956461969763
1782812058952420400,0.66742041015625,0.0008095955708995461,-0.00023250351659953594,-0.0008109401678666472
1782812058962491400,0.677491455078125,-0.002554242964833975,0.000847408315166831,0.0015435605309903622
1782812058972562400,0.6875625,-0.001234353519976139,0.0008594311075285077,-0.0014098226092755795
1782812058982633500,0.697633544921875,-0.0025480908807367086,0.0003997695166617632,0.00030179109307937324
1782812058992704500,0.70770458984375,0.00005950848571956158,-0.0015168755780905485,0.0011362003860995173
1782812059002775600,0.717775634765625,-0.00002597901038825512,0.0012741172686219215,0.0019841508474200964
1782812059012847600,0.72784765625,-0.000982822384685278,-0.0005141035653650761,-0.0026299492456018925
1782812059022918400,0.73791845703125,0.001102432725019753,0.00029789411928504705,0.0009834276279434562
1782812059032989400,0.747989501953125,-0.00001966103445738554,-0.0004159605596214533,-0.001744370791129768
1782812059043060500,0.758060546875,0.0011497329687699676,0.0016780830919742584,0.000614390941336751
1782812059053131500,0.768131591796875,0.000364773441106081,0.0002505762968212366,-0.0008345932001248002
1782812059063202600,0.77820263671875,-0.0005204612389206886,-0.0012535771820694208,-0.000768546829931438
1782812059073273600,0.788273681640625,-0.000359554891474545,-0.0004498769994825125,0.001031958032399416
1782812059083344400,0.798344482421875,0.000690795888658613,0.0008297718595713377,0.0016335661057382822
1782812059093415400,0.80841552734375,-0.0015221891226246953,0.00026427325792610645,-0.001037395908497274
1782812059103486500,0.818486572265625,-0.0002907434245571494,-0.0005916666705161333,0.0006814082153141499
1782812059113557500,0.8285576171875,-0.00016682140994817019,-0.001271535875275731,-0.00044871625141240656
1782812059123628500,0.838628662109375,-0.0006706914864480495,-0.00088085001334548,0.0031177890487015247
1782812059133699600,0.848699462890625,0.00020945211872458458,0.0003766310401260853,0.00003056193236261606
1782812059143770400,0.858770263671875,-0.0020539683755487204,-0.0013586846180260181,0.0008103355066850781
1782812059153841400,0.86884130859375,-0.00054114346858114,0.0017145727761089802,0.0005613182438537478
1782812059163912400,0.878912353515625,-0.000169632607139647,-0.0002838633954524994,0.0017248531803488731
1782812059173983500,0.8889833984375,0.0007286462932825089,-0.0015815566293895245,0.0002510771155357361
1782812059184054500,0.899054443359375,-0.0008439503144472837,-0.002086492022499442,0.000551481731235981
1782812059194125600,0.90912548828125,-0.00023170432541519403,0.001515460666269064,-0.0003497153229545802
1782812059204196600,0.919196533203125,-0.0008202629396691918,0.00017136323731392622,-0.0005465229041874409
1782812059214267400,0.929267333984375,0.0002311033895239234,-0.002131038112565875,0.00033572682878002524
1782812059224338400,0.93933837890625,0.0001717149280011654,0.0005712712882086635,-0.002999616088345647
1782812059234409500,0.949409423828125,0.0012068948708474636,-0.0009473776444792747,-0.0007670343038626015
1782812059244481500,0.9594814453125,-0.001784900319762528,-0.0004349853843450546,-0.0005563782760873437
1782812059254552600,0.969552490234375,0.0011714326683431864,-0.0007976812776178122,0.00033874381915666163
1782812059264623600,0.97962353515625,0.00035038008354604244,-0.0015686664264649153,-0.0007214605575427413
1782812059274694700,0.989694580078125,-0.0000237335916608572,0.0003562159836292267,-0.0007677482208237052
1782812059284765400,0.999765380859375,-0.001728423056192696,-0.0024377063382416964,0.002032565651461482
1782812059294836500,1.00983642578125,-0.00051282555796206,0.0005710615077987313,0.0011712448904290795
1782812059304907500,1.019907470703125,0.0005766736576333642,-0.000029747607186436653,0.0007539275102317333
1782812059314978600,1.029978515625,-0.00023032299941405654,-0.0008339851628988981,-0.001685763825662434
1782812059325049600,1.040049560546875,0.0004120314260944724,-0.000208941288292408,0.0019870013929903507
1782812059335120600,1.05012060546875,0.00004013720899820328,-0.0004634330980479717,0.0011251622345298529
1782812059345191400,1.06019140625,-0.0005673298728652298,-0.00020697060972452164,-0.0027265676762908697
1782812059355262500,1.070262451171875,0.0003427043557167053,0.0007308714557439089,-0.001247219741344452
1782812059365333500,1.08033349609375,-0.0027087456546723843,-0.0005511743947863579,0.0016401795437559485
1782812059375404500,1.090404541015625,-0.0007240911363624036,-0.000099618686363101,0.0005348533159121871
1782812059385475600,1.1004755859375,-0.0008607113850302994,0.0003970608813688159,0.0012501784367486835
1782812059395546600,1.110546630859375,-0.0024392236955463886,0.0007794129196554422,0.0023213312961161137
1782812059405617400,1.120617431640625,0.0003360564587637782,0.00007047946564853191,0.0011367572005838156
1782812059415688400,1.1306884765625,0.0014808082487434149,-0.0007551771122962236,-0.0008255518041551113
1782812059425759700,1.140759765625,-0.0015458744019269943,-0.002345883287489414,-0.0005499146063812077
1782812059435830800,1.150830810546875,-0.0008157255360856652,0.0011427418794482946,0.0013390675885602832
1782812059445901800,1.16090185546875,-0.0023941812105476856,0.002402150770649314,-0.0017291601980105042
1782812059455972900,1.170972900390625,-0.001744930981658399,-0.0003237237688153982,0.0011067644227296114
1782812059466045000,1.181044921875,-0.0005441115936264396,-0.0004696650430560112,0.0019403338665142655
1782812059476116000,1.191115966796875,-0.0014509303728118539,0.00014239561278373003,-0.0005494806682690978
1782812059486186800,1.201186767578125,0.00018584844656288624,-0.0006914399564266205,0.001567998668178916
1782812059496257800,1.2112578125,0.0008636413840577006,0.0001815801952034235,0.0008925250731408596
1782812059506328800,1.221328857421875,-0.001803780673071742,0.0001320453593507409,0.0003236738557461649
1782812059516399900,1.23139990234375,-0.0006913607940077782,0.0001257371623069048,-0.0013813684927299619
1782812059526471000,1.241470947265625,-0.0012516898568719625,-0.000846050214022398,0.0030370820313692093
1782812059536542000,1.2515419921875,-0.0006109664682298899,0.0006621999200433493,-0.00029520285897888243
1782812059546612700,1.26161279296875,0.0012543115299195051,0.0012787217274308205,-0.00015272374730557203
1782812059556683800,1.271683837890625,-0.00031538272742182016,-0.0006891253869980574,-0.0009278036886826158
1782812059566754800,1.2817548828125,0.0007165922434069216,-0.0005474451463669538,-0.0029025375843048096
1782812059576825900,1.291825927734375,-0.002631119918078184,-0.000682818004861474,0.0005948969046585262
1782812059586897000,1.30189697265625,-0.00017275603022426367,0.0006639424245804548,0.0009624130907468498
1782812059596968000,1.311968017578125,-0.0012832669308409095,-0.00036927638575434685,-0.000888746464625001
1782812059607038700,1.322038818359375,0.0011327527463436127,0.0017292945412918925,0.000622863881289959
1782812059617109800,1.33210986328125,-0.0007939457427710295,0.00023299839813262224,0.0006166008533909917
1782812059627180800,1.342180908203125,-0.0012810379266738892,-0.000555829843506217,-0.0006705049308948219
1782812059637251800,1.352251953125,-0.0021445113234221935,-0.00007205456495285034,0.00017410042346455157
1782812059647323000,1.362322998046875,0.000977245974354446,-0.0005255909636616707,0.0009669234277680516
1782812059657394000,1.372393798828125,0.0005454508354887366,0.00012550735846161842,-0.0005714980070479214
1782812059667464700,1.382464599609375,-0.00029504287522286177,0.00017424323596060276,-0.0030618198215961456
1782812059677535700,1.39253564453125,0.00012783281272277236,-0.0004929534625262022,-0.00035161356208845973
1782812059687606800,1.402606689453125,0.0013281195424497128,-0.00023436034098267555,-0.00037398410495370626
1782812059697678800,1.412678955078125,-0.0026128024328500032,0.000509199220687151,0.0019075907766819
1782812059707750000,1.42275,-0.0004005145747214556,0.0010740556754171848,-0.0019974024035036564
1782812059717821000,1.432821044921875,0.0001311437226831913,0.0005330819403752685,0.0007733654347248375
1782812059727892000,1.44289208984375,0.00016310164937749505,0.00017941417172551155,0.0005078482790850103
1782812059737962800,1.452962646484375,0.00044278212590143085,0.0007036137394607067,0.0006120149046182632
1782812059748033800,1.46303369140625,-0.0021210431586951017,0.0004998819204047322,-0.0006476602284237742
1782812059758104800,1.473104736328125,0.00037547684041783214,-0.0002886587753891945,0.0007028341060504317
1782812059768175900,1.48317578125,-0.001302314572967589,0.00176543730776757,0.0003473021206445992
1782812059778247000,1.493246826171875,-0.0014516591327264905,0.0003329691244289279,-0.00020828373089898378
1782812059788318000,1.50331787109375,-0.0017408783314749599,0.0020214132964611053,-0.0005574241513386369
1782812059798388700,1.513388671875,-0.0010976886842399836,0.000042329542338848114,-0.00007568925502710044
1782812059808459800,1.523459716796875,0.00019474327564239502,0.0011150508653372526,-0.0029921168461441994
1782812059818530800,1.53353076171875,0.0010838856687769294,0.0024152675177901983,0.00018921185983344913
1782812059828601900,1.543601806640625,-0.00229433411732316,0.0006253569154068828,-0.0004321036103647202
1782812059838673000,1.5536728515625,-0.0006302647525444627,-0.0008809012360870838,0.0005497673992067575
1782812059848744000,1.563743896484375,-0.0002776621840894222,0.00005759671330451965,0.0028171828016638756
1782812059858814700,1.573814697265625,-0.00035565102007240057,0.0004891554126515985,-0.000541316345334053
1782812059868885800,1.5838857421875,-0.0011854920303449035,-0.0002900855615735054,-0.0004020330379717052
1782812059878956800,1.593956787109375,-0.0025372556410729885,0.001544839353300631,0.00006348668830469251
1782812059889027800,1.60402783203125,0.000996492919512093,0.0012020905269309878,-0.0005256045842543244
1782812059899099000,1.614098876953125,0.00019775982946157455,0.00009841029532253742,-0.00013140295050106943
1782812059909170000,1.624169921875,-0.0001377984881401062,0.0019988419953733683,0.001359434681944549
1782812059919240700,1.63424072265625,0.00013904960360378027,0.000201272196136415,-0.0006285521667450666
1782812059929311700,1.644311767578125,-0.0007352662505581975,0.000805277144536376,-0.0027156714349985123
1782812059939382800,1.6543828125,0.0003459618310444057,-0.0007972477469593287,0.001072707585990429
1782812059949454800,1.664454833984375,-0.0021118693985044956,0.0010286153992637992,0.0005603154422715306
1782812059959526000,1.67452587890625,-0.00039809243753552437,-0.00014739762991666794,0.0007390896207652986
1782812059969597000,1.684596923828125,-0.00013763527385890484,-0.002249430865049362,0.0001910110586322844
1782812059979668000,1.69466796875,0.0008261870825663209,0.0007109714206308126,-0.0009096624562516809
1782812059989739000,1.704739013671875,-0.0011008762521669269,0.0018462769221514463,0.001469871960580349
1782812059999809800,1.714809814453125,0.00204413547180593,0.00025310402270406485,0.0012282986426725984
1782812060009880800,1.724880859375,0.0007719433633610606,-0.00008911220356822014,-0.000024718669010326266
1782812060019951900,1.734951904296875,-0.0014909841120243073,0.0005964505253359675,-0.0007324292091652751
1782812060030023000,1.74502294921875,-0.0005423661787062883,0.00028832280077040195,0.00032271520467475057
1782812060040094000,1.755093994140625,0.001131296856328845,-0.0021158854942768812,-0.0007542872335761786
1782812060050165000,1.7651650390625,-0.0005776536418125033,0.0007507412228733301,-0.00131248589605093
1782812060060235800,1.77523583984375,-0.0013851200928911567,0.00040604197420179844,0.0003655868349596858
1782812060070306800,1.785306884765625,-0.002271686214953661,-0.0003015599213540554,-0.0030419277027249336
1782812060080377900,1.7953779296875,-0.0008441426325589418,-0.0017906595021486282,0.0019877548329532146
1782812060090449000,1.805448974609375,0.0007012897403910756,0.0009822237771004438,-0.0007867264794185758
1782812060100520000,1.81552001953125,0.0014368711272254586,0.0014828238636255264,0.0014431353192776442
1782812060110591000,1.825591064453125,0.0010981170926243067,-0.0005028289742767811,0.00043699308298528194
1782812060120661800,1.835661865234375,-0.001287152525037527,0.0009257609490305185,-0.0004534852341748774
1782812060130732800,1.84573291015625,-0.00007621315307915211,-0.00028890674002468586,0.0002772861625999212
1782812060140803800,1.855803955078125,0.000009617418982088566,-0.00016321265138685703,0.0015840304549783468
1782812060150875000,1.865875,-0.0014524580910801888,0.00012627290561795235,-0.003184359520673752
1782812060160946000,1.87594580078125,0.0009785308502614498,-0.0013247134629637003,-0.00006120075704529881
1782812060171017000,1.886016845703125,-0.0010369495721533895,0.001014607260003686,-0.0022918644826859236
1782812060181087700,1.896087646484375,-0.00004386284854263067,0.0032484473194926977,-0.0011750204721465707
1782812060191159800,1.906159912109375,-0.0015035414835438132,-0.0005420299712568521,0.00014377693878486753
1782812060201230800,1.91623095703125,0.0004672019858844578,-0.0007260609418153763,-0.0019098479533568025
1782812060211302000,1.926302001953125,-0.00023267674259841442,-0.0020741531625390053,-0.0011471186298877
1782812060221373000,1.936373046875,-0.0015161698684096336,0.002477270318195224,-0.0010304158786311746
1782812060231444000,1.94644384765625,-0.00040936016011983156,0.0011432928731665015,0.0005376533372327685
1782812060241515000,1.956514892578125,0.00026629504282027483,-0.0014556043315678835,0.0013228957541286945
1782812060251585800,1.966585693359375,0.0008154388633556664,-0.0009948774240911007,-0.0008342646760866046
1782812060261656800,1.97665673828125,-0.0010659948457032442,0.00015546916984021664,-0.00044607982272282243
1782812060271727900,1.986727783203125,0.0021441795397549868,-0.00007888907566666603,-0.0019973712041974068
1782812060281799000,1.996798828125,-0.0003870241343975067,-0.00009274575859308243,-0.0003864630125463009
1782812060291870000,2.006869873046875,-0.0011337745236232877,0.0028633628971874714,-0.0019265690352767706
1782812060301941000,2.01694091796875,-0.0021244450472295284,0.0012048298958688974,-0.0009548641392029822
1782812060312011800,2.02701171875,-0.0010168362641707063,0.0013057637261226773,-0.0006251648301258683
1782812060322082800,2.037082763671875,-0.0010920590721070766,0.001593276858329773,0.0001810515532270074
1782812060332153900,2.04715380859375,-0.00007979152724146843,-0.00021927058696746826,0.0005301919300109148
1782812060342225000,2.057224853515625,-0.0024569483939558268,-0.000702529912814498,-0.0009071944514289498
1782812060352296000,2.0672958984375,0.0007449702243320644,0.0008729960536584258,0.001085116295143962
1782812060362367000,2.077366943359375,0.001308933598920703,0.00043635768815875053,0.00312431319616735
1782812060372437800,2.087437744140625,-0.00048816739581525326,0.0014693979173898697,-0.0013636460062116385
1782812060382508800,2.0975087890625,-0.0005969699705019593,-0.000006127171218395233,0.0003528983215801418
1782812060392579800,2.107579833984375,-0.0010835295543074608,0.0008735149167478085,-0.0004114289185963571
1782812060402651000,2.11765087890625,-0.0018663301598280668,-0.0014330660924315453,0.00017644732724875212
1782812060412722000,2.127721923828125,0.0013374526752159,-0.0003241256345063448,-0.0012632575817406178
1782812060422792000,2.1377919921875,-0.0010848785750567913,0.00353867094963789,-0.0028145895339548588
1782812060432863000,2.147863037109375,0.0005827929708175361,0.0008382254745811224,-0.0003599538467824459
1782812060442934000,2.15793408203125,0.0005772841395810246,0.00012839166447520256,-0.001887530437670648
1782812060453006000,2.168006103515625,0.00028913008281961083,0.00041308358777314425,-0.0021232201252132654
1782812060463077000,2.1780771484375,0.000014947494491934776,-0.0004993760958313942,-0.0022003951016813517
1782812060473148000,2.18814794921875,-0.00030170241370797157,0.001003978424705565,0.00016475818119943142
1782812060483219000,2.198218994140625,-0.001537639764137566,0.0006984156789258122,0.00012612593127414584
1782812060493290000,2.2082900390625,0.000494352076202631,0.0020060278475284576,0.0008369236020371318
1782812060503361000,2.218361083984375,-0.0004827537341043353,0.00277686957269907,-0.00009212968870997429
1782812060513432000,2.22843212890625,-0.0003935379208996892,0.002238112036138773,-0.0015611292328685522
1782812060523503000,2.238503173828125,0.0008785325917415321,0.00016570603474974632,-0.00008984538726508617
1782812060533574000,2.248573974609375,0.0024021270219236612,-0.0006313782650977373,-0.0009439211571589112
1782812060543645000,2.25864501953125,-0.0008663807529956102,0.00006643775850534439,0.0027786605060100555
1782812060553716000,2.268716064453125,-0.0004911412252113223,-0.0008257213048636913,-0.000033104908652603626
1782812060563787000,2.278787109375,0.0007793582044541836,0.0001870938576757908,0.0007802927866578102
1782812060573858000,2.288858154296875,0.001122373272664845,0.000013455748558044434,0.0000748214079067111
1782812060583929000,2.29892919921875,-0.000034853583201766014,-0.000902113039046526,0.0002692578127607703
1782812060594000000,2.308999755859375,-0.00037680345121771097,0.0012326767900958657,0.0002458219532854855
1782812060604071000,2.31907080078125,-0.0010180759709328413,0.0008497210219502449,-0.0014267325168475509
1782812060614142000,2.329141845703125,-0.000978927593678236,0.002540828427299857,0.0009365566656924784
1782812060624213000,2.339212890625,-0.00110115937422961,-0.0026857194025069475,0.0031295577064156532
1782812060634284000,2.349283935546875,0.00007382722105830908,-0.0003192343283444643,0.000706613645888865
1782812060644355000,2.35935498046875,-0.0024558603763580322,0.00004146271385252476,-0.000016103265807032585
1782812060654425900,2.36942578125,0.0003465838963165879,0.0004238926339894533,0.00030507397605106235
1782812060664497000,2.379496826171875,0.0011560017010197043,0.0006334329955279827,-0.0002153458190150559
1782812060674568000,2.38956787109375,-0.0010152736213058233,0.0008028100710362196,0.0007588384905830026
1782812060684639000,2.399638916015625,0.000020066974684596062,0.00031645968556404114,0.0013186245923861861
1782812060694710000,2.4097099609375,-0.0009969943203032017,0.0001444194931536913,0.0008464461425319314
1782812060704781000,2.419781005859375,0.002889088587835431,0.0012960807653144002,0.0015473644016310573
1782812060714851800,2.429851806640625,-0.0005378670757636428,0.0009876867989078164,0.0006522759795188904
1782812060724924000,2.439923828125,0.0009517258149571717,0.00016535422764718533,-0.000002294371370226145
1782812060734995000,2.449994873046875,-0.0008783985394984484,0.001283082878217101,-0.0010425250511616468
1782812060745066000,2.46006591796875,-0.0018071969971060753,0.0003000057768076658,-0.0008196206181310117
1782812060755137000,2.470136962890625,-0.0003046415513381362,-0.00028961803764104843,0.00002646568464115262
1782812060765208000,2.4802080078125,-0.0005255350843071938,0.00005082204006612301,-0.0018409830518066883
1782812060775279000,2.490279052734375,-0.0013662951532751322,0.00018717581406235695,-0.002160828560590744
1782812060785350000,2.500349853515625,-0.002149404026567936,-0.00032708351500332355,-0.0011326349340379238
1782812060795421000,2.5104208984375,0.00020989024778828025,-0.00012734648771584034,-0.002166474238038063
1782812060805492000,2.520491943359375,-0.001166601781733334,-0.0007847372908145189,0.00030074117239564657
1782812060815563000,2.53056298828125,-0.0005466177826747298,0.0002791956067085266,0.00091220298781991
1782812060825634000,2.540634033203125,0.0005231095710769296,0.0014438028447329998,-0.0009946890641003847
1782812060835705000,2.550705078125,-0.0014319170732051134,0.001108777243643999,-0.0021457073744386435
1782812060845776000,2.56077587890625,0.0012105662608519197,-0.00031663430854678154,0.00006461003795266151
1782812060855847000,2.570846923828125,0.0010976481717079878,0.00122293911408633,0.0008055014186538756
1782812060865918000,2.58091796875,-0.0003027096390724182,0.000261971028521657,-0.0029139164835214615
1782812060875989000,2.590989013671875,0.0012672238517552614,-0.0010693431831896305,-0.00037832092493772507
1782812060886060000,2.60106005859375,-0.0013934116577729583,0.0010217789094895124,-0.0009377938695251942
1782812060896131000,2.611131103515625,0.0003128757234662771,0.0007514681201428175,-0.001653651474043727
1782812060906201900,2.621201904296875,0.000005064881406724453,0.0009011036017909646,-0.0008149578934535384
1782812060916273000,2.63127294921875,0.002165953628718853,0.0004009619588032365,0.0013632415793836117
1782812060926344000,2.641343994140625,0.002786503406241536,0.001051932806149125,0.0002631363458931446
1782812060936415000,2.6514150390625,-0.0019419391173869371,0.00011450005695223808,-0.00028840432059951127
1782812060946486000,2.661486083984375,-0.001141505897976458,-0.00028253020718693733,0.00009278202196583152
1782812060956557000,2.67155712890625,0.0005924783181399107,-0.0008929267060011625,0.0013697678223252296
1782812060966627800,2.6816279296875,-0.0004996751667931676,0.001223479281179607,-0.0009500927990302444
1782812060976699000,2.691698974609375,0.0004747755010612309,0.0007947103586047888,-0.000821195833850652
1782812060986770000,2.70177001953125,0.0007655072840861976,0.0015378035604953766,0.0005513151409104466
1782812060996842000,2.711842041015625,-0.000831057783216238,-0.0011940670665353537,-0.0009395224042236805
1782812061006913000,2.7219130859375,0.00035565620055422187,-0.0013278075493872166,-0.001870278618298471
1782812061016984000,2.731984130859375,-0.0019128243438899517,0.00015264376997947693,-0.0006321750115603209
1782812061027055000,2.74205517578125,-0.0029730433598160744,0.00012062862515449524,0.0008638271829113364
1782812061037126100,2.752126220703125,-0.0002486294833943248,0.0010071948636323214,-0.0009766834555193782
1782812061047197000,2.762197021484375,-0.000005839741788804531,-0.00010417751036584377,-0.001026976271532476
1782812061057268000,2.77226806640625,-0.00222372030839324,0.0015381940174847841,-0.0015111388638615608
1782812061067339000,2.782339111328125,-0.0013182307593524456,-0.00003967294469475746,0.0013250233605504036
1782812061077410000,2.79241015625,-0.00027507066261023283,-0.001335034379735589,-0.0009242823580279946
1782812061087481000,2.802481201171875,-0.000495552085340023,-0.0009810999035835266,-0.0006251902086660266
1782812061097552100,2.81255224609375,-0.0006404281593859196,0.002184067154303193,0.0002672350383363664
1782812061107623000,2.822622802734375,-0.0022085392847657204,0.001274344278499484,0.0009063861798495054
1782812061117694000,2.83269384765625,0.0012090952368453145,0.0005012286128476262,-0.0012241427320986986
1782812061127765000,2.842764892578125,0.0004924004315398633,-0.0008162946905940771,-0.0011183622991666198
1782812061137836000,2.8528359375,0.0004180982359685004,-0.00027940142899751663,0.00036475207889452577
1782812061147907000,2.862906982421875,0.0010970233706757426,-0.0012001276481896639,0.0020966879092156887
1782812061157978000,2.87297802734375,0.00020726124057546258,0.0014028458390384912,-0.001656238571740687
1782812061168049000,2.883048828125,-0.0004831920377910137,-0.00118565047159791,-0.002211921149864793
1782812061178120000,2.893119873046875,-0.002540750429034233,0.0007360865129157901,0.0013170335441827774
1782812061188191000,2.90319091796875,-0.0008936311351135373,-0.0001562819816172123,0.0009563177009113133
1782812061198262000,2.913261962890625,0.00046191789442673326,0.00027754693292081356,0.00009957881411537528
1782812061208333000,2.9233330078125,0.0005875119240954518,-0.003510091919451952,-0.0019421231700107455
1782812061218404000,2.933404052734375,0.0005712666315957904,-0.0013769001234322786,0.0013119933428242803
1782812061228475000,2.943474853515625,0.0018839524127542973,-0.0012585620861500502,-0.002785881282761693
1782812061238546000,2.9535458984375,-0.0007965192198753357,-0.0013586969580501318,-0.0013094248715788126
1782812061248617000,2.963616943359375,0.0004665280575864017,-0.0005996280815452337,-0.002842504996806383
1782812061258688000,2.97368798828125,-0.0004834214923903346,-0.000763412332162261,-0.0011649797670543194
1782812061268759000,2.983759033203125,-0.00006003864109516144,-0.0013661084230989218,-0.0019349700305610895
1782812061278830000,2.993830078125,-0.001572980429045856,-0.001307252561673522,0.001220076926983893
1782812061288900900,3.00390087890625,-0.0007486202521249652,0.0008792333537712693,0.00043070182437077165
1782812061298973000,3.013972900390625,0.00036990741500630975,0.0010283704614266753,-0.0017179364804178476
1782812061309044000,3.0240439453125,0.0003925766795873642,0.0005375357577577233,0.001022923388518393
1782812061319115000,3.034114990234375,-0.0010396712459623814,0.001476299948990345,-0.0007973471656441689
1782812061329186000,3.04418603515625,0.0006641116924583912,0.00009559234604239464,0.00009945838246494532
1782812061339257000,3.054257080078125,-0.00021606311202049255,-0.0004303818568587303,0.000961257261224091
1782812061349328100,3.064328125,0.0014873782638460398,-0.00013786531053483486,-0.0018174982396885753
1782812061359399000,3.07439892578125,-0.002163283061236143,0.0025625801645219326,0.0006643015658482909
1782812061369470000,3.084469970703125,-0.0002549549099057913,0.0004200147232040763,-0.003127284813672304
1782812061379541000,3.094541015625,-0.001411832170560956,0.0013409358216449618,-0.000006326357834041119
1782812061389612000,3.104612060546875,-0.0011615299154073,-0.001627251971513033,-0.001023513963446021
1782812061399683000,3.11468310546875,0.002090722555294633,-0.0001470667775720358,0.00014801061479374766
1782812061409754000,3.124754150390625,0.0015058350982144475,-0.0009758714586496353,-0.0004691251670010388
1782812061419825400,3.134825439453125,-0.0009240331128239632,-0.000264008529484272,-0.00023982700076885521
1782812061429896400,3.144896484375,-0.00039908732287585735,0.0024695522151887417,0.0009782265406101942
1782812061439967200,3.15496728515625,0.000845674192532897,-0.0010021445341408253,-0.00033417920349165797
1782812061450038300,3.165038330078125,-0.0015290884766727686,0.0011086174054071307,0.0021279731299728155
1782812061460109300,3.175109375,0.0015284866094589233,-0.002309549832716584,0.00011542241554707289
1782812061470180400,3.185180419921875,-0.0024407333694398403,0.002695706207305193,-0.00019981549121439457
1782812061480251400,3.19525146484375,0.0012642564252018929,-0.0019712173379957676,-0.0007726614130660892
1782812061490322400,3.205322509765625,0.00008775980677455664,0.0003470843657851219,-0.00019230003817938268
1782812061500393200,3.215393310546875,0.0003082695766352117,0.0012797233648598194,0.0015619241166859865
1782812061510464300,3.22546435546875,0.0002423357218503952,0.0007356473943218589,-0.0018859179690480232
1782812061520535300,3.235535400390625,0.00021037779515609145,-0.0004888740368187428,-0.0002446116995997727
1782812061530606300,3.2456064453125,-0.0012582916533574462,-0.0013870669063180685,0.0006816767854616046
1782812061540677400,3.255677490234375,0.0008967382018454373,-0.0013415268622338772,0.000432937522418797
1782812061550748400,3.26574853515625,0.001027939491905272,0.0005397419445216656,-0.00030095537658780813
1782812061560819200,3.275819091796875,0.000602099986281246,-0.00025920639745891094,0.0009003966115415096
1782812061570890200,3.28589013671875,-0.0004340347368270159,0.0012822635471820831,-0.0009358453680761158
1782812061580961300,3.295961181640625,0.0002943398430943489,0.0013728110352531075,-0.001501767081208527
1782812061591032300,3.3060322265625,-0.002280579414218664,-0.001119948923587799,-0.0028405599296092987
1782812061601104400,3.3161044921875,-0.001336755114607513,-0.0008440453093498945,-0.0008458523661829531
1782812061611175400,3.326175537109375,-0.0023001397494226694,0.0012920278823003173,0.0005827312124893069
1782812061621246500,3.33624658203125,0.0014961964916437864,-0.0003956172149628401,0.00022134024766273797
1782812061631317200,3.346317138671875,-0.0018714439356699586,0.000006349990144371986,-0.000544718757737428
1782812061641388300,3.35638818359375,0.00021274597384035587,0.0023166420869529247,-0.003056079614907503
1782812061651459300,3.366459228515625,0.0005045822472311556,0.0006506865611299872,-0.0005241945618763566
1782812061661530400,3.3765302734375,0.00031603046227246523,0.002354843309149146,-0.0006421725847758353
1782812061671601400,3.386601318359375,0.0005576955736614764,-0.0005072802305221558,0.00046434273826889694
1782812061681672400,3.39667236328125,0.002645613858476281,0.0005140420980751514,-0.0009785579750314355
1782812061691743200,3.4067431640625,0.001828779699280858,-0.00016228551976382732,-0.0007760596927255392
1782812061701814300,3.416814208984375,-0.00017551530618220568,-0.0016416716389358044,0.00020105406292714179
1782812061711885300,3.42688525390625,-0.0009550608228892088,0.000012059696018695831,-0.0018271174049004912
1782812061721956400,3.436956298828125,-0.00030045572202652693,0.0011380441719666123,0.0005809128051623702
1782812061732027400,3.44702734375,-0.0023955879732966423,0.001984022557735443,0.001357782050035894
1782812061742098400,3.457098388671875,-0.002492527011781931,0.0007214179495349526,0.000842992914840579
1782812061752169200,3.467169189453125,0.0019784308969974518,-0.00092454650439322,-0.0000672916357871145
1782812061762240300,3.477240234375,0.0012937320861965418,0.0002879905514419079,-0.0012494688853621483
1782812061772311300,3.487311279296875,-0.001315341447480023,-0.001373383915051818,0.00025283897412009537
1782812061782382300,3.49738232421875,0.00030838785460218787,-0.0009028033819049597,-0.0017362759681418538
1782812061792453400,3.507453369140625,0.0013606359716504812,-0.0017533034551888704,-0.0017972515197470784
1782812061802524400,3.5175244140625,0.00135664117988199,0.0001154367346316576,-0.0003998908505309373
1782812061812595200,3.52759521484375,-0.0010524754179641604,0.0006160201737657189,-0.0007807217771187425
1782812061822666200,3.537666259765625,-0.0006553980056196451,-0.00018718931823968887,-0.0013168160803616047
1782812061832737300,3.5477373046875,-0.0007095498731359839,-0.000831397483125329,-0.00016313919331878424
1782812061842808300,3.557808349609375,-0.00010927335824817419,0.002196350134909153,-0.0016430577961727977
1782812061852879400,3.56787939453125,0.00036803242983296514,0.001043346244841814,-0.0016124867834150791
1782812061862950400,3.577950439453125,0.0012775019276887178,0.0008774312445893884,-0.00008622909081168473
1782812061873021200,3.588021240234375,-0.0009682646486908197,0.0013766421470791101,-0.0005664675845764577
1782812061883092200,3.59809228515625,0.0027250072453171015,0.00031750299967825413,0.00017362486687488854
1782812061893163300,3.608163330078125,-0.002272337442263961,0.0017186666373163462,0.0018508629873394966
1782812061903234300,3.618234375,-0.002553034806624055,-0.0009817788377404213,0.0008801406947895885
1782812061913305300,3.628305419921875,-0.0031519560143351555,0.00039927661418914795,-0.0004906041431240737
1782812061923376400,3.63837646484375,-0.0015756309730932117,0.00023762276396155357,-0.0011201754678040743
1782812061933448200,3.6484482421875,-0.0008519674884155393,0.001021181815303862,0.0002618138969410211
1782812061943519200,3.658519287109375,-0.0005273281130939722,-0.00029069138690829277,-0.0005267481319606304
1782812061953590300,3.66859033203125,-0.000982384430244565,0.00013894191943109035,0.0022815780248492956
1782812061963661300,3.678661376953125,0.0016378997825086117,0.000008446862921118736,0.00017155546811409295
1782812061973732400,3.688732421875,0.00026083720149472356,-0.0009091997053474188,-0.0009316223440691829
1782812061983803400,3.698803466796875,-0.0005415731575340033,0.0010058794869109988,-0.002020056126639247
1782812061993874400,3.70887451171875,-0.000703874509781599,0.0012772784102708101,0.0026570898480713367
1782812062003945500,3.718945556640625,-0.0012298488290980458,0.0006173471920192242,0.0031798682175576687
1782812062014016300,3.729016357421875,0.0001482351217418909,-0.0002125136088579893,0.0005321310600265861
1782812062024087300,3.73908740234375,0.00021241733338683844,0.0016200074460357428,-0.0015509935328736901
1782812062034158300,3.749158447265625,-0.001552077243104577,-0.0009184093214571476,-0.0005368785350583494
1782812062044229400,3.7592294921875,-0.0004774918779730797,-0.0014092298224568367,-0.0011347582330927253
1782812062054300400,3.769300537109375,0.00013521150685846806,-0.00031842757016420364,-0.0018442620057612658
1782812062064371500,3.779371337890625,-0.0017883898690342903,-0.0001953893806785345,-0.0005989678902551532
1782812062074442200,3.789442138671875,-0.0025614039041101933,0.0004006546223536134,-0.0018513207323849201
1782812062084513300,3.79951318359375,-0.00019545143004506826,0.0008217004360631108,-0.0002560873399488628
1782812062094584300,3.809584228515625,-0.00041220360435545444,-0.00008685560896992683,0.00045734396553598344
1782812062104655400,3.8196552734375,-0.0009304548148065805,0.00029104691930115223,0.0004831766418647021
1782812062114726400,3.829726318359375,0.0027459042612463236,-0.00008797505870461464,0.0019326244946569204
1782812062124797400,3.83979736328125,-0.00116761086974293,0.001187146408483386,-0.0000471693929284811
1782812062134868200,3.8498681640625,0.0015695999609306455,-0.00026438944041728973,-0.0014442512765526772
1782812062144939300,3.859939208984375,-0.0007438880857080221,-0.0005935560911893845,0.00038800350739620626
1782812062155010300,3.87001025390625,0.0007685981690883636,0.001219600555486977,0.000568007177207619
1782812062165081300,3.880081298828125,-0.00219336966983974,0.0010507561964914203,0.000764282129239291
1782812062175152400,3.89015234375,0.0005438325461000204,-0.0013718975242227316,-0.0005186345661059022
1782812062185223400,3.900223388671875,0.0005667357472702861,-0.00024591293185949326,0.002258776221424341
1782812062195294200,3.910294189453125,0.0006734193884767592,-0.0008743570651859045,-0.00017915629723574966
1782812062205365200,3.920365234375,-0.0004118187353014946,-0.0003712859470397234,-0.0008452128386124969
1782812062215436300,3.930436279296875,0.0021033124066889286,0.0006928135408088565,0.0036444226279854774
1782812062225507300,3.94050732421875,0.00008543534204363823,0.0006938787410035729,-0.0006286193383857608
1782812062235578400,3.950578369140625,0.0003609972773119807,0.000815616687759757,0.0008173354435712099
1782812062245649400,3.9606494140625,-0.000714919762685895,-0.0013279616832733154,0.0005803140811622143
1782812062255720200,3.97072021484375,0.0021046351175755262,0.0012000087881460786,0.0004911294672638178
1782812062265791200,3.980791259765625,-0.0012187235988676548,-0.0006154682487249374,0.0019063332583755255
1782812062275862300,3.9908623046875,0.00044071406591683626,0.0011110426858067513,-0.00038933148607611656
1782812062285933300,4.000933349609375,-0.0025372325908392668,0.0007885339437052608,-0.0011150428326800466
1782812062296004400,4.01100439453125,-0.00218875240534544,0.0026619313284754753,0.00327818701043725
1782812062306076400,4.021076416015625,-0.0027988823130726814,0.00047334551345556974,-0.001990610733628273
1782812062316147200,4.031147216796875,0.0002396775525994599,0.0012542837066575885,-0.0012312830658629537
1782812062326218200,4.04121826171875,-0.0012929715448990464,-0.0012826435267925262,0.0008715489530004561
1782812062336289300,4.051289306640625,-0.002453493420034647,-0.0009972341358661652,0.0005926069570705295
1782812062346360300,4.0613603515625,-0.0013807722134515643,-0.0005290503613650799,0.000999005394987762
1782812062356431400,4.071431396484375,0.001611262676306069,-0.0008771752472966909,0.0006618020124733448
1782812062366502400,4.08150244140625,-0.0008945055305957794,0.0004964831750839949,-0.0009121261537075043
1782812062376573400,4.091573486328125,0.0013104787794873118,0.000917237251996994,-0.00014829807332716882
1782812062386644200,4.101644287109375,0.0011970282066613436,0.0007049833657220006,0.0007324093021452427
1782812062396715300,4.11171533203125,-0.0006094248965382576,0.0019831941463053226,0.00140707241371274
1782812062406786300,4.121786376953125,0.0005157606210559607,-0.00010685459710657597,0.001000407850369811
1782812062416857300,4.131857421875,0.0008555010426789522,0.00001532072201371193,0.0007550141308456659
1782812062426928600,4.1419287109375,-0.001332019455730915,-0.002164210192859173,0.0006788477767258883
1782812062436999700,4.151999755859375,0.00040114024886861444,0.0019136049086228013,-0.000508303171955049
1782812062447070500,4.162070556640625,-0.0004870239645242691,0.0003037240821868181,0.0003881168086081743
1782812062457141500,4.1721416015625,0.0000720457173883915,-0.0004909334238618612,-0.0015072986716404557
1782812062467212500,4.182212646484375,-0.00026484415866434574,-0.0003319426905363798,-0.0020995857194066048
1782812062477283600,4.19228369140625,0.0006448643398471177,0.0004938871134072542,-0.0021143739577382803
1782812062487354600,4.202354736328125,0.0014664495829492807,0.0005077355308458209,0.0008843454415909946
1782812062497425700,4.21242578125,0.002345527522265911,0.001519062090665102,0.0010511665605008602
1782812062507496400,4.222496337890625,-0.001087553333491087,-0.0003358295653015375,-0.00041676792898215353
1782812062517567500,4.2325673828125,-0.0003248946741223335,0.0017248522490262985,0.000754442997276783
1782812062527638500,4.242638427734375,-0.0006825572345405817,0.0020644052419811487,-0.0008418557699769735
1782812062537709600,4.25270947265625,-0.002445724792778492,0.0004830791149288416,-0.00004715335671789944
1782812062547780600,4.262780517578125,0.002156483707949519,0.0002782819792628288,-0.00010387870133854449
1782812062557851600,4.2728515625,0.0013847865629941225,0.00042874913197010756,0.0006460876320488751
1782812062567922400,4.28292236328125,-0.00006876676343381405,0.0009153085993602872,-0.000568313873372972
1782812062577993500,4.292993408203125,-0.0005141877336427569,0.0008459943346679211,0.0023791890125721693
1782812062588064500,4.303064453125,0.0001718425191938877,0.0014851531013846397,-0.0004717249539680779
1782812062598135600,4.313135498046875,-0.002110336674377322,0.0013521070359274745,-0.00007324869511649013
1782812062608206600,4.32320654296875,0.001722484827041626,-0.001371241407468915,-0.0026692980900406837
1782812062618277600,4.333277587890625,-0.0006235964829102159,-0.00007846136577427387,0.0002240549074485898
1782812062628348400,4.343348388671875,-0.0011620876612141728,-0.001010035164654255,-0.0004129732260480523
1782812062638419500,4.35341943359375,-0.0007206223672255874,0.0011580734280869365,0.000011858588550239801
1782812062648490500,4.363490478515625,-0.001742477179504931,0.00032450398430228233,-0.0012384955771267414
1782812062658561500,4.3735615234375,-0.0020434032194316387,0.0024009402841329575,-0.0018533312249928713
1782812062668632600,4.383632568359375,0.0018147183582186699,0.0007521773222833872,0.0009179542539641261
1782812062678704400,4.393704345703125,0.00005464383866637945,0.002197250723838806,0.0010032628197222948
1782812062688774400,4.4037744140625,0.00171592365950346,0.0014941762201488018,-0.00027931551449000835
1782812062698846500,4.413846435546875,0.0010892772115767002,-0.0010011387057602406,-0.0007974841864779592
1782812062708917500,4.42391748046875,-0.0013451182749122381,0.0011488312156870961,-0.0006664566462859511
1782812062718988500,4.433988525390625,-0.002141531789675355,-0.0012969498056918383,-0.0001272642402909696
1782812062729059600,4.4440595703125,-0.00028637389186769724,-0.001124110771343112,-0.0008985156891867518
1782812062739130600,4.454130615234375,0.00030231743585318327,-0.0009866345208138227,0.002037112135440111
1782812062749201700,4.46420166015625,0.0005270882393233478,0.000532166101038456,-0.001336580258794129
1782812062759272400,4.4742724609375,-0.0006076591089367867,0.00029447837732732296,-0.0014547724276781082
1782812062769343500,4.484343505859375,-0.00036744202952831984,0.0005429511656984687,-0.00008990243077278137
1782812062779414500,4.49441455078125,0.0017577549442648888,-0.0011364342644810677,0.0033095369581133127
1782812062789485600,4.504485595703125,-0.0011400306830182672,0.0009227219270542264,-0.0018412828212603927
1782812062799556600,4.514556640625,0.0020657049026340246,0.0014537414535880089,0.0005555488169193268
1782812062809627600,4.524627685546875,-0.0023641972802579403,0.00018181558698415756,0.0010157431242987514
1782812062819698400,4.534698486328125,0.002519519068300724,0.0005047889426350594,0.0005221579922363162
1782812062829769500,4.54476953125,-0.0013729571364820004,-0.0002467550802975893,-0.0014373959274962544
1782812062839840500,4.554840576171875,0.00014617829583585262,-0.0002659435849636793,-0.004064213950186968
1782812062849911600,4.56491162109375,-0.001423755194991827,-0.0004214721266180277,0.0005126945325173438
1782812062859982600,4.574982666015625,0.0012590470723807812,-0.002065257867798209,0.0012820623815059662
1782812062870053600,4.5850537109375,-0.00031754421070218086,-0.0016804311890155077,0.0007736649713478982
1782812062880124400,4.59512451171875,0.002807965502142906,0.000012811273336410522,-0.0001634047948755324
1782812062890195500,4.605195556640625,-0.001167335081845522,0.0017180333379656076,0.00017534929793328047
1782812062900266500,4.6152666015625,0.00017515977378934622,0.002423009369522333,-0.0007031064596958458
1782812062910337500,4.625337646484375,-0.0008882404072210193,-0.0010287135373800993,-0.0004365240456536412
1782812062920408600,4.63540869140625,0.0007794270059093833,-0.0003625319804996252,-0.0034737917594611645
1782812062930479600,4.645479736328125,0.001992496894672513,0.001286497456021607,0.0017902124673128128
1782812062940550700,4.655550537109375,0.00010772154200822115,0.0012508847285062075,-0.001724175876006484
1782812062950621400,4.665621337890625,-0.00023023365065455437,0.001645565265789628,0.0013584330445155501
1782812062960692500,4.6756923828125,-0.0010001971386373043,0.00040575757157057524,0.00039766126428730786
1782812062970763500,4.685763427734375,-0.0008233634289354086,-0.0004935918841511011,0.0009457399137318134
1782812062980834600,4.69583447265625,0.002802510280162096,-0.00034763431176543236,0.0009399469709023833
1782812062990905600,4.705905517578125,-0.003309178166091442,-0.0006208745762705803,0.000623563420958817
1782812063000976600,4.7159765625,0.000045069027692079544,0.00019048689864575863,0.0011651254026219249
1782812063011047400,4.72604736328125,0.0015987572260200977,-0.0005088592879474163,0.0008668513037264347
1782812063021118500,4.736118408203125,0.0017528827302157879,0.0003257519565522671,-0.001905155135318637
1782812063031189500,4.746189453125,-0.00022717751562595367,0.002087166765704751,-0.0003900827723555267
1782812063041260500,4.756260498046875,0.0017297284211963415,-0.0003750051837414503,0.0006621598731726408
1782812063051331600,4.76633154296875,-0.0009478137362748384,0.0032458286732435226,0.0003364552394486964
1782812063061402600,4.776402587890625,0.0017339613987132907,0.0004698080010712147,0.0009602586505934596
1782812063071473400,4.786473388671875,0.0003091702237725258,0.0011901931138709188,-0.00012444687308743596
1782812063081544400,4.79654443359375,0.00011785118840634823,0.0007965111872181296,-0.0013940766220912337
1782812063091615500,4.806615478515625,0.0016987036215141416,0.0011360641801729798,0.0016525797545909882
1782812063101686500,4.8166865234375,0.0005593321984633803,-0.0008122560102492571,-0.0019256004597991705
1782812063111757600,4.826757568359375,0.000605937500949949,0.0011582168517634273,-0.0011133363004773855
1782812063121829600,4.83682958984375,-0.0010085293324664235,0.0005421274108812213,-0.0009911992819979787
1782812063131900700,4.846900634765625,-0.00024313677567988634,0.000035860575735569,-0.0013334155082702637
1782812063141971500,4.856971435546875,0.0015255947364494205,-0.00008622719906270504,-0.0007194093195721507
1782812063152042500,4.86704248046875,-0.0020355843007564545,0.0008818318601697683,0.00014611805090680718
1782812063162113500,4.877113525390625,-0.000024827197194099426,0.002755062887445092,-0.0010544731048867106
1782812063172184600,4.8871845703125,-0.0017833122983574867,-0.0003712219186127186,-0.0015921654412522912
1782812063182255600,4.897255615234375,0.0010671825148165226,0.0011719848262146115,0.0007893774891272187
1782812063192326700,4.90732666015625,-0.0012713392497971654,0.0012396291131153703,-0.000884419190697372
1782812063202397400,4.9173974609375,0.00020849390421062708,0.0006764864083379507,-0.00005070629413239658
1782812063212468500,4.927468505859375,-0.00047993322368711233,-0.0002084819134324789,0.0022891468834131956
1782812063222539500,4.93753955078125,0.00014009792357683182,-0.00005261879414319992,0.0003330991603434086
1782812063232610600,4.947610595703125,-0.0013941492652520537,-0.0024254953023046255,0.003238075179979205
1782812063242681600,4.957681640625,0.0008934574434533715,-0.0013165788259357214,-0.0005247930530458689
1782812063252752600,4.967752685546875,0.0004433831782080233,-0.000010298332199454308,-0.001369547680951655
1782812063262823400,4.977823486328125,0.0015202753711491823,-0.0007357245776802301,-0.0008348367991857231
1782812063272894500,4.98789453125,-0.0008273010607808828,0.0001170195173472166,-0.0015520260203629732
1782812063282965500,4.997965576171875,0.0010926679242402315,0.0006858590058982372,-0.001956511288881302
1782812063293036500,5.00803662109375,0.0008271507686004043,0.0016169000882655382,0.00021130192908458412
1782812063303107600,5.018107666015625,-0.0010142475366592407,0.0003695302875712514,-0.0017345757223665714
1782812063313178600,5.0281787109375,0.0006374450749717653,0.0015956496354192495,0.00015680122305639088
1782812063323249400,5.03824951171875,0.0007584414561279118,-0.0009004236198961735,-0.0015050757210701704
1782812063333320400,5.048320556640625,-0.0018895395332947373,0.0005416780477389693,-0.0016507506370544434
1782812063343391500,5.0583916015625,0.00011271366383880377,0.0010394457494840026,0.001132572302594781
1782812063353462500,5.068462646484375,0.000604333181399852,0.0004791165702044964,0.00033255870221182704
1782812063363533600,5.078533447265625,0.00007923087105154991,-0.0006343331187963486,-0.0015805410221219063
1782812063373604600,5.0886044921875,0.001055279397405684,-0.002107327338308096,0.0010578526416793466
1782812063383675400,5.09867529296875,0.0011211078381165862,0.0009347813902422786,-0.0025866194628179073
1782812063393746400,5.108746337890625,0.000035070814192295074,0.0016383884940296412,-0.0030436180531978607
1782812063403817500,5.1188173828125,0.0002615003613755107,0.0015162512427195907,-0.000012063741451129317
1782812063413888500,5.128888427734375,-0.000564612215384841,-0.00016580126248300076,-0.003020636737346649
1782812063423959600,5.13895947265625,-0.0009503727778792381,-0.0008812614250928164,0.0006261925445869565
1782812063434030600,5.149030517578125,0.0013780290028080344,0.0007629741448909044,-0.000008705013897269964
1782812063444101400,5.159101318359375,-0.0009000761201605201,0.0009228073759004474,-0.0029892597813159227
1782812063454172400,5.16917236328125,0.0010285851312801242,0.00031214451882988214,0.0016805932391434908
1782812063464243500,5.179243408203125,-0.001404605689458549,0.00014910963363945484,0.00036966230254620314
1782812063474314500,5.189314453125,0.00348842004314065,-0.0005851238965988159,0.00019336107652634382
1782812063484385500,5.199385498046875,0.0010495739988982677,-0.00046713114716112614,0.00006884010508656502
1782812063494456600,5.20945654296875,-0.0002423253608867526,-0.00028204149566590786,-0.0006672575837001204
1782812063504527400,5.21952734375,-0.0009886896004900336,-0.00031570042483508587,-0.0012484012404456735
1782812063514598400,5.229598388671875,0.0007269188645295799,0.00018630549311637878,-0.00026542850537225604
1782812063524669400,5.23966943359375,-0.002490376587957144,-0.0005288568791002035,0.0003166790120303631
1782812063534740500,5.249740478515625,0.0006537515437230468,-0.0011618903372436762,-0.002962737577036023
1782812063544811500,5.2598115234375,-0.0008321180939674377,0.00019655050709843636,-0.0008142151637002826
1782812063554882600,5.269882568359375,0.001538628013804555,-0.0012197184842079878,0.0008278900058940053
1782812063564953600,5.27995361328125,-0.0013711592182517052,0.001272415043786168,-0.0013669515028595924
1782812063575024400,5.2900244140625,-0.001426819246262312,-0.001637354725971818,-0.000946172047406435
1782812063585095400,5.300095458984375,-0.0007824866333976388,0.001541155157610774,-0.0018455758690834045
1782812063595166500,5.31016650390625,-0.000664508668705821,0.0002103736624121666,0.0021323878318071365
1782812063605237500,5.320237548828125,-0.002103628823533654,0.001910646678879857,-0.0001787485380191356
1782812063615308500,5.33030859375,0.0017022945685312152,-0.00015729782171547413,0.0019949234556406736
1782812063625379600,5.340379638671875,-0.0007614471251145005,0.0007315048715099692,-0.0006327453884296119
1782812063635450400,5.350450439453125,0.0013083615340292454,0.0011991559294983745,0.00007192703196778893
1782812063645521400,5.360521484375,-0.0003080846508964896,-0.001862421166151762,-0.0016054939478635788
1782812063655592400,5.370592529296875,-0.000669209286570549,-0.0004746480844914913,0.0023572896607220173
1782812063665663500,5.38066357421875,0.0006077400175854564,0.001166773377917707,0.0000034622789826244116
1782812063675734500,5.390734619140625,-0.0005323592340573668,-0.0003613485023379326,-0.0018833873327821493
1782812063685805600,5.4008056640625,-0.0015951882814988494,-0.0003951955586671829,0.002494901418685913
1782812063695876400,5.41087646484375,-0.0010052981087937951,0.00002664932981133461,0.0008477364899590611
1782812063705947400,5.420947509765625,-0.000544873415492475,0.0007169520249590278,0.0003955683787353337
1782812063716018400,5.431018310546875,0.0003928255755454302,0.00027167145162820816,0.00004083532257936895
1782812063726089500,5.44108935546875,0.0011712840059772134,0.0011946938466280699,0.0023830332793295383
1782812063736160500,5.451160400390625,-0.0004077041521668434,0.0010484863305464387,-0.0004899850464425981
1782812063746231600,5.4612314453125,-0.0007684555603191257,0.001503712497651577,0.0017128047766163945
1782812063756302300,5.47130224609375,0.0007407578523270786,0.0003777280217036605,-0.00017724063945934176
1782812063766373400,5.481373291015625,0.0004535362240858376,-0.0011701539624482393,0.0012380483094602823
1782812063776444400,5.4914443359375,0.001305481418967247,0.0015995334833860397,-0.0005593191017396748
1782812063786515500,5.501515380859375,0.00008269632235169411,0.00011408538557589054,0.001259582000784576
1782812063796586500,5.51158642578125,-0.0012840379495173693,-0.00008565164171159267,-0.0006517688161693513
1782812063806657500,5.521657470703125,0.001719907857477665,-0.0025033196434378624,-0.0011438194196671247
1782812063816728300,5.531728271484375,0.00130658526904881,-0.0002255178987979889,-0.0009163854410871863
1782812063826799400,5.54179931640625,0.0007433649734593928,-0.0020266349893063307,0.002165326615795493
1782812063836870400,5.551870361328125,0.0004213888314552605,0.0023769016843289137,0.00021615903824567795
1782812063846941400,5.56194140625,-0.0008443386759608984,-0.000993992667645216,-0.0011343001388013363
1782812063857012500,5.572012451171875,0.0004121406236663461,0.044496793299913406,0.005990454461425543
1782812063867083500,5.58208349609375,0.0008844913681969047,-0.028675952926278114,-0.0015432039508596063
1782812063877154300,5.592154296875,-0.0013861197512596846,0.02856496535241604,0.0015444650780409575
1782812063887225300,5.602225341796875,0.00026820413768291473,-0.0026707721408456564,0.0013872585259377956
1782812063897296400,5.61229638671875,0.001512699294835329,-0.005189057439565659,-0.0006561848567798734
1782812063907367400,5.622367431640625,-0.00010746007319539785,0.0038134371861815453,-0.0018405579030513763
1782812063917438500,5.6324384765625,0.00028535613091662526,-0.007666917517781258,-0.0013382856268435717
1782812063927509500,5.642509521484375,0.001714753801934421,-0.018374262377619743,-0.0009653535089455545
1782812063937580300,5.652580322265625,-0.0004053887678310275,-0.005949284881353378,-0.002385617233812809
1782812063947651300,5.6626513671875,-0.00031076138839125633,0.002833327744156122,-0.0002589559881016612
1782812063957722400,5.672722412109375,-0.0014002606039866805,0.0005054585635662079,0.001074755098670721
1782812063967793400,5.68279345703125,0.002597072161734104,-0.0025113096926361322,0.0022810078226029873
