time,seconds_elapsed,z,y,x
1782811756239005000,0.0780048828125,-0.11625081300735474,0.1821446418762207,-0.4792492091655731
1782811756249076700,0.08807666015625,-0.08438529074192047,0.2431294322013855,-0.44968387484550476
1782811756259147800,0.098147705078125,-0.052307020872831345,0.26913732290267944,-0.41373351216316223
1782811756269219800,0.1082197265625,-0.02579605206847191,0.25227952003479004,-0.3766402006149292
1782811756279291000,0.118290771484375,0.0019594798795878887,0.19970770180225372,-0.33529460430145264
1782811756289363000,0.128363037109375,0.0368141308426857,0.12326511740684509,-0.2967437505722046
1782811756299434000,0.13843408203125,0.06655944138765335,0.024018114432692528,-0.2728123366832733
1782811756309506000,0.148506103515625,0.09719111770391464,-0.07573137432336807,-0.25596463680267334
1782811756319577000,0.1585771484375,0.1236117035150528,-0.15300461649894714,-0.24220456182956696
1782811756329649000,0.16864892578125,0.14392895996570587,-0.19143962860107422,-0.2315860092639923
1782811756339721000,0.178720947265625,0.1506161242723465,-0.20641207695007324,-0.22146975994110107
1782811756349792000,0.1887919921875,0.14535345137119293,-0.22144483029842377,-0.22087080776691437
1782811756359864000,0.198864013671875,0.1344689279794693,-0.25401684641838074,-0.2296706736087799
1782811756369935000,0.20893505859375,0.1149894967675209,-0.29196953773498535,-0.25443539023399353
1782811756380007000,0.2190068359375,0.08935286104679108,-0.32314974069595337,-0.2857934534549713
1782811756390078000,0.229077880859375,0.0664328932762146,-0.32213348150253296,-0.3269994556903839
1782811756400150000,0.23914990234375,0.06511276960372925,-0.26931682229042053,-0.36511048674583435
1782811756410222000,0.24922216796875,0.0722644254565239,-0.1948481649160385,-0.39927804470062256
1782811756420292900,0.25929296875,0.07881107181310654,-0.1359369307756424,-0.4311237335205078
1782811756430365000,0.269364990234375,0.09305872023105621,-0.08500796556472778,-0.4513017237186432
1782811756440436000,0.27943603515625,0.10684727877378464,-0.020958639681339264,-0.4528278708457947
1782811756450507800,0.2895078125,0.11729459464550018,0.04194895178079605,-0.43651947379112244
1782811756460578800,0.299578857421875,0.11775518208742142,0.08304571360349655,-0.40161243081092834
1782811756470651000,0.30965087890625,0.10895103961229324,0.09719482064247131,-0.3521580696105957
1782811756480722000,0.319721923828125,0.10611177980899811,0.11621284484863281,-0.29029515385627747
1782811756490794000,0.3297939453125,0.11311083287000656,0.1344166100025177,-0.228292778134346
1782811756500866000,0.339865966796875,0.13288787007331848,0.12579961121082306,-0.18457914888858795
1782811756510937000,0.34993701171875,0.16622266173362732,0.09127785265445709,-0.14995326101779938
1782811756521009000,0.3600087890625,0.19130226969718933,0.0564221628010273,-0.11817272007465363
1782811756531080000,0.370079833984375,0.2118925005197525,-0.0007383269257843494,-0.09160476177930832
1782811756541152000,0.380152099609375,0.22865624725818634,-0.04206168279051781,-0.08058938384056091
1782811756551223000,0.39022314453125,0.2535562813282013,-0.03854124993085861,-0.09007929265499115
1782811756561295000,0.400295166015625,0.276563435792923,0.002085993066430092,-0.12780380249023438
1782811756571367000,0.410366943359375,0.2840064465999603,0.0474417544901371,-0.19884948432445526
1782811756581438000,0.42043798828125,0.28661099076271057,0.07287777215242386,-0.29548215866088867
1782811756591510000,0.430510009765625,0.2905101180076599,0.10989704728126526,-0.40850913524627686
1782811756601580800,0.440580810546875,0.3153187334537506,0.18959592282772064,-0.5064759850502014
1782811756611652900,0.45065283203125,0.355040043592453,0.27971625328063965,-0.5837979316711426
1782811756621724000,0.460723876953125,0.410770982503891,0.35966530442237854,-0.6233581304550171
1782811756631796000,0.4707958984375,0.4652414321899414,0.4212130904197693,-0.6331002116203308
1782811756641867000,0.480866943359375,0.4977726936340332,0.452652245759964,-0.6193633079528809
1782811756651938800,0.490938720703125,0.4943710267543793,0.4199102818965912,-0.5971320271492004
1782811756662011000,0.501010986328125,0.4582729935646057,0.3496083915233612,-0.5701510906219482
1782811756672082000,0.51108203125,0.38619402050971985,0.2433629035949707,-0.5578597784042358
1782811756682154000,0.521154052734375,0.31363776326179504,0.14016340672969818,-0.5609506368637085
1782811756692225000,0.53122509765625,0.2872980237007141,0.13623444736003876,-0.5756443738937378
1782811756702297000,0.541297119140625,0.33617791533470154,0.2628203332424164,-0.5961024761199951
1782811756712368000,0.5513681640625,0.4428415298461914,0.4199519157409668,-0.6443261504173279
1782811756722440000,0.56143994140625,0.5623327493667603,0.5503004193305969,-0.7028363943099976
1782811756732512000,0.571511962890625,0.6746107935905457,0.6898396611213684,-0.7145452499389648
1782811756742583000,0.5815830078125,0.7831404805183411,0.8781155943870544,-0.6437251567840576
1782811756752655000,0.591655029296875,0.8897233605384827,1.1299086809158325,-0.4923415184020996
1782811756762726100,0.60172607421875,0.988857090473175,1.4309499263763428,-0.281383752822876
1782811756772798000,0.6117978515625,1.0566627979278564,1.664572834968567,-0.060308098793029785
1782811756782868700,0.62186865234375,1.0817736387252808,1.781944751739502,0.1512119323015213
1782811756792940800,0.63194091796875,1.0547616481781006,1.8036092519760132,0.3583448827266693
1782811756803011800,0.64201171875,0.9916297197341919,1.7412360906600952,0.5493028163909912
1782811756813084000,0.652083984375,0.9306697249412537,1.63112211227417,0.7263795733451843
1782811756823156000,0.662156005859375,0.9447358250617981,1.5297305583953857,0.8756325244903564
1782811756833227000,0.67222705078125,0.99376380443573,1.3464957475662231,0.9772025346755981
1782811756843298800,0.682298828125,0.979886531829834,1.0249168872833252,0.9823094010353088
1782811756853369900,0.692369873046875,0.9127985835075378,0.4660077691078186,0.8721282482147217
1782811756863442000,0.70244189453125,0.8119014501571655,-0.15199683606624603,0.7287983298301697
1782811756873513000,0.712512939453125,0.643074095249176,-0.6564676761627197,0.531518280506134
1782811756883585000,0.7225849609375,0.3839680552482605,-1.0497105121612549,0.2667262852191925
1782811756893656000,0.732656005859375,0.05904695764183998,-1.3475315570831299,-0.028127994388341904
1782811756903728000,0.74272802734375,-0.2667374610900879,-1.5029289722442627,-0.3973245918750763
1782811756913800000,0.752800048828125,-0.5606580376625061,-1.432904601097107,-0.8731779456138611
1782811756923871000,0.76287109375,-0.8960366249084473,-1.1871720552444458,-1.4308810234069824
1782811756933943000,0.772943115234375,-1.3224643468856812,-1.0141645669937134,-1.9055492877960205
1782811756944013800,0.783013916015625,-1.6964728832244873,-0.778855562210083,-2.058649778366089
1782811756954086100,0.793086181640625,-1.9014544486999512,-0.4304219186306,-1.8517316579818726
1782811756964157000,0.803156982421875,-1.9614741802215576,-0.10365886986255646,-1.454781174659729
1782811756974228700,0.813228759765625,-1.9490691423416138,0.03526972234249115,-1.1099294424057007
1782811756984299800,0.8232998046875,-1.8998132944107056,-0.06889181584119797,-0.9947938323020935
1782811756994371800,0.833371826171875,-1.8984616994857788,-0.29425784945487976,-1.1826891899108887
1782811757004444000,0.84344384765625,-1.975207805633545,-0.4762071669101715,-1.6156578063964844
1782811757014515000,0.853514892578125,-2.012482166290283,-0.5824670195579529,-2.106044054031372
1782811757024587000,0.8635869140625,-1.9043258428573608,-0.4974871873855591,-2.4255971908569336
1782811757034658000,0.873657958984375,-1.6990978717803955,-0.43702995777130127,-2.4652326107025146
1782811757044729900,0.883729736328125,-1.4388190507888794,-0.5265898108482361,-2.1890203952789307
1782811757054801000,0.89380078125,-1.082811713218689,-0.6672947406768799,-1.5892682075500488
1782811757064873000,0.903873046875,-0.7046927213668823,-0.7915448546409607,-0.7831704020500183
1782811757074944000,0.913944091796875,-0.4006023406982422,-0.954860508441925,0.010594621300697327
1782811757085016000,0.92401611328125,-0.17725740373134613,-1.1285072565078735,0.5786032676696777
1782811757095088000,0.934088134765625,-0.018628349527716637,-1.2321436405181885,0.7883396744728088
1782811757105159200,0.9441591796875,0.05693087726831436,-1.1559303998947144,0.6826010346412659
1782811757115231200,0.954231201171875,0.08553668856620789,-0.8721503019332886,0.40888452529907227
1782811757125302300,0.96430224609375,0.07618721574544907,-0.49086281657218933,0.13333038985729218
1782811757135374300,0.974374267578125,0.02819572202861309,-0.23674292862415314,-0.04675707966089249
1782811757145445400,0.9844453125,-0.0009531521936878562,-0.027735544368624687,-0.06598162651062012
1782811757155517400,0.994517333984375,0.03964860364794731,0.19445091485977173,0.0765606090426445
1782811757165589200,1.00458935546875,0.12308861315250397,0.4043213427066803,0.31280913949012756
1782811757175660300,1.014660400390625,0.21945562958717346,0.5551912784576416,0.6056976914405823
1782811757185732400,1.024732421875,0.323723703622818,0.6221284866333008,0.9019059538841248
1782811757195803100,1.03480322265625,0.4000994563102722,0.6689907908439636,1.153673529624939
1782811757205875500,1.04487548828125,0.4399413764476776,0.6901529431343079,1.3274028301239014
1782811757215946200,1.0549462890625,0.4571773409843445,0.7072573304176331,1.3896182775497437
1782811757226018300,1.065018310546875,0.46660342812538147,0.7486551403999329,1.3665494918823242
1782811757236089300,1.07508935546875,0.4566948711872101,0.7961478233337402,1.2905763387680054
1782811757246161200,1.0851611328125,0.4146069288253784,0.8059421181678772,1.2107495069503784
1782811757256233200,1.095233154296875,0.34658631682395935,0.8160349130630493,1.1457185745239258
1782811757266304300,1.10530419921875,0.28938063979148865,0.892185389995575,1.117100477218628
1782811757276376300,1.115376220703125,0.28266069293022156,1.0549503564834595,1.1084660291671753
1782811757286447400,1.125447265625,0.3324642777442932,1.2636767625808716,1.0963364839553833
1782811757296519200,1.135519287109375,0.40465113520622253,1.433648943901062,1.145909070968628
1782811757306590200,1.145590087890625,0.49231213331222534,1.5316368341445923,1.2306699752807617
1782811757316662300,1.155662353515625,0.561146080493927,1.5177884101867676,1.345885992050171
1782811757326733300,1.1657333984375,0.5876997709274292,1.398195743560791,1.494545340538025
1782811757336805400,1.175805419921875,0.5721141695976257,1.391906976699829,1.5925712585449219
1782811757346877400,1.18587744140625,0.4982779026031494,1.5814956426620483,1.5216625928878784
1782811757356948500,1.195948486328125,0.39225080609321594,1.8305288553237915,1.2468321323394775
1782811757367020300,1.206020263671875,0.31149449944496155,1.98755943775177,0.8679636716842651
1782811757377091000,1.216091064453125,0.22009986639022827,1.717616319656372,0.5089125633239746
1782811757387163400,1.226163330078125,0.009691748768091202,1.0775524377822876,0.22699196636676788
1782811757397234200,1.236234130859375,-0.23605144023895264,0.41137179732322693,-0.013070699758827686
1782811757407306200,1.24630615234375,-0.3636030852794647,-0.06840948760509491,-0.2600245475769043
1782811757417377300,1.256377197265625,-0.4243013262748718,-0.40148067474365234,-0.4916364550590515
1782811757427449300,1.266449462890625,-0.5150173306465149,-0.7228366732597351,-0.7101579308509827
1782811757437521200,1.276521240234375,-0.6122626662254333,-1.0188913345336914,-0.8483229875564575
1782811757447592200,1.28659228515625,-0.6761330962181091,-1.103183388710022,-0.9247141480445862
1782811757457664300,1.296664306640625,-0.6717690229415894,-1.0218610763549805,-1.1357754468917847
1782811757467735300,1.3067353515625,-0.6873166561126709,-0.8977321982383728,-1.5994230508804321
1782811757477807400,1.316807373046875,-0.780709445476532,-0.8181177973747253,-2.1159608364105225
1782811757487878400,1.32687841796875,-0.9200617671012878,-0.8805387616157532,-2.423790454864502
1782811757497950200,1.3369501953125,-1.0185824632644653,-1.0542240142822266,-2.363180160522461
1782811757508021200,1.347021240234375,-1.0286860466003418,-1.272213339805603,-1.9548122882843018
1782811757518093300,1.35709326171875,-0.9272334575653076,-1.460325002670288,-1.2688640356063843
1782811757528164400,1.367164306640625,-0.7522895336151123,-1.6109801530838013,-0.5125223398208618
1782811757538236400,1.377236328125,-0.5891889929771423,-1.8301950693130493,0.09617293626070023
1782811757548308500,1.38730859375,-0.5145386457443237,-2.0156807899475098,0.4079611897468567
1782811757558379300,1.397379150390625,-0.5551382899284363,-1.9573016166687012,0.39468374848365784
1782811757568451000,1.407451171875,-0.6767464876174927,-1.5977777242660522,0.1392703503370285
1782811757578522000,1.417522216796875,-0.817944347858429,-1.111978530883789,-0.2591920793056488
1782811757588594200,1.42759423828125,-0.9446266889572144,-0.7056853771209717,-0.6696645021438599
1782811757598665200,1.437665283203125,-1.0808894634246826,-0.5810803174972534,-0.9307506680488586
1782811757608737300,1.4477373046875,-1.1404281854629517,-0.6665537357330322,-0.9257267117500305
1782811757618808300,1.457808349609375,-1.039626955986023,-0.7502067685127258,-0.6675212383270264
1782811757628880400,1.46788037109375,-0.8075824975967407,-0.738859236240387,-0.24301624298095703
1782811757638952200,1.4779521484375,-0.5144084095954895,-0.6374759078025818,0.22654886543750763
1782811757649023200,1.488023193359375,-0.24037890136241913,-0.480563759803772,0.5810603499412537
1782811757659095300,1.49809521484375,-0.010317202657461166,-0.2755533754825592,0.7660658955574036
1782811757669166300,1.508166259765625,0.16672469675540924,-0.042486026883125305,0.7869242429733276
1782811757679238400,1.51823828125,0.27861928939819336,0.1523154228925705,0.7170231938362122
1782811757689309400,1.528309326171875,0.31637144088745117,0.264782577753067,0.6282283663749695
1782811757699381200,1.53838134765625,0.3074676990509033,0.3397159278392792,0.5575520992279053
1782811757709452300,1.548452392578125,0.2681805491447449,0.3975593149662018,0.5153449177742004
1782811757719524400,1.5585244140625,0.23539279401302338,0.44602006673812866,0.5062485933303833
1782811757729596400,1.568596435546875,0.2248794436454773,0.49619683623313904,0.5430812835693359
1782811757739667200,1.578667236328125,0.22491326928138733,0.5528246760368347,0.6113910675048828
1782811757749739300,1.5887392578125,0.24336685240268707,0.5987639427185059,0.6621701121330261
1782811757759810300,1.598810302734375,0.2564312219619751,0.6492281556129456,0.6925117373466492
1782811757769882000,1.608882080078125,0.2476474791765213,0.7065797448158264,0.6902584433555603
1782811757779953200,1.618953125,0.21611085534095764,0.7851288914680481,0.6661922931671143
1782811757790025200,1.629025146484375,0.16257166862487793,0.8791813254356384,0.6405166983604431
1782811757800096300,1.63909619140625,0.14511996507644653,0.9275877475738525,0.6276043653488159
1782811757810168300,1.649168212890625,0.1829555779695511,0.941537082195282,0.6270526051521301
1782811757820240400,1.659240478515625,0.2897323668003082,0.9019763469696045,0.6774438619613647
1782811757830311400,1.6693115234375,0.4335108995437622,0.869857907295227,0.8227424621582031
1782811757840383200,1.67938330078125,0.6030898094177246,0.8272629976272583,1.0261554718017578
1782811757850454300,1.689454345703125,0.7938486933708191,0.9306902289390564,1.2116332054138184
1782811757860526300,1.6995263671875,0.9455641508102417,1.1907918453216553,1.3416974544525146
1782811757870597400,1.709597412109375,1.0536009073257446,1.4875755310058594,1.3746916055679321
1782811757880669400,1.71966943359375,1.1695951223373413,1.6836951971054077,1.2947264909744263
1782811757890740500,1.729740478515625,1.2867227792739868,1.586032509803772,1.1349070072174072
1782811757900812300,1.739812255859375,1.298978328704834,1.1044597625732422,0.9626731276512146
1782811757910884400,1.74988427734375,1.2341595888137817,0.561320960521698,0.7919987440109253
1782811757920955100,1.759955078125,1.195481777191162,0.22368672490119934,0.6342477202415466
1782811757931027200,1.770027099609375,1.095594882965088,-0.013332204893231392,0.5184246897697449
1782811757941098200,1.78009814453125,0.9222838878631592,-0.3133724629878998,0.4538477063179016
1782811757951170300,1.79017041015625,0.7458511590957642,-0.5901178121566772,0.3915090560913086
1782811757961241300,1.800241455078125,0.6091670393943787,-0.6832647919654846,0.3023328483104706
1782811757971313200,1.810313232421875,0.4839015603065491,-0.625593900680542,0.15308877825737
1782811757981384200,1.82038427734375,0.31860607862472534,-0.5846395492553711,-0.07170092314481735
1782811757991456300,1.830456298828125,0.14025461673736572,-0.5620468854904175,-0.33446383476257324
1782811758001527300,1.84052734375,-0.0062714386731386185,-0.5659604072570801,-0.5804959535598755
1782811758011599400,1.850599365234375,-0.12565524876117706,-0.6837901473045349,-0.7751107811927795
1782811758021671200,1.860671142578125,-0.22256608307361603,-0.9028828144073486,-0.8764267563819885
1782811758031742200,1.8707421875,-0.288894385099411,-1.151904582977295,-0.8655658960342407
1782811758041814300,1.880814208984375,-0.365595281124115,-1.3670858144760132,-0.8045248985290527
1782811758051885300,1.89088525390625,-0.48779091238975525,-1.416318416595459,-0.755135178565979
1782811758061957400,1.900957275390625,-0.6188322901725769,-1.26815927028656,-0.7697937488555908
1782811758072028400,1.9110283203125,-0.6987876892089844,-0.977203905582428,-0.8461930155754089
1782811758082100500,1.9211005859375,-0.7368578910827637,-0.6402455568313599,-0.9426947832107544
1782811758092171300,1.931171142578125,-0.7347431778907776,-0.23469266295433044,-1.036971926689148
1782811758102243000,1.9412431640625,-0.6885666251182556,0.2002907544374466,-1.104076623916626
1782811758112314000,1.951314208984375,-0.6354343295097351,0.5243532061576843,-1.1308932304382324
1782811758122386000,1.961385986328125,-0.6227174401283264,0.6721897721290588,-1.1593350172042847
1782811758132458000,1.9714580078125,-0.6597537398338318,0.5367023944854736,-1.1906442642211914
1782811758142529000,1.981529052734375,-0.7110345363616943,0.2195470780134201,-1.1581740379333496
1782811758152601000,1.99160107421875,-0.6856932640075684,-0.09011025726795197,-1.060498595237732
1782811758162672000,2.001672119140625,-0.5571528673171997,-0.24867965281009674,-0.8763052821159363
1782811758172744000,2.011743896484375,-0.36974480748176575,-0.3232609033584595,-0.658441424369812
1782811758182814700,2.021814697265625,-0.19826705753803253,-0.34478190541267395,-0.4371239244937897
1782811758192887000,2.031886962890625,-0.04688386991620064,-0.2816217243671417,-0.25211071968078613
1782811758202957800,2.041957763671875,0.08485126495361328,-0.16569137573242188,-0.13354413211345673
1782811758213030000,2.05202978515625,0.18186061084270477,-0.06343770772218704,-0.06505504250526428
1782811758223102000,2.06210205078125,0.2369515597820282,0.03789956495165825,-0.004252411890774965
1782811758233173000,2.072173095703125,0.25656938552856445,0.11580097675323486,0.059153709560632706
1782811758243244800,2.082244873046875,0.24996636807918549,0.18082977831363678,0.12823185324668884
1782811758253315800,2.09231591796875,0.19584448635578156,0.26390478014945984,0.19988366961479187
1782811758263388000,2.102387939453125,0.12316282838582993,0.3545457422733307,0.24731510877609253
1782811758273459000,2.112458984375,0.055703647434711456,0.4385639429092407,0.24849537014961243
1782811758283531000,2.122531005859375,0.017725905403494835,0.5109135508537292,0.21809619665145874
1782811758293602000,2.13260205078125,0.0023273066617548466,0.5776375532150269,0.2307514101266861
1782811758303673900,2.142673828125,-0.0028578676283359528,0.5466122627258301,0.29204487800598145
1782811758313746000,2.152745849609375,0.001891238847747445,0.45073091983795166,0.4152873754501343
1782811758323817000,2.16281689453125,0.017780456691980362,0.3739684820175171,0.6019464731216431
1782811758333889000,2.172888916015625,0.01659896783530712,0.36646509170532227,0.7991159558296204
1782811758343960000,2.1829599609375,0.02735387720167637,0.4341075122356415,0.9780036807060242
1782811758354032000,2.1930322265625,0.1331339031457901,0.6476314067840576,1.1596314907073975
1782811758364103000,2.20310302734375,0.35094746947288513,0.9839311242103577,1.3249419927597046
1782811758374174700,2.2131748046875,0.5806416869163513,1.3214797973632812,1.4394770860671997
1782811758384245800,2.223245849609375,0.7136309146881104,1.5990616083145142,1.5168136358261108
1782811758394317800,2.23331787109375,0.8097749948501587,1.6277594566345215,1.5210264921188354
1782811758404388900,2.243388916015625,0.8892005681991577,1.2357232570648193,1.43394935131073
1782811758414461000,2.2534609375,0.795590341091156,0.43849891424179077,1.3484632968902588
1782811758424533000,2.263532958984375,0.6119512915611267,-0.2646408677101135,1.2828861474990845
1782811758434604000,2.27360400390625,0.5296037793159485,-0.5385376811027527,1.180281162261963
1782811758444675800,2.28367578125,0.4822024703025818,-0.6181281208992004,1.033674716949463
1782811758454747000,2.293746826171875,0.35503315925598145,-0.7652218341827393,0.8922525644302368
1782811758464819000,2.30381884765625,0.2023240327835083,-0.8529505729675293,0.826555073261261
1782811758474890000,2.313889892578125,0.04849771037697792,-0.7983621954917908,0.8088828325271606
1782811758484962000,2.323962158203125,-0.1317168027162552,-0.6388478875160217,0.7395511865615845
1782811758495033000,2.334033203125,-0.3036341369152069,-0.39668557047843933,0.5093145370483398
1782811758505105000,2.34410498046875,-0.3913187086582184,-0.11498863250017166,0.1284523606300354
1782811758515177000,2.354177001953125,-0.4484734535217285,0.04542338103055954,-0.33596962690353394
1782811758525248000,2.364248046875,-0.5272183418273926,0.014875324442982674,-0.760284960269928
1782811758535320000,2.374320068359375,-0.6045379042625427,-0.286117285490036,-1.0632383823394775
1782811758545390800,2.384390869140625,-0.6169242262840271,-0.8256497979164124,-1.1819379329681396
1782811758555463000,2.394462890625,-0.49306970834732056,-1.3865846395492554,-1.0991524457931519
1782811758565534000,2.404533935546875,-0.29683253169059753,-1.681158185005188,-0.8590825796127319
1782811758575605800,2.414605712890625,-0.09957863390445709,-1.678100347518921,-0.5732417702674866
1782811758585676800,2.4246767578125,0.08044013381004333,-1.4533060789108276,-0.3394942581653595
1782811758595748900,2.434748779296875,0.1930897831916809,-1.11899995803833,-0.2373618185520172
1782811758605820000,2.44481982421875,0.16857539117336273,-0.7131301164627075,-0.25196418166160583
1782811758615892000,2.45489208984375,0.04297880083322525,-0.22381702065467834,-0.3424443006515503
1782811758625964000,2.464964111328125,-0.10398481786251068,0.23576921224594116,-0.5069866180419922
1782811758636035000,2.47503515625,-0.2815749943256378,0.5152914524078369,-0.7017627358436584
1782811758646107000,2.48510693359375,-0.4680061340332031,0.6228981018066406,-0.8486680388450623
1782811758656178000,2.495177978515625,-0.6195457577705383,0.5953303575515747,-0.890133798122406
1782811758666250000,2.50525,-0.6755145192146301,0.5056760907173157,-0.7960302233695984
1782811758676321000,2.515321044921875,-0.6132062673568726,0.3974839448928833,-0.6147751212120056
1782811758686393000,2.52539306640625,-0.4756060838699341,0.30640941858291626,-0.3969349265098572
1782811758696464100,2.535464111328125,-0.2927457392215729,0.24477514624595642,-0.19606661796569824
1782811758706536000,2.545535888671875,-0.09259185940027237,0.2169664204120636,-0.029174041002988815
1782811758716607000,2.55560693359375,0.06088414043188095,0.21165341138839722,0.07621369510889053
1782811758726678800,2.5656787109375,0.15732412040233612,0.1921534687280655,0.11738882958889008
1782811758736750800,2.575750732421875,0.20440062880516052,0.1672423928976059,0.10625223815441132
1782811758746822000,2.58582177734375,0.20191536843776703,0.12865053117275238,0.051794588565826416
1782811758756894000,2.59589404296875,0.16657553613185883,0.1314578354358673,-0.01795940287411213
1782811758766965000,2.605965087890625,0.10367938131093979,0.16061198711395264,-0.10151341557502747
1782811758777036800,2.616036865234375,0.028171999379992485,0.20094722509384155,-0.1809121072292328
1782811758787107800,2.62610791015625,-0.03946376591920853,0.26358744502067566,-0.21608874201774597
1782811758797180000,2.636179931640625,-0.08284051716327667,0.32906603813171387,-0.17226247489452362
1782811758807251000,2.6462509765625,-0.12894941866397858,0.3605976104736328,-0.05642241612076759
1782811758817323000,2.656322998046875,-0.1696408987045288,0.35249748826026917,0.0941479429602623
1782811758827395000,2.66639501953125,-0.17801840603351593,0.2665623426437378,0.26268821954727173
1782811758837466000,2.676466064453125,-0.15259835124015808,0.1815909594297409,0.46077629923820496
1782811758847538000,2.686537841796875,-0.11207250505685806,0.16777661442756653,0.7028173804283142
1782811758857609000,2.69660888671875,-0.10723686963319778,0.17025859653949738,0.8888255953788757
1782811758867681000,2.706680908203125,-0.11513154208660126,0.12662270665168762,0.9405982494354248
1782811758877752000,2.716751953125,-0.03926179185509682,0.04182728752493858,0.9271458387374878
1782811758887824100,2.72682421875,0.1317078322172165,-0.11439453810453415,0.9430222511291504
1782811758897895000,2.73689501953125,0.29380133748054504,-0.24257412552833557,1.0038996934890747
1782811758907967000,2.746967041015625,0.36243152618408203,-0.30401939153671265,1.0216768980026245
1782811758918038000,2.7570380859375,0.2994920313358307,-0.4796433448791504,0.9430651664733887
1782811758928109800,2.76710986328125,0.00886126421391964,-0.7868238091468811,0.7438045144081116
1782811758938182000,2.777181884765625,-0.353993684053421,-0.7582650184631348,0.34321266412734985
1782811758948253000,2.7872529296875,-0.633786678314209,-0.5182335376739502,-0.1843036264181137
1782811758958325000,2.797324951171875,-0.8631974458694458,-0.33127105236053467,-0.7466528415679932
1782811758968396000,2.80739599609375,-1.0822242498397827,-0.3627261817455292,-1.247313141822815
1782811758978467800,2.8174677734375,-1.2337983846664429,-0.39814773201942444,-1.534609317779541
1782811758988539000,2.827538818359375,-1.2200431823730469,-0.2759893238544464,-1.7001492977142334
1782811758998611000,2.83761083984375,-1.078466534614563,-0.19413992762565613,-1.880661129951477
1782811759008682000,2.847681884765625,-0.8453614711761475,-0.34130221605300903,-2.0572118759155273
1782811759018754000,2.857754150390625,-0.547481119632721,-0.6746716499328613,-2.105314016342163
1782811759028825000,2.8678251953125,-0.18770401179790497,-1.1117966175079346,-1.9125466346740723
1782811759038897200,2.877897216796875,0.1943489909172058,-1.5521725416183472,-1.4430928230285645
1782811759048969000,2.887968994140625,0.5349624752998352,-1.7981325387954712,-0.7923720479011536
1782811759059040000,2.8980400390625,0.7843818068504333,-1.7790383100509644,-0.17274153232574463
1782811759069112000,2.908112060546875,0.902910053730011,-1.5754172801971436,0.2528630197048187
1782811759079182800,2.918182861328125,0.9072896242141724,-1.3267066478729248,0.4561128318309784
1782811759089255000,2.9282548828125,0.840382993221283,-1.046787977218628,0.49861395359039307
1782811759099326000,2.938325927734375,0.7311002016067505,-0.742691159248352,0.43763893842697144
1782811759109398000,2.94839794921875,0.6151672005653381,-0.41754022240638733,0.35521143674850464
1782811759119469000,2.958468994140625,0.5160756707191467,-0.14096733927726746,0.27894121408462524
1782811759129541000,2.968541015625,0.4432917535305023,0.04118488356471062,0.21289482712745667
1782811759139612000,2.97861181640625,0.41647279262542725,0.10166004300117493,0.16400907933712006
1782811759149684200,2.988684326171875,0.43497589230537415,0.10826042294502258,0.13957297801971436
1782811759159756300,2.99875634765625,0.47631698846817017,0.131476491689682,0.13595525920391083
1782811759169827000,3.0088271484375,0.5779737830162048,0.18238574266433716,0.16778136789798737
1782811759179899000,3.01889892578125,0.7193685173988342,0.23793083429336548,0.21056753396987915
1782811759189970000,3.028969970703125,0.8486732840538025,0.3388745188713074,0.24165302515029907
1782811759200042000,3.0390419921875,0.9553084969520569,0.5047813057899475,0.2506967782974243
1782811759210113000,3.049113037109375,1.0220617055892944,0.7502179741859436,0.2491774559020996
1782811759220185000,3.05918505859375,1.0235449075698853,1.0283756256103516,0.24803665280342102
1782811759230256000,3.069256103515625,0.9506140351295471,1.2911555767059326,0.2352209836244583
1782811759240328200,3.079328125,0.8012241125106812,1.4605516195297241,0.22516968846321106
1782811759250399200,3.089399169921875,0.6014503240585327,1.5288243293762207,0.21543529629707336
1782811759260471000,3.099470947265625,0.39853164553642273,1.476326823234558,0.17428068816661835
1782811759270543000,3.109543212890625,0.20345908403396606,1.4131470918655396,0.06762880831956863
1782811759280614100,3.1196142578125,0.020007703453302383,1.4052889347076416,-0.096146360039711
1782811759290686200,3.129686279296875,-0.15451748669147491,1.3832486867904663,-0.2902522087097168
1782811759300757200,3.13975732421875,-0.28949838876724243,1.3850984573364258,-0.4645184874534607
1782811759310829000,3.1498291015625,-0.3782612979412079,1.43643057346344,-0.5821886658668518
1782811759320899800,3.15989990234375,-0.43439018726348877,1.49928879737854,-0.6200149059295654
1782811759330972200,3.16997216796875,-0.4701559245586395,1.4817841053009033,-0.5593379735946655
1782811759341043000,3.18004296875,-0.48124200105667114,1.3520991802215576,-0.40110141038894653
1782811759351115000,3.190114990234375,-0.4465181231498718,1.181869626045227,-0.19783620536327362
1782811759361187000,3.20018701171875,-0.3560712933540344,1.0403213500976562,-0.014947068877518177
1782811759371258000,3.210258056640625,-0.20211635529994965,0.8784945607185364,0.15035933256149292
1782811759381330000,3.220329833984375,0.01555305253714323,0.8222813010215759,0.37597358226776123
1782811759391401000,3.23040087890625,0.2940185070037842,0.7936757206916809,0.6342235207557678
1782811759401473000,3.24047314453125,0.5895559191703796,0.7296782732009888,0.9056059122085571
1782811759411544000,3.2505439453125,0.8406171798706055,0.6833906769752502,1.1578257083892822
1782811759421616000,3.2606162109375,0.9847263693809509,0.5891287922859192,1.3498058319091797
1782811759431687200,3.270687255859375,0.9250979423522949,0.43085047602653503,1.4631028175354004
1782811759441759200,3.28075927734375,0.6285606026649475,0.14022274315357208,1.431383728981018
1782811759451830300,3.290830322265625,0.27212709188461304,-0.10572177916765213,1.1942609548568726
1782811759461902000,3.300902099609375,0.0768299251794815,-0.3095707595348358,0.7833695411682129
1782811759471974100,3.31097412109375,-0.019333090633153915,-0.5729861259460449,0.30653512477874756
1782811759482045200,3.321045166015625,-0.08925733715295792,-0.8331965804100037,-0.1105678603053093
1782811759492117200,3.3311171875,-0.04511783644556999,-1.0153480768203735,-0.39914798736572266
1782811759502188000,3.34118798828125,0.09964356571435928,-1.0343902111053467,-0.5307848453521729
1782811759512259800,3.351259765625,0.2194940745830536,-0.9251453280448914,-0.5336709022521973
1782811759522331000,3.361330810546875,0.22199192643165588,-0.8541737794876099,-0.5174792408943176
1782811759532403000,3.37140283203125,0.11435892432928085,-0.7391465306282043,-0.5578010678291321
1782811759542474000,3.381473876953125,-0.024769376963377,-0.6766416430473328,-0.7011480927467346
1782811759552546000,3.391546142578125,-0.20995202660560608,-0.6582099199295044,-0.9330015778541565
1782811759562617000,3.4016171875,-0.5100012421607971,-0.7142786979675293,-1.2415567636489868
1782811759572689200,3.411689208984375,-0.8157802820205688,-0.9393008947372437,-1.5423405170440674
1782811759582761000,3.421760986328125,-1.0033392906188965,-1.1877750158309937,-1.7513196468353271
1782811759592832000,3.43183203125,-1.03556489944458,-1.4675203561782837,-1.8137606382369995
1782811759602904000,3.441904052734375,-0.9015902876853943,-1.7425181865692139,-1.7290552854537964
1782811759612975000,3.45197509765625,-0.6821913123130798,-1.9129130840301514,-1.563197135925293
1782811759623047200,3.462047119140625,-0.45327749848365784,-1.7988840341567993,-1.3561080694198608
1782811759633118200,3.4721181640625,-0.28847628831863403,-1.492421269416809,-1.1260833740234375
1782811759643190300,3.482190185546875,-0.23188699781894684,-1.1461375951766968,-0.970192551612854
1782811759653261300,3.49226123046875,-0.27112653851509094,-0.7237806916236877,-1.051032304763794
1782811759663333000,3.5023330078125,-0.41287344694137573,-0.27424731850624084,-1.2329387664794922
1782811759673404000,3.51240380859375,-0.5904682278633118,0.09100069105625153,-1.2856576442718506
1782811759683476000,3.52247607421875,-0.7626962065696716,0.3134646713733673,-1.1309064626693726
1782811759693548000,3.532548095703125,-0.8654337525367737,0.36365461349487305,-0.781822919845581
1782811759703619000,3.542619140625,-0.9162631630897522,0.3140355050563812,-0.31490474939346313
1782811759713691000,3.55269091796875,-0.9246401190757751,0.28270289301872253,0.06559732556343079
1782811759723762000,3.562761962890625,-0.9062489867210388,0.3197896182537079,0.2631564736366272
1782811759733834000,3.572833984375,-0.8641196489334106,0.40065518021583557,0.3391191363334656
1782811759743905000,3.582905029296875,-0.7864415645599365,0.5124897956848145,0.35096174478530884
1782811759753977000,3.59297705078125,-0.656548023223877,0.6288811564445496,0.3644160330295563
1782811759764048100,3.603048095703125,-0.4902912974357605,0.7002065777778625,0.4026815891265869
1782811759774120200,3.6131201171875,-0.33501943945884705,0.7289801239967346,0.46437132358551025
1782811759784191200,3.623191162109375,-0.22268448770046234,0.7284669280052185,0.5220022201538086
1782811759794263000,3.633262939453125,-0.1987708956003189,0.6783449053764343,0.5985867381095886
1782811759804335000,3.643335205078125,-0.265804648399353,0.5701082944869995,0.6889405846595764
1782811759814406100,3.65340625,-0.39382094144821167,0.4141937792301178,0.7889742255210876
1782811759824478200,3.663478271484375,-0.510565996170044,0.24250063300132751,0.8839731812477112
1782811759834549200,3.67354931640625,-0.5702783465385437,0.05444497987627983,0.9608413577079773
1782811759844621000,3.68362109375,-0.5652261972427368,-0.1189965158700943,0.9910709857940674
1782811759854692000,3.693692138671875,-0.5038416385650635,-0.13076528906822205,0.9626520872116089
1782811759864764000,3.703763916015625,-0.41775715351104736,0.013820784166455269,0.8467177152633667
1782811759874835000,3.7138349609375,-0.2665258049964905,0.15464475750923157,0.7312848567962646
1782811759884907000,3.723906982421875,-0.06018050014972687,0.2856071889400482,0.7562510967254639
1782811759894978000,3.73397802734375,0.13932886719703674,0.4677461087703705,0.947585940361023
1782811759905050000,3.744050048828125,0.2503332793712616,0.7137476205825806,1.26716148853302
1782811759915121200,3.75412109375,0.2455555647611618,0.9108508229255676,1.6466323137283325
1782811759925193000,3.76419287109375,0.22745922207832336,0.9384539127349854,1.9553287029266357
1782811759935265000,3.77426513671875,0.30939725041389465,0.6284251809120178,2.0855016708374023
1782811759945336000,3.784336181640625,0.4133055508136749,0.09421771764755249,2.0555579662323
1782811759955408100,3.794408203125,0.3356839716434479,-0.4291536211967468,1.837266206741333
1782811759965479200,3.804479248046875,0.17036746442317963,-0.7874654531478882,1.4560160636901855
1782811759975551200,3.81455126953125,0.09272274374961853,-1.034252643585205,1.006099820137024
1782811759985622300,3.824622314453125,0.05906473472714424,-1.2822822332382202,0.5450398325920105
1782811759995694000,3.834694091796875,-0.018360015004873276,-1.507142424583435,0.108461394906044
1782811760005764900,3.844764892578125,-0.13714569807052612,-1.507253885269165,-0.2643718123435974
1782811760015837200,3.854837158203125,-0.2783222496509552,-1.1898527145385742,-0.5523905158042908
1782811760025908000,3.864907958984375,-0.4265613853931427,-0.6864703297615051,-0.7885620594024658
1782811760035980000,3.87497998046875,-0.5492937564849854,-0.18126973509788513,-0.9736107587814331
1782811760046052000,3.885052001953125,-0.6268919110298157,0.20616133511066437,-1.0853813886642456
1782811760056123100,3.895123046875,-0.6621207594871521,0.3304119110107422,-1.0772504806518555
1782811760066195000,3.90519482421875,-0.6392871141433716,0.17668287456035614,-0.9235544800758362
1782811760076266000,3.915265869140625,-0.5663695335388184,-0.24701006710529327,-0.645082414150238
1782811760086338000,3.925338134765625,-0.46111512184143066,-0.7984650135040283,-0.32132747769355774
1782811760096409000,3.9354091796875,-0.3302692472934723,-1.232620120048523,-0.06860654801130295
1782811760106481200,3.945481201171875,-0.2341875433921814,-1.3604152202606201,0.05240938067436218
1782811760116551700,3.9555517578125,-0.18971647322177887,-1.18881094455719,0.04100492596626282
1782811760126623700,3.965623779296875,-0.17208482325077057,-0.8118227124214172,-0.04219463840126991
1782811760136694800,3.97569482421875,-0.16140393912792206,-0.3550804555416107,-0.13799254596233368
1782811760146766600,3.9857666015625,-0.15712903439998627,0.01730988547205925,-0.214496910572052
1782811760156838700,3.995838623046875,-0.15923719108104706,0.2563110291957855,-0.2302609533071518
1782811760166909700,4.00590966796875,-0.1540163904428482,0.421980619430542,-0.1726863831281662
1782811760176981800,4.015981689453125,-0.15035533905029297,0.568294107913971,-0.062196627259254456
1782811760187052800,4.026052734375,-0.1411532461643219,0.7403908371925354,0.0840625986456871
1782811760197124600,4.03612451171875,-0.12750427424907684,0.9155474901199341,0.25853589177131653
1782811760207195600,4.046195556640625,-0.12088576704263687,1.021323323249817,0.4429038465023041
1782811760217267700,4.056267822265625,-0.12759986519813538,1.024537444114685,0.6159057021141052
1782811760227338500,4.06633837890625,-0.13110265135765076,0.9457448124885559,0.7650818228721619
1782811760237410600,4.07641064453125,-0.12031684815883636,0.8476361036300659,0.8994665145874023
1782811760247481600,4.086481689453125,-0.08397087454795837,0.7815815210342407,1.0229058265686035
1782811760257553700,4.0965537109375,-0.026608781889081,0.7534809112548828,1.126887559890747
1782811760267624700,4.106624755859375,0.047557149082422256,0.7729315757751465,1.2070125341415405
1782811760277696500,4.116696533203125,0.12390279024839401,0.8380791544914246,1.2864329814910889
1782811760287768600,4.1267685546875,0.1767200231552124,0.9031591415405273,1.3547626733779907
1782811760297839600,4.136839599609375,0.17603638768196106,0.896164059638977,1.3820033073425293
1782811760307911700,4.14691162109375,0.09660438448190689,0.8265335559844971,1.3506170511245728
1782811760317982700,4.156982666015625,-0.047175951302051544,0.7818729281425476,1.2638778686523438
1782811760328054800,4.1670546875,-0.23017707467079163,0.8148229718208313,1.1354938745498657
1782811760338125800,4.177125732421875,-0.4160907566547394,0.8937149047851562,0.992774248123169
1782811760348197600,4.18719775390625,-0.5621137022972107,0.9170994162559509,0.8385487198829651
1782811760358268700,4.1972685546875,-0.651448130607605,0.7846428155899048,0.6938315033912659
1782811760368340700,4.2073408203125,-0.6494426131248474,0.5089167356491089,0.5514724254608154
1782811760378411800,4.217411865234375,-0.5082575082778931,0.2678074538707733,0.4208217263221741
1782811760388483800,4.22748388671875,-0.22544437646865845,0.3003304600715637,0.38606324791908264
1782811760398555600,4.2375556640625,0.14956597983837128,0.6875743269920349,0.5004891753196716
1782811760408626400,4.24762646484375,0.4945083260536194,1.1195151805877686,0.6833286881446838
1782811760418698500,4.257698486328125,0.6302909851074219,1.2807285785675049,0.8240621089935303
1782811760428769500,4.26776953125,0.5103709697723389,1.0751615762710571,0.8484430909156799
1782811760438841600,4.277841552734375,0.2229861170053482,0.6927095055580139,0.7541349530220032
1782811760448912600,4.28791259765625,-0.02121821790933609,0.400285542011261,0.6175322532653809
1782811760458984700,4.297984619140625,-0.11027298867702484,0.1385231763124466,0.46033406257629395
1782811760469055700,4.3080556640625,-0.11629155278205872,-0.31891751289367676,0.19959615170955658
1782811760479127600,4.31812744140625,-0.13169874250888824,-0.8830775618553162,-0.1559174805879593
1782811760489198600,4.328198486328125,-0.11069292575120926,-1.3406975269317627,-0.520034670829773
1782811760499270700,4.338270751953125,-0.017588544636964798,-1.629105567932129,-0.7989680171012878
1782811760509342700,4.3483427734375,0.07069231569766998,-1.6855946779251099,-0.9630930423736572
1782811760519413800,4.358413818359375,0.1116366982460022,-1.4626801013946533,-1.030211091041565
1782811760529485800,4.36848583984375,0.08837046474218369,-1.1346418857574463,-1.088273048400879
1782811760539556900,4.378556884765625,0.016118105500936508,-0.9631222486495972,-1.1936860084533691
1782811760549628700,4.388628662109375,-0.03387173265218735,-1.0152900218963623,-1.3060808181762695
1782811760559699700,4.39869970703125,-0.03356759995222092,-1.1943628787994385,-1.3245444297790527
1782811760569771800,4.408771728515625,0.013370747677981853,-1.4482442140579224,-1.2277345657348633
1782811760579842600,4.418842529296875,0.11469363421201706,-1.7528207302093506,-1.0552589893341064
1782811760589914600,4.42891455078125,0.22508645057678223,-2.063720703125,-0.8969992995262146
1782811760599985700,4.438985595703125,0.2866014540195465,-2.2809441089630127,-0.87992262840271
1782811760610057500,4.449057373046875,0.2803317904472351,-2.292501211166382,-1.0471075773239136
1782811760620128500,4.45912841796875,0.24852697551250458,-2.092005491256714,-1.320723056793213
1782811760630200600,4.46920068359375,0.23102474212646484,-1.7079031467437744,-1.5882514715194702
1782811760640272600,4.479272705078125,0.2507920563220978,-1.215522289276123,-1.7483633756637573
1782811760650343700,4.48934375,0.30902519822120667,-0.718123197555542,-1.7542519569396973
1782811760660415700,4.499415771484375,0.4006856083869934,-0.33009716868400574,-1.581305742263794
1782811760670486800,4.50948681640625,0.5295512676239014,-0.1120849996805191,-1.282534122467041
1782811760680558600,4.51955859375,0.6911521553993225,-0.03744032233953476,-0.8875719308853149
1782811760690629600,4.529629638671875,0.8248423933982849,-0.0009592557325959206,-0.46005555987358093
1782811760700701700,4.53970166015625,0.8431803584098816,0.05463529750704765,-0.04672681540250778
1782811760710772700,4.549772705078125,0.7158213257789612,0.08885292708873749,0.3001336455345154
1782811760720844800,4.5598447265625,0.47113335132598877,0.03331456333398819,0.5417409539222717
1782811760730915600,4.56991552734375,0.18420878052711487,-0.07049890607595444,0.6706284284591675
1782811760740988000,4.57998779296875,-0.06375069171190262,-0.10426885634660721,0.7550777792930603
1782811760751059700,4.590059814453125,-0.2536710798740387,0.10831691324710846,0.8636447787284851
1782811760761130500,4.600130615234375,-0.33085936307907104,0.3938988447189331,0.9771252274513245
1782811760771202600,4.61020263671875,-0.2932494580745697,0.5425489544868469,1.0440057516098022
1782811760781273600,4.620273681640625,-0.2141280174255371,0.5451655387878418,1.0443320274353027
1782811760791345700,4.630345703125,-0.14332927763462067,0.46741610765457153,0.9919281601905823
1782811760801416700,4.640416748046875,-0.08353598415851593,0.43199872970581055,0.9246111512184143
1782811760811488500,4.650488525390625,-0.020482666790485382,0.5058746933937073,0.8796454668045044
1782811760821559600,4.6605595703125,0.052837617695331573,0.6358491778373718,0.8863340020179749
1782811760831631600,4.670631591796875,0.10213296115398407,0.7247326970100403,0.9281691908836365
1782811760841702700,4.68070263671875,0.09119962155818939,0.7003868818283081,0.9632734060287476
1782811760851774700,4.690774658203125,0.03493618220090866,0.5794491171836853,0.9511325359344482
1782811760861845800,4.700845703125,-0.019573133438825607,0.40132811665534973,0.857083261013031
1782811760871917800,4.710917724609375,-0.05990752950310707,0.25253570079803467,0.7341277599334717
1782811760881989600,4.72098974609375,-0.080745168030262,0.1609128713607788,0.6575579047203064
1782811760892060700,4.731060791015625,-0.04438340663909912,0.1461685746908188,0.7122122645378113
1782811760902132700,4.7411328125,0.029866857454180717,0.3327094316482544,0.9293379783630371
1782811760912203500,4.75120361328125,0.03269442170858383,0.5304652452468872,1.214242696762085
1782811760922275600,4.761275634765625,-0.08696407079696655,0.5813817381858826,1.410892367362976
1782811760932346600,4.7713466796875,-0.23760630190372467,0.390606164932251,1.4575587511062622
1782811760942418700,4.781418701171875,-0.2941840887069702,0.09394920617341995,1.3606507778167725
1782811760952489700,4.79148974609375,-0.2723395526409149,-0.21324197947978973,1.1987018585205078
1782811760962561500,4.8015615234375,-0.2824918031692505,-0.591607391834259,0.932399570941925
1782811760972632600,4.811632568359375,-0.38857507705688477,-0.9958893656730652,0.47955000400543213
1782811760982704600,4.82170458984375,-0.5202867388725281,-1.1830710172653198,-0.1303626000881195
1782811760992776700,4.831776611328125,-0.6129148602485657,-1.1093990802764893,-0.8213226199150085
1782811761002847700,4.84184765625,-0.6681557297706604,-0.9114491939544678,-1.471396803855896
1782811761012919600,4.85191943359375,-0.7719058394432068,-0.6600142121315002,-1.993538498878479
1782811761022990600,4.861990478515625,-0.9664947986602783,-0.42889419198036194,-2.3696577548980713
1782811761033062700,4.872062744140625,-1.1541247367858887,-0.24184249341487885,-2.576295852661133
1782811761043133700,4.8821337890625,-1.1652271747589111,-0.13650035858154297,-2.5868279933929443
1782811761053205800,4.892205810546875,-0.9694205522537231,-0.16862981021404266,-2.3934342861175537
1782811761063276800,4.90227685546875,-0.6555656790733337,-0.33102723956108093,-2.0096793174743652
1782811761073348900,4.912348876953125,-0.3377397954463959,-0.6240763664245605,-1.50823175907135
1782811761083419600,4.922419677734375,-0.1156366765499115,-0.9915332198143005,-1.0338002443313599
1782811761093491500,4.932491455078125,-0.0732487216591835,-1.2683614492416382,-0.7741753458976746
1782811761103562500,4.9425625,-0.18089795112609863,-1.3436940908432007,-0.7596358060836792
1782811761113634600,4.952634521484375,-0.3284611701965332,-1.1914288997650146,-0.9501708745956421
1782811761123707100,4.96270703125,-0.4545147120952606,-0.8524643182754517,-1.2775362730026245
1782811761133778200,4.972778076171875,-0.5410856604576111,-0.3715181350708008,-1.632704734802246
1782811761143850000,4.98285009765625,-0.5700185298919678,0.15265585482120514,-1.9391216039657593
1782811761153921000,4.992921142578125,-0.5416038036346436,0.6288405060768127,-2.1592659950256348
1782811761163993000,5.0029931640625,-0.45521244406700134,1.0093224048614502,-2.281874418258667
1782811761174064000,5.013064208984375,-0.3333451747894287,1.2350996732711792,-2.29300594329834
1782811761184136200,5.02313623046875,-0.2232690006494522,1.170192003250122,-2.2081503868103027
1782811761194207200,5.033207275390625,-0.1778765767812729,0.7747179865837097,-2.0326333045959473
1782811761204279300,5.043279296875,-0.207047238945961,0.16833031177520752,-1.7422820329666138
1782811761214350300,5.053350341796875,-0.2518635392189026,-0.4428235590457916,-1.3184001445770264
1782811761224422100,5.063422119140625,-0.2793867588043213,-0.8644304275512695,-0.7839630842208862
1782811761234493200,5.0734931640625,-0.2604605257511139,-1.0253894329071045,-0.18878273665905
1782811761244565200,5.083565185546875,-0.1723644882440567,-0.9186385273933411,0.4119952321052551
1782811761254637300,5.09363720703125,-0.035626448690891266,-0.5736047625541687,0.9891784191131592
1782811761264708000,5.1037080078125,0.10081608593463898,-0.14822570979595184,1.5111111402511597
1782811761274780200,5.1137802734375,0.17673571407794952,0.24224084615707397,1.9508190155029297
1782811761284851200,5.123851318359375,0.17759057879447937,0.5306110978126526,2.290046453475952
1782811761294923000,5.133923095703125,0.10470876097679138,0.675527811050415,2.547075033187866
1782811761304994000,5.143994140625,-0.018404381349682808,0.7087938785552979,2.722156047821045
1782811761315066000,5.154066162109375,-0.16467881202697754,0.6960635185241699,2.8036398887634277
1782811761325137200,5.16413720703125,-0.3037882447242737,0.680442214012146,2.7801196575164795
1782811761335209200,5.174209228515625,-0.4026790261268616,0.6386967897415161,2.6181528568267822
1782811761345280300,5.1842802734375,-0.4300486147403717,0.48930835723876953,2.3080008029937744
1782811761355352000,5.19435205078125,-0.40506482124328613,0.2627047300338745,1.9762468338012695
1782811761365424000,5.204424072265625,-0.3451351821422577,0.09942925721406937,1.6982102394104004
1782811761375495200,5.2144951171875,-0.23029178380966187,0.08938995003700256,1.4740252494812012
1782811761385567200,5.224567138671875,-0.09310809522867203,0.20834589004516602,1.2505178451538086
1782811761395638300,5.23463818359375,0.038422927260398865,0.35948655009269714,1.019126534461975
1782811761405710300,5.24471044921875,0.15644757449626923,0.46667638421058655,0.8219789862632751
1782811761415781400,5.254781494140625,0.24596846103668213,0.27273038029670715,0.709449291229248
1782811761425853200,5.264853271484375,0.279304563999176,-0.14556913077831268,0.7035463452339172
1782811761435924000,5.274924072265625,0.2888302206993103,-0.3542916476726532,0.9052649140357971
1782811761445996000,5.28499609375,0.3778407871723175,0.056706272065639496,1.2891899347305298
1782811761456067000,5.295067138671875,0.5314181447029114,0.7675477266311646,1.710071086883545
1782811761466139100,5.30513916015625,0.5666602849960327,1.1428898572921753,1.981508493423462
1782811761476210200,5.315210205078125,0.3379346430301666,0.9917299151420593,2.0790035724639893
1782811761486282000,5.325281982421875,-0.024507993832230568,0.7718665599822998,2.0510153770446777
1782811761496353000,5.33535302734375,-0.2588767111301422,0.7040737867355347,1.8283146619796753
1782811761506425000,5.345425048828125,-0.3412797152996063,0.5275949239730835,1.2904943227767944
1782811761516497200,5.3554970703125,-0.33195555210113525,0.20114071667194366,0.496838241815567
1782811761526568200,5.365568115234375,-0.24737143516540527,-0.1843491941690445,-0.3405360281467438
1782811761536640300,5.37564013671875,-0.15565125644207,-0.5337333679199219,-1.0536655187606812
1782811761546711300,5.385711181640625,-0.14223451912403107,-0.8470859527587891,-1.5828074216842651
1782811761556783000,5.395783203125,-0.13859406113624573,-1.1039552688598633,-1.8511466979980469
1782811761566854100,5.405854248046875,-0.04054712504148483,-1.2478053569793701,-1.7984989881515503
1782811761576926200,5.41592626953125,0.11045834422111511,-1.2946197986602783,-1.482475757598877
1782811761586997200,5.425997314453125,0.2040572613477707,-1.2628549337387085,-1.0330886840820312
1782811761597069300,5.4360693359375,0.18871237337589264,-1.186587929725647,-0.6263720393180847
1782811761607140000,5.44614013671875,0.03485863655805588,-1.0859743356704712,-0.4706743061542511
1782811761617212200,5.456212158203125,-0.17580091953277588,-0.9866731762886047,-0.6652722358703613
1782811761627283200,5.466283203125,-0.33363714814186096,-0.8773131370544434,-1.1393623352050781
1782811761637355000,5.47635498046875,-0.38409972190856934,-0.6472815871238708,-1.6834328174591064
1782811761647427000,5.486427001953125,-0.33118486404418945,-0.28760144114494324,-2.1054413318634033
1782811761657498000,5.496498046875,-0.19805756211280823,0.06987263262271881,-2.3084700107574463
1782811761667570200,5.506570068359375,-0.01359984278678894,0.37229907512664795,-2.25394868850708
1782811761677641200,5.51664111328125,0.17167513072490692,0.5566985011100769,-1.9396904706954956
1782811761687713000,5.526713134765625,0.33449411392211914,0.5951181054115295,-1.3967208862304688
1782811761697784000,5.5367841796875,0.45574668049812317,0.5560504198074341,-0.7069699168205261
1782811761707856100,5.546856201171875,0.4983130693435669,0.44982966780662537,0.008337525650858879
1782811761717927200,5.55692724609375,0.4555688202381134,0.23913802206516266,0.6200608611106873
1782811761727999200,5.566999267578125,0.3793789744377136,-0.055916521698236465,1.0668820142745972
1782811761738070300,5.5770703125,0.34296315908432007,-0.30230197310447693,1.348511815071106
1782811761748142300,5.587142333984375,0.38713595271110535,-0.3676130771636963,1.4987021684646606
1782811761758213000,5.597213134765625,0.5005208849906921,-0.23664376139640808,1.5478310585021973
1782811761768285200,5.60728515625,0.632188081741333,-0.013500952161848545,1.5281010866165161
1782811761778357200,5.617357177734375,0.7055263519287109,0.2052817940711975,1.4994739294052124
1782811761788428000,5.627427978515625,0.7054041028022766,0.4122360646724701,1.4728708267211914
1782811761798500000,5.6375,0.6457549333572388,0.5998858213424683,1.4198102951049805
1782811761808571100,5.647571044921875,0.5410731434822083,0.7634787559509277,1.3213391304016113
1782811761818643200,5.657643310546875,0.45612239837646484,1.0290489196777344,1.2688039541244507
1782811761828714200,5.66771435546875,0.39703670144081116,1.420236349105835,1.4085270166397095
1782811761838786000,5.6777861328125,0.15471790730953217,1.9359724521636963,2.0626587867736816
1782811761848857000,5.687857177734375,-0.16993901133537292,1.046995759010315,2.2529995441436768
1782811761858929200,5.69792919921875,-0.2504090666770935,0.0703158974647522,2.05886173248291
1782811761869000200,5.708000244140625,-0.1336030811071396,0.1542520672082901,1.9273121356964111
1782811761879073000,5.718072998046875,0.05342027172446251,0.5207515358924866,1.714023470878601
1782811761889144000,5.72814404296875,0.29727235436439514,0.6542859077453613,1.3874996900558472
1782811761899216100,5.738216064453125,0.5207803845405579,0.5762050151824951,0.9947578310966492
1782811761909287200,5.748287109375,0.6425440907478333,0.3310568034648895,0.7198144197463989
1782811761919359200,5.758359130859375,0.572243332862854,-0.08449210226535797,0.7380327582359314
1782811761929430300,5.76843017578125,0.5444356203079224,-0.38054025173187256,1.1533952951431274
1782811761939502300,5.77850244140625,0.6029057502746582,-0.45152390003204346,1.787476658821106
