time,seconds_elapsed,z,y,x
1782661247018968600,0.071968505859375,-0.3029863369971514,0.164204473772645,-0.12955679263100028
1782661247029039600,0.08203955078125,0.08689093246757984,0.10740414366424084,-0.058867710966989395
1782661247039111700,0.092111572265625,0.3648199850976467,0.054636137811839576,-0.077743237959221
1782661247049182500,0.102182373046875,0.6509586476683616,0.003473521329462528,-0.06979081765003502
1782661247059254500,0.112254638671875,0.8693354411333799,-0.06729746646434068,-0.05496730599496513
1782661247069325600,0.12232568359375,1.0691209313750267,-0.10418751970529555,-0.03508278462328016
1782661247079397400,0.1323974609375,1.0956441966414452,-0.09732172558903694,-0.08958524958547204
1782661247089468400,0.142468505859375,0.7448188346266746,-0.12366495811343192,-0.15644991412311793
1782661247099540500,0.15254052734375,0.300901931938529,-0.10429331816732883,-0.2965819863801822
1782661247109611500,0.162611572265625,0.09263035290241241,-0.06742459997534751,-0.5780877284532413
1782661247119683600,0.17268359375,0.15557166998386382,0.07236322542130946,-0.756781586555764
1782661247129754600,0.182754638671875,0.3999661172807216,0.26828677953779695,-0.78753145654127
1782661247139826400,0.192826416015625,0.6366741017282008,0.4466203164279461,-0.6793441996753216
1782661247149897500,0.2028974609375,0.7529927887320518,0.5794055695861577,-0.5624232359293848
1782661247159969500,0.212969482421875,0.7037783837080002,0.5943839430093765,-0.4636980732832104
1782661247170040600,0.22304052734375,0.4906453361153602,0.5354495234817266,-0.4649007270712405
1782661247180112600,0.233112548828125,0.31785306673943997,0.42735038329064845,-0.6518266626745463
1782661247190183400,0.243183349609375,0.4654015892654657,0.3031727994799614,-0.9006081659492104
1782661247200255700,0.253255859375,0.7161638180285692,0.10712474220097064,-1.0604471379887312
1782661247210326500,0.263326416015625,0.8423089025199413,-0.05031038356721401,-1.0512070159565656
1782661247220398300,0.2733984375,0.8157225088894366,-0.06301905849277972,-1.0591338634330778
1782661247230469400,0.283469482421875,0.8071674465119838,0.28754326867163177,-1.1409166591066866
1782661247240540400,0.29354052734375,0.7422989607602357,0.7479875277906656,-1.1255556430414317
1782661247250612500,0.303612548828125,0.33132454273104667,1.0793494799226522,-1.1973702946692704
1782661247260683500,0.31368359375,-0.1749777967214584,1.3044360001593827,-1.2559867342889308
1782661247270755600,0.323755615234375,-0.3306728008240461,1.6270254477709531,-1.260145315273106
1782661247280826600,0.33382666015625,0.0030628947019577025,2.1511878535628317,-1.0752579728253184
1782661247290898700,0.343898681640625,0.46736908994615073,2.716294264161587,-0.6138788440089672
1782661247300969700,0.3539697265625,0.7032178272157907,3.120297089612484,-0.33686982883326705
1782661247311041500,0.36404150390625,0.6446580862194299,3.3778730900436638,-0.42852326299492266
1782661247321112600,0.374112548828125,0.0683013828098774,3.619553017684817,-0.5191762148771435
1782661247331184600,0.3841845703125,-0.653776043176651,3.937676133537292,-0.5072468537610024
1782661247341255400,0.39425537109375,-1.2028770753920077,4.220908553272485,-0.6165650874182581
1782661247351327500,0.404327392578125,-1.1536363668829202,4.024454837802052,-0.8496111152920871
1782661247361398500,0.4143984375,-0.7069739648789167,3.0102473998755217,-1.2365616105899213
1782661247371470300,0.42447021484375,-0.2395242109119892,2.1976924151062964,-1.461748668591678
1782661247381541400,0.434541259765625,0.387005513420701,2.136009865914285,-1.6247110333487391
1782661247391613400,0.444613525390625,1.2690922995775937,2.630617383658886,-1.6748875614032148
1782661247401684500,0.4546845703125,2.237836793968081,2.991980214039981,-1.6902901515878737
1782661247411756500,0.464756591796875,3.0998855852246283,2.875769955846667,-1.6749020283199845
1782661247421827600,0.47482763671875,3.158473383271694,2.4349445894330737,-1.7658295228272676
1782661247431899600,0.484899658203125,4.101779485023021,1.7454390612274406,-2.178884400392324
1782661247441970700,0.494970703125,6.494675907799601,2.5502006156414745,-2.2448227073326708
1782661247452042500,0.50504248046875,6.126829852879047,5.516769032788276,-1.718522704990208
1782661247462113500,0.515113525390625,6.958678736183047,6.545918019258975,-0.8157640830088406
1782661247472185600,0.525185546875,6.329035848265886,5.886179268285632,-0.3589888677913695
1782661247482256400,0.53525634765625,5.3332455260396,5.0463142517864705,-0.6562633299477398
1782661247492328400,0.545328369140625,5.43608280017972,4.684346733510494,-1.175248113906011
1782661247502399500,0.5553994140625,4.971794725114107,4.520761560679972,-1.549719212989509
1782661247512471600,0.565471435546875,3.739717274200916,4.376628984077275,-1.1835310082785784
1782661247522542600,0.57554248046875,2.4316315193623304,4.147948238740861,-1.341416654293239
1782661247532613600,0.585613525390625,0.81761869789958,3.826274444669485,-2.3878315406024453
1782661247542685400,0.595685546875,-0.30378245581090446,3.933376098255813,-2.8481115490704774
1782661247552756500,0.605756591796875,-0.2145674643099308,4.248329059639572,-2.3453290543071925
1782661247562828500,0.61582861328125,-0.6326683732181787,4.272305855293571,-1.4773706006154417
1782661247572899600,0.625899658203125,-2.0096137292712926,3.694854342384636,-1.1913159630663692
1782661247582971600,0.6359716796875,-4.132033753511309,2.8201702336996792,-1.597808121114969
1782661247593042700,0.646042724609375,-6.201877787339687,2.005372146178782,-1.692885721039027
1782661247603114500,0.656114501953125,-6.765134770679474,1.1397063334688544,-1.228032997827977
1782661247613185300,0.666185302734375,-5.98258387902975,-0.11141922452449798,-0.6317562268093228
1782661247623258600,0.676258544921875,-4.772910567626357,-1.2799527162879705,-0.10909092770740389
1782661247633329700,0.68632958984375,-4.283430183637142,-1.8319947703912853,0.5677700768500566
1782661247643401700,0.696401611328125,-5.274222843706608,-1.895915307768434,1.1714619464308023
1782661247653472800,0.70647265625,-6.859825563243031,-2.05127406565398,1.3231336863666772
1782661247663544600,0.716544677734375,-7.9524232317954295,-2.3980220952272413,1.363701843598485
1782661247673615600,0.72661572265625,-7.952325616639852,-2.7942782520741223,1.4227024602301417
1782661247683687700,0.736687744140625,-7.318470663985609,-3.137083973762393,1.5654950204007327
1782661247693758700,0.7467587890625,-6.7617837066859,-3.195461636190116,1.6640885194912551
1782661247703830800,0.756830810546875,-6.445998093870282,-3.156794928665459,1.640693176987022
1782661247713901800,0.76690185546875,-6.228525555768608,-3.4189036040902137,1.2667527507141232
1782661247723973600,0.7769736328125,-5.795400680729746,-4.147266393956542,0.5405743191495538
1782661247734044700,0.787044677734375,-5.122103944525122,-5.389259089684486,-0.6897087956927717
1782661247744116500,0.797116455078125,-4.82544213437438,-7.062128589263558,-2.544577222801745
1782661247754187500,0.8071875,-5.028974994450807,-7.785135405054688,-3.7709535394638776
1782661247764259600,0.817259521484375,-4.954814364218712,-7.066727022969722,-3.830953542396426
1782661247774330600,0.82733056640625,-4.3464398897796865,-5.65443796633482,-3.17517258913815
1782661247784402700,0.837402587890625,-3.3913521648198364,-4.190649316348135,-2.175547364924103
1782661247794473700,0.8474736328125,-2.340337968021631,-3.0211300284177063,-1.1457561350271106
1782661247804545500,0.857545654296875,-1.9450848507374523,-2.0002894360870123,-0.372906991571933
1782661247814616600,0.867616455078125,-1.8569430414259434,-0.837398918646574,0.26345965164229274
1782661247824688600,0.877688720703125,-0.7463871068567037,-0.2692232932029292,0.5521728408761322
1782661247834759700,0.887759765625,0.6432324373304844,-0.35703064639568327,0.654452188872546
1782661247844831700,0.897831787109375,1.6520160966426134,-0.6496303947392851,0.5073962721690535
1782661247854902800,0.90790283203125,1.7876801201075314,-0.9364093279749155,0.3174038616672158
1782661247864974800,0.917974853515625,1.6510194868206978,-1.020332862004265,0.3304438143737614
1782661247875045600,0.928045654296875,1.834507337734103,-0.9207520323768258,0.462797909573093
1782661247885117400,0.938117431640625,1.7838386422485113,-0.8273159160494804,0.6236443050894885
1782661247895188500,0.9481884765625,1.4730752415090798,-0.6438935315877199,0.7992117382671684
1782661247905260500,0.958260498046875,1.3514642933160066,-0.44660668976139273,0.9835623434897511
1782661247915331600,0.96833154296875,1.8374053972631692,0.06706289052348584,1.193093128806725
1782661247925402600,0.978402587890625,2.19722012141943,0.5593864255167543,1.4721245166555046
1782661247935474700,0.988474609375,0.7716694321513176,-0.33374745902903374,1.3825916913770138
1782661247945546800,0.998546630859375,-0.19701544100642204,-0.9146005970750003,1.150702943779528
1782661247955617800,1.00861767578125,-0.08712006504833698,-0.6601802111305296,1.205083426329866
1782661247965688800,1.018688720703125,0.41431379158496856,-0.37111484745815393,1.404511700631678
1782661247975760600,1.0287607421875,0.5529729052126408,-0.6426807947970926,1.3368763805150985
1782661247985831700,1.038831787109375,-0.24602935502231119,-1.1181589569188655,1.1717580067679285
1782661247995903700,1.04890380859375,-1.2310434316903351,-1.0800532442778348,0.8842275975778698
1782661248005974500,1.058974609375,-1.1395558190822601,-0.7103741287112235,1.0051593313351272
1782661248016046600,1.069046630859375,-2.0753373705476523,-0.5559387692809105,1.2043163144148885
1782661248026117600,1.07911767578125,-3.8357080434471365,-0.4699645132668316,1.237910979372263
1782661248036189400,1.089189453125,-6.361178706979751,-0.46721799103766676,0.6297207754589617
1782661248046260500,1.099260498046875,-9.502166702443361,-0.5300532173961401,-0.7093215509183705
1782661248056332500,1.10933251953125,-12.489295677059888,-0.587206598725915,-2.467376201960444
1782661248066403600,1.119403564453125,-13.80143742929101,-0.6090015202961861,-3.603538286951184
1782661248076475600,1.1294755859375,-13.241770579397677,-0.380216876193881,-3.6919162431061268
1782661248086546700,1.139546630859375,-10.806881519544124,0.4262389149174094,-2.8056270368233323
1782661248096618800,1.14961865234375,-8.093636121559143,1.7971876609042285,-1.6221492200367151
1782661248106689800,1.159689697265625,-5.518587480387091,2.768893927709758,-0.3467135427817702
1782661248116761600,1.16976171875,-2.9125357981860636,2.540432670342922,0.5686033128038048
1782661248126832600,1.17983251953125,-0.8692933555573225,1.6714672315657138,1.0122849454313516
1782661248136904700,1.18990478515625,1.0129857871770858,0.6497554093584418,1.0239432345211505
1782661248146975700,1.199975830078125,2.3566414525687693,-0.5445268561676144,0.6310371187545358
1782661248157047800,1.2100478515625,2.0417548344194887,-1.1531114662259816,-0.06790193516351282
1782661248167118600,1.22011865234375,0.1909866822361946,-0.7813900311768055,-0.6472293980121612
1782661248177190700,1.230190673828125,-1.6731407177358866,-0.31376477451249957,-1.1891814352557062
1782661248187261700,1.24026171875,-2.974505639886856,0.25744535978883504,-1.4826039712242782
1782661248197333500,1.25033349609375,-3.3950948584794998,0.7424599965408444,-1.1108961263090371
1782661248207404500,1.260404541015625,-2.975744241771102,1.1292372541636229,-0.14694514980539677
1782661248217476600,1.2704765625,-2.3071049759835005,1.5048134649448095,0.5906630227901041
1782661248227547600,1.280547607421875,-0.999258875119686,1.4021385417595504,0.901985957108438
1782661248237619700,1.29061962890625,1.3236352061480283,0.7783243599958717,1.05052509810701
1782661248247690800,1.300690673828125,4.2661669141471386,0.10272709176391362,1.598238183095306
1782661248257762600,1.310762451171875,6.306761472615599,0.5769599299997091,3.115464262628555
1782661248267833600,1.32083349609375,7.617217463716864,0.8524947809696197,2.777464479917288
1782661248277905700,1.33090576171875,8.234581884819269,0.6337023924410343,2.142829775062203
1782661248287976700,1.340976806640625,8.530688399174808,0.4658844043463468,2.314658021711558
1782661248298048800,1.351048828125,8.150594272577763,0.31198592827171084,2.2869326871789992
1782661248308119600,1.36111962890625,7.317035662746429,0.24749139039888976,2.328794975874573
1782661248318191600,1.371191650390625,6.627101679995656,0.3257781606502831,2.5983421307370067
1782661248328262700,1.3812626953125,6.547973198223113,0.6141872523710131,2.6791005517989395
1782661248338334500,1.39133447265625,6.1224909468919035,0.9740950616382061,2.6765456066191193
1782661248348405500,1.401405517578125,4.650871749410033,1.3042910387307405,2.919171290677786
1782661248358477600,1.4114775390625,4.541463280186057,1.6563814522452651,2.6154052014797924
1782661248368548600,1.421548583984375,4.119198237335682,1.9519854239061474,2.4180719266958532
1782661248378620700,1.43162060546875,4.106936721655726,2.1981072795175014,2.233599594789743
1782661248388691700,1.441691650390625,4.8116971021384,2.425385610710084,1.8516602787174283
1782661248398763800,1.451763671875,5.405136457774042,2.3988756433166563,1.4166425756692886
1782661248408834800,1.461834716796875,5.600691178578138,2.25093183786273,1.2034710957624017
1782661248418906600,1.47190673828125,5.543104082006216,2.156817237751931,1.1101491073340177
1782661248428977700,1.481977783203125,5.526513597211242,2.044030085875094,0.8218399688564241
1782661248439049700,1.4920498046875,5.623914233255386,1.89923816858083,0.5483012601397931
1782661248449120500,1.50212060546875,5.6164662553369995,1.8301316068679094,0.46015828178450463
1782661248459192800,1.51219287109375,5.28065199997127,1.8704598178640006,0.41576179843619465
1782661248469263600,1.522263671875,4.440566034197807,1.9249635614678262,0.25806100746914745
1782661248479334700,1.532334716796875,3.5842122397124765,1.9918986243605612,0.07854688249230385
1782661248489406500,1.542406494140625,2.9238895513713357,2.1027336192563175,-0.10808905718848108
1782661248499478500,1.552478515625,2.7182302006602286,2.098920198448002,-0.2834726582318544
1782661248509549600,1.562549560546875,2.7427222523599863,1.965778094676137,-0.27049773358553647
1782661248519620600,1.57262060546875,2.6509838798612355,1.4191957672834397,0.2589052032083273
1782661248529692700,1.582692626953125,1.5829694484233856,0.4165831978216767,1.037997551902011
1782661248539763700,1.592763671875,-0.9187310479432343,-0.8122232685968279,1.2253794145792722
1782661248549835800,1.602835693359375,-3.8549920051097866,-1.8620976477101445,0.36671456667259333
1782661248559906800,1.61290673828125,-5.655649680212139,-2.987787730786204,-0.7284655926536768
1782661248569978600,1.622978515625,-5.855273842412233,-4.517700127282739,-0.8791439376380294
1782661248580049700,1.633049560546875,-6.692806616571545,-5.977592062091827,-0.7042804880112409
1782661248590121700,1.643121826171875,-8.672234466415643,-5.505811585444212,-1.5963421402156353
1782661248600192500,1.653192626953125,-10.084975942993163,-2.81974908567816,-2.4450644169092177
1782661248610264600,1.6632646484375,-11.200606112086772,-0.33197511559426784,-1.8652154874697326
1782661248620335400,1.67333544921875,-12.345130367231368,0.7175900514394045,-1.3526730845838784
1782661248630407400,1.683407470703125,-13.102551493799686,0.970989350707829,-1.5465223166443407
1782661248640478500,1.693478515625,-12.952820366537571,0.7724372016534209,-2.329842292970419
1782661248650550300,1.70355029296875,-11.799206796008347,-0.11392477760463952,-2.996286971323192
1782661248660621300,1.713621337890625,-9.68257003134489,-1.5756778301104901,-3.462823409837484
1782661248670693400,1.723693359375,-6.671479166382551,-2.9020734408825635,-3.681040628826618
1782661248680764400,1.733764404296875,-3.258430718061328,-3.757079035629332,-3.5803701773315666
1782661248690836500,1.74383642578125,-0.33677462483048437,-4.007041053925454,-2.9401234778136014
1782661248700907500,1.753907470703125,1.6701029574751853,-3.4890012226670977,-1.911453068640083
1782661248710979600,1.7639794921875,2.524299281665683,-2.4723832164674997,-0.9612309038899839
1782661248721050600,1.774050537109375,1.9718010082274675,-1.5311670727327464,-0.34302316383123393
1782661248731122400,1.784122314453125,0.32070962521433827,-1.000260453377664,0.10489245310425757
1782661248741193500,1.794193359375,-1.2966378936290741,-0.8979455956764518,0.11481544283404946
1782661248751265500,1.804265625,-1.7152829924166202,-1.0360814160823821,-0.12280951032787561
1782661248761336300,1.81433642578125,-0.9020663288682699,-1.271304568799585,-0.33729426479041574
1782661248771408400,1.824408447265625,0.8356225566238165,-1.375550832954794,-0.22338103149309754
1782661248781479400,1.8344794921875,3.0218577581703663,-1.2600287031561135,0.1599637674629688
1782661248791551200,1.84455126953125,4.994461314952373,-1.0977877845413981,0.5745791723430156
1782661248801622300,1.854622314453125,6.594207710653543,-0.842624544340372,1.2364724710017443
1782661248811694300,1.8646943359375,7.770698298901319,-0.275830619046092,2.0926754588395355
1782661248821765400,1.874765380859375,8.779262177982925,0.2555031396798789,2.3811671142771837
1782661248831837400,1.88483740234375,8.581071263456344,0.6468532581761479,2.7655098382294176
1782661248841908500,1.894908447265625,7.612589219394326,1.0089259903922676,3.1564024222165346
1782661248851979500,1.9049794921875,6.795975314623117,1.3122747309610248,3.2976912998259067
1782661248862051600,1.915051513671875,6.2452440508574245,1.587280589620769,3.1366818227022883
1782661248872122600,1.92512255859375,5.7022313986450435,1.6397370453059672,2.6897797667235133
1782661248882194400,1.9351943359375,5.2045998569041485,1.5150633485414087,2.1764871299922466
1782661248892265200,1.94526513671875,4.90345476385951,1.2856870221562682,1.6424521494835613
1782661248902337500,1.955337646484375,4.809148002177476,1.0110366989359258,1.1507568659238516
1782661248912408300,1.965408203125,4.961404264003038,0.8293054824315012,0.7238710314050316
1782661248922480400,1.97548046875,5.411496640455723,0.8955769668489694,0.5239858801811933
1782661248932551400,1.985551513671875,5.843706154215336,1.02581385069862,0.4216982027478516
1782661248942623500,1.99562353515625,5.973213408616185,1.2707628631383179,0.46569743040688333
1782661248952694500,2.005694580078125,6.026705929350853,1.7085633287727833,0.5259173597004264
1782661248962766300,2.015766357421875,5.970474339041114,2.323953819453716,0.39146205443814397
1782661248972837400,2.02583740234375,5.621513601854443,2.881122422790527,0.2508299602370709
1782661248982909400,2.035909423828125,4.96580103765726,3.1175431147292256,-0.13041662433072923
1782661248992980500,2.04598046875,3.9708039116352793,2.8244430887132883,-0.5823058210723102
1782661249003052500,2.056052490234375,2.7349089482605455,2.248109766179323,-0.7516607364106923
1782661249013123600,2.06612353515625,0.9467512737691401,1.1386527327626943,-0.3920519100900739
1782661249023195400,2.0761953125,-1.234773850390315,-0.7048363683283329,0.00822027746513486
1782661249033266400,2.086266357421875,-2.6726976990193125,-2.2726763444200158,-0.4097529134102165
1782661249043338500,2.09633837890625,-2.983733486959338,-3.148793700778484,-1.25376423593387
1782661249053409300,2.1064091796875,-3.2335558045238253,-4.865859484958649,-1.46328391533494
1782661249063481300,2.1164814453125,-4.87728981051147,-7.183451368165016,-1.0382300454836337
1782661249073552400,2.126552490234375,-7.7759379531204695,-6.696100397419929,-1.1929697946880011
1782661249083624400,2.13662451171875,-10.93693296382427,-3.6590158440232274,-1.6340306503579018
1782661249093695500,2.146695556640625,-14.16000303016901,-1.2228504806235432,-1.5556734452188015
1782661249103767300,2.156767333984375,-17.56182456655502,-0.17373568770587444,-1.3851017745018004
1782661249113838300,2.16683837890625,-19.494485404527186,0.36300825950056315,-1.6567662137791515
1782661249123910400,2.176910400390625,-18.94660134688616,0.611000146767497,-1.879027155201137
1782661249133981400,2.1869814453125,-16.03325072518587,-0.015718962657451627,-1.9808980685271322
1782661249144053500,2.197053466796875,-11.399841567230224,-1.2686904407784343,-2.103810600838065
1782661249154124500,2.20712451171875,-6.415923858124017,-2.576035898643732,-2.425894144754112
1782661249164195600,2.217195556640625,-2.4468138909250494,-3.6821363151088353,-2.8658567568585274
1782661249174267600,2.227267578125,0.26469664609134197,-4.28910296857655,-3.1571421346679327
1782661249184338400,2.23733837890625,2.3224358161062,-4.458796395154297,-3.009255466228723
1782661249194410200,2.24741015625,3.9511259822189806,-4.4268382453575725,-2.5311679983913895
1782661249204481300,2.257481201171875,4.579586966875195,-3.9913393346637487,-2.040090408338606
1782661249214553300,2.26755322265625,3.9546103172034024,-3.1832170716449615,-1.5592697161450981
1782661249224624400,2.277624267578125,2.689099967765808,-2.3051114640787245,-0.8546498401116579
1782661249234696400,2.287696533203125,1.8511632889807224,-1.5724299342304466,0.03018814444951713
1782661249244767500,2.297767578125,1.3768641075104475,-0.934687764879316,0.7895759679809212
1782661249254839300,2.30783935546875,1.3624100502222776,-0.4474840936504304,1.4007967717617749
1782661249264910300,2.317910400390625,1.9339725050926206,-0.15143851570189,1.8738817551366984
1782661249274982400,2.327982421875,2.7592887717574834,-0.15588950376138092,2.266825426434725
1782661249285053400,2.338053466796875,3.4759295596480366,-0.20989333501905202,2.5105057341128587
1782661249295125500,2.34812548828125,4.187501958233118,-0.09939867799356579,2.651986042641103
1782661249305196500,2.358196533203125,5.039918413269519,0.07914557903781533,2.7230329247668386
1782661249315268600,2.3682685546875,5.903779222384095,0.18706600166112183,2.783497330340743
1782661249325339400,2.37833935546875,6.230057003119588,0.34540830540210005,2.788407606475055
1782661249335411500,2.388411376953125,6.029700434991717,0.7689630958020687,2.807497214609384
1782661249345482200,2.398482177734375,5.676906403252482,1.3938652189329266,2.871850152054429
1782661249355554300,2.40855419921875,5.193246688240766,1.894457948566973,2.907840626107156
1782661249365625300,2.418625244140625,4.671419447398185,2.2605057218939066,2.99937704629302
1782661249375697400,2.428697509765625,4.37176137804091,2.5719816548168657,3.0129075589954852
1782661249385768400,2.4387685546875,4.5601995448380706,2.790783687956631,2.9081121365249154
1782661249395840500,2.448840576171875,5.015660170325637,2.9692081180006262,2.6262761395841836
1782661249405911600,2.45891162109375,5.535796973863244,2.9814348546281457,2.26882186094895
1782661249415983400,2.4689833984375,6.135756086656451,2.9485733262509104,1.8996115319378672
1782661249426054400,2.479054443359375,6.623468291929364,2.9235762476384637,1.6194614422574638
1782661249436126500,2.48912646484375,6.842984903079271,2.9183474070742723,1.3180392858371137
1782661249446197500,2.499197509765625,6.748186558488011,2.9129253820255396,1.0037731376737355
1782661249456269600,2.50926953125,6.318254926532506,2.940456363029778,0.6662838617678731
1782661249466340600,2.519340576171875,5.56967177093625,2.994945493586361,0.4103822973549366
1782661249476412400,2.529412353515625,4.756951950994134,3.1656159485027193,0.3719226567097008
1782661249486483500,2.5394833984375,3.470395306396484,3.5734696041628715,0.4738534835293889
1782661249496554500,2.549554443359375,1.814365297937393,3.980385102190077,0.5617721516095101
1782661249506626300,2.559626220703125,0.08275660914182663,4.149068474942445,0.5530250737912953
1782661249516697300,2.569697265625,-1.4441110128313301,3.5816552487060425,0.4236049131520092
1782661249526769400,2.579769287109375,-3.100229284095764,1.9143518588215112,0.03124021078571677
1782661249536840400,2.58984033203125,-4.473760447791219,-0.8001227886974811,0.016407675573974847
1782661249546912500,2.59991259765625,-4.884369539639353,-3.991412984421849,0.5316374178476632
1782661249556983600,2.609983642578125,-3.6153807004362344,-7.802051468542218,0.5640016642272472
1782661249567055400,2.620055419921875,-1.8450106115698812,-10.774129589021205,-0.3777880416117608
1782661249577126400,2.63012646484375,-2.2765146074086426,-10.442443811762333,-1.7454995592430234
1782661249587198500,2.640198486328125,-5.196026674348116,-8.871253648459911,-2.1651161334112285
1782661249597269500,2.65026953125,-8.593754219418763,-7.419747264680266,-1.6623478133037686
1782661249607341600,2.660341552734375,-12.577002017563581,-5.048783272248507,-1.053016257335618
1782661249617412400,2.670412353515625,-16.701423542505502,-2.1266540085479617,-0.3042805415261537
1782661249627484200,2.680484130859375,-19.538188937175274,-0.010041501542925834,0.35662937211841345
1782661249637555200,2.69055517578125,-18.640699999225138,0.38498394446521994,0.6476854712165891
1782661249647627000,2.700626953125,-13.509440688341856,-1.1044348213404416,0.6061239555658772
1782661249657698000,2.710697998046875,-7.31755705627203,-3.091364717377722,0.19284816525913773
1782661249667770000,2.72077001953125,-2.6714894922733303,-4.068396855381131,-0.3514924110887572
1782661249677841200,2.730841064453125,0.05968903728723526,-4.144511250029504,-0.7952658501856028
1782661249687913200,2.740913330078125,1.2159960846841336,-3.8836633883208034,-1.1526727094825358
1782661249697984300,2.750984375,1.3458546367406845,-3.4022979217261073,-1.5114564100906251
1782661249708056300,2.761056396484375,1.3072305993139743,-2.5127277940765023,-1.4821058124437927
1782661249718127400,2.77112744140625,1.4183213225364684,-1.529321737127006,-1.0515872474458068
1782661249728199200,2.78119921875,1.5834610313326118,-0.6881076441064476,-0.38999629273451863
1782661249738270000,2.79127001953125,1.7303087121129035,-0.02141395942866802,0.236892620299384
1782661249748342000,2.801342041015625,2.1808330502420663,0.25301906777918337,0.6215810158841312
1782661249758413000,2.8114130859375,3.0285528718948362,0.15920535031110047,0.8564271519824862
1782661249768484000,2.821484130859375,4.277776687920094,-0.23806349070966243,0.7752857960175722
1782661249778556200,2.83155615234375,5.5580415388971565,-0.596979950851947,0.6109201038012281
1782661249788627200,2.841627197265625,6.546303219184279,-0.6983218718677758,0.786077239144966
1782661249798699300,2.85169921875,7.007323232364654,-0.5602275525160133,1.1965911269903182
1782661249808770300,2.861770263671875,6.843598066541552,-0.13651947125047445,1.629660764710605
1782661249818842000,2.871842041015625,6.309865868371725,0.4041176840022206,2.098857508475333
1782661249828913200,2.8819130859375,5.368836479380726,0.8237723982237279,2.481248952229321
1782661249838985200,2.891985107421875,4.313734136486053,1.0870482177317142,2.59715175190866
1782661249849056300,2.90205615234375,3.7274241943389175,1.2365899599015713,2.385280540945381
1782661249859128300,2.91212841796875,3.5404794809699056,1.3047891975112258,1.9621160650372504
1782661249869199000,2.92219921875,3.7555133937478065,1.380275961780548,1.6381924462124704
1782661249879271000,2.93227099609375,4.350540895357728,1.2878567674107848,1.4357155249297617
1782661249889342000,2.942342041015625,5.0268017420649524,1.147952914419025,1.346946231369674
1782661249899414000,2.9524140625,5.68254294783473,1.1045949803382158,1.3801064504325389
1782661249909485000,2.962485107421875,6.315902225926518,1.1029437059998513,1.339253631040454
1782661249919557000,2.97255712890625,6.702954501098394,1.215873919609189,1.2419368738874792
1782661249929628200,2.982628173828125,6.817259510192275,1.3905454268604516,1.1873626953959464
1782661249939700200,2.9927001953125,6.684234018537402,1.6851275081276893,1.0362995888777076
1782661249949771300,3.002771240234375,6.545429943481087,2.0571993640497324,0.8506804980892687
1782661249959843000,3.012843017578125,6.3560740773171185,2.4078575528040527,0.9841201965682208
1782661249969914000,3.0229140625,5.837939261251687,2.6808058944121003,1.094556912861392
1782661249979985200,3.032985107421875,5.313717818748951,2.829572268295288,0.8611086608622223
1782661249990057200,3.04305712890625,4.796642740869522,2.8004131015673277,0.33433125026635824
1782661250000128000,3.0531279296875,3.7059582124620674,2.5248992933854457,-0.3854593799572438
1782661250010200000,3.063199951171875,1.7793623736172914,2.085891497787833,-1.0574798856809735
1782661250020271000,3.07327099609375,-1.0197411066561937,1.3710188886135817,-1.4814457410998643
1782661250030343200,3.08334326171875,-3.928884339794516,0.1323477385237813,-1.5770198923692107
1782661250040414200,3.093414306640625,-5.770708138021827,-1.711073850288987,-1.7305536267846822
1782661250050486000,3.103486083984375,-4.661038923159241,-3.591784428532421,-2.0912996404416857
1782661250060557000,3.11355712890625,-2.1905489730924366,-5.473571111574769,-2.316855677886307
1782661250070629000,3.123629150390625,-2.142890565338731,-7.037524309360981,-1.3686343315646052
1782661250080700200,3.1337001953125,-6.610541005817056,-5.409195962297916,0.16756901830229906
1782661250090772200,3.143772216796875,-9.824746797704696,-2.1662352005690333,0.3865610210562125
1782661250100843300,3.15384326171875,-12.085587450641393,-0.14956512304544448,0.7325250241123139
1782661250110915000,3.1639150390625,-14.7341414730072,0.4490881678462028,1.001714013186842
1782661250120986000,3.173986083984375,-17.070262700116633,0.5949021216645837,0.7529284913241863
1782661250131058200,3.18405810546875,-17.759228130096197,0.5900163954496384,-0.16022862894423304
1782661250141129200,3.194129150390625,-15.760973414707182,-0.3446864208683371,-1.480419466792047
1782661250151200000,3.204199951171875,-12.20995149693489,-2.2824448742404577,-2.4114500243380665
1782661250161272000,3.21427197265625,-8.054503550088405,-4.333418787904083,-3.04831497246325
1782661250171343000,3.224343017578125,-4.0136785922437905,-5.347170591017604,-3.4576007067531345
1782661250181415200,3.234415283203125,-1.3944172998577355,-5.34036909430921,-3.3280297394663094
1782661250191486200,3.244486328125,-0.3821557353019714,-4.685456740579009,-2.7994010019153355
1782661250201558000,3.25455810546875,-0.20771862132847307,-3.414219830188155,-1.8241307590179143
1782661250211629000,3.264629150390625,-0.43458267263174055,-1.8987857486382125,-0.634504940995574
1782661250221701000,3.274701171875,-0.4497790727198124,-0.6264753637969493,0.3658984279841184
1782661250231772200,3.284772216796875,-0.2407096213042736,-0.03584901975542307,0.9503225563846528
1782661250241844200,3.29484423828125,0.23080723597109318,-0.041723172485828394,1.0776416530914603
1782661250251915300,3.304915283203125,0.8288333348751068,-0.35447862382531165,0.883133518730849
1782661250261987300,3.3149873046875,1.6297212627261877,-0.8217416230484843,0.5861683417193592
1782661250272058400,3.325058349609375,2.743826998731494,-1.109965859721601,0.5533566438332199
1782661250282129200,3.335129150390625,3.7814737644344567,-1.042204575137794,0.8721040290638804
1782661250292201000,3.345200927734375,4.7076317475080485,-0.6309457872092723,1.4446655779741704
1782661250302272000,3.35527197265625,5.423734190738201,-0.20258856496363878,2.1329845267437397
1782661250312344000,3.365343994140625,5.72174507741034,0.1965831870689988,2.8527438850462437
1782661250322415000,3.3754150390625,5.990626900231838,0.8128416927561164,3.618571605432033
1782661250332487200,3.385487060546875,6.184370772221684,1.4137515304028987,4.321993430787325
1782661250342558200,3.39555810546875,6.331771410709619,1.9417953076727688,4.83195078561604
1782661250352630000,3.405630126953125,5.994518646973371,1.8065502402722835,4.776085690531135
1782661250362701000,3.415701171875,5.612741681855916,0.8592233585722744,3.942954366201162
1782661250372773000,3.425773193359375,4.857181088462472,0.7570644220851361,3.211259217041731
1782661250382844200,3.43584423828125,3.200277804300189,0.5184393519699573,2.219935957226902
1782661250392916200,3.445916259765625,1.5119576376110315,0.3295657163649797,1.2150244631730018
1782661250402987300,3.4559873046875,0.4783651157349348,0.0903039557814598,0.9727569449022412
1782661250413059300,3.466059326171875,0.896924289804697,0.15077318366095424,0.7421615981161594
1782661250423130000,3.476130126953125,1.686217056930065,0.24295959218814966,0.7198670564606785
1782661250433201200,3.486201171875,3.2774533984392877,0.7967474670454859,0.567129733119905
1782661250443273000,3.49627294921875,4.266622841221094,1.957945939745754,0.5988019055821001
1782661250453344000,3.506343994140625,4.6946045081526036,3.311815686768293,0.8998428075999021
1782661250463416000,3.516416015625,5.207046665534377,2.758854471993446,0.9376422307707368
1782661250473487000,3.526487060546875,5.1312365145295855,2.261810667012632,0.8075294847574085
1782661250483559200,3.53655908203125,5.353159017777442,1.9106155949026344,0.6785352944452315
1782661250493630200,3.546630126953125,4.967563955676555,1.7550813343197107,0.546348664767295
1782661250503702300,3.556702392578125,4.06269192173779,1.95590610448122,0.5352317890778183
1782661250513773300,3.566773193359375,2.470836571547389,2.779388433717191,0.5809704808153212
1782661250523845000,3.57684521484375,1.8572236119329928,2.9955598260924217,0.41108365055732426
1782661250533916200,3.586916259765625,1.8554864128768442,2.941190814784169,0.28286322109661993
1782661250543987000,3.596987060546875,0.9425380399882793,2.5739438948005438,0.822293996234238
1782661250554059000,3.60705908203125,-0.5954810905963183,1.6937009829446672,1.7221951098926365
1782661250564130000,3.617130126953125,-2.0708546721756456,0.6860720466256142,2.0234104916945097
1782661250574202000,3.6272021484375,-3.280793941038847,-0.7506266441226005,1.6805338967271148
1782661250584273200,3.637273193359375,-3.9904204662531613,-2.670589620824158,0.6198224087137728
1782661250594345200,3.64734521484375,-3.6360569932401177,-4.087004817478358,-1.207345160716772
1782661250604416300,3.657416259765625,-2.333357023093104,-4.695949785281718,-2.76354701372385
1782661250614488000,3.667488037109375,-0.6157324359863996,-4.896695352727175,-3.448373444202542
1782661250624558600,3.67755859375,0.33241116892397404,-4.757088144594431,-3.193744603139162
1782661250634630700,3.687630615234375,-0.10721534309387207,-4.013621601359546,-2.416149141939729
1782661250644701700,3.69770166015625,-2.3166215768694878,-2.6250755316227674,-1.8937365024246273
1782661250654772700,3.707772705078125,-5.095770648872852,-0.6541241259619593,-1.8186619722180069
1782661250664844800,3.7178447265625,-7.767722497960925,1.2790429079666732,-1.8755979114048182
1782661250674915600,3.72791552734375,-9.713538585582375,2.4857827962666748,-1.8539986585371195
1782661250684987600,3.737987548828125,-10.365250681966543,2.818805667348206,-1.6382639040134845
1782661250695058700,3.74805859375,-9.363650212156772,2.2307404059663414,-1.4767735115051268
1782661250705130500,3.758130615234375,-6.957277637213468,0.9882172566235065,-1.6504104150116443
1782661250715201500,3.768201416015625,-4.2728906694442035,-0.3458879056125879,-1.9725339986771344
1782661250725273600,3.778273681640625,-1.5281570772618054,-1.609917953364551,-2.125277167236805
1782661250735344600,3.7883447265625,1.0426643016040325,-2.380949087612331,-1.8655450116850434
1782661250745415700,3.798415771484375,2.9907325520664454,-2.22762782690376,-1.2952246658302842
1782661250755487700,3.80848779296875,4.201321809270977,-1.410069627019763,-0.553345574449934
1782661250765558800,3.818558837890625,4.66438063480258,-0.5644587603449821,0.13377006294447927
1782661250775630600,3.828630615234375,4.566162837156653,0.08745879548341036,0.6140830613441765
1782661250785701600,3.83870166015625,4.43039652236104,0.5568203744210303,0.888786795252189
1782661250795773700,3.848773681640625,4.214101211345196,0.8727410117931663,0.996622827527672
1782661250805844500,3.858844482421875,3.8760295324414966,1.0467891264490783,1.0407981424059718
1782661250815916500,3.86891650390625,2.942882421132922,1.1020933727808295,1.009587742236629
1782661250825987600,3.878987548828125,1.5237947903990745,1.1361034866712987,0.8553564540110528
1782661250836059600,3.8890595703125,0.6004138708233833,1.0589248237922788,0.63981371492818
1782661250846130700,3.899130615234375,0.5717851577103138,0.7291178460173309,0.3157392894558608
1782661250856201700,3.90920166015625,1.2248550984442232,0.3791074536472559,-0.08215177511647344
1782661250866273500,3.9192734375,2.187325919392705,0.26435850017815826,-0.3807910958852619
1782661250876344600,3.929344482421875,3.022602439057827,0.3947496978066861,-0.4499642930936068
1782661250886416600,3.939416748046875,3.5697616895556448,0.7192578385211527,-0.25217246088720857
1782661250896487700,3.94948779296875,3.864182442781329,1.056875343916565,0.041216684268414974
1782661250906559700,3.959559814453125,3.999641883584857,1.3411081728659568,0.2901781472198665
1782661250916630800,3.969630859375,3.972440572926402,1.5665411684527992,0.4658517076531425
1782661250926702800,3.979702880859375,3.9019180069357153,1.756654574985802,0.5975751037335023
1782661250936773600,3.989773681640625,3.9603970839112996,1.7223828875496983,0.6746366065062582
1782661250946844700,3.9998447265625,4.0203374656111,1.4085706206336617,0.6437947473883628
1782661250956916500,4.00991650390625,3.841350433248281,0.8220619410440325,0.38343485185969617
1782661250966987500,4.019987548828125,2.9828356613367792,0.08059504719376563,-0.10184990707058458
1782661250977059600,4.0300595703125,1.1961948211491107,-0.7040130692467093,-0.5635477099146694
1782661250987130600,4.040130615234375,-1.5121984606295824,-1.718228398218751,-0.7104930789157747
1782661250997202700,4.05020263671875,-4.133396858558059,-3.1443536725044248,0.04643401705790311
1782661251007273700,4.060273681640625,-4.16519309579134,-4.548001449783146,0.49623928366489706
1782661251017345800,4.070345703125,-2.1010826371788975,-5.254529132199287,-0.5105272271385416
1782661251027416800,4.080416748046875,-2.303147762790322,-5.922241346269845,-1.78302937169224
1782661251037487900,4.09048779296875,-5.9856818450450895,-6.368980905163288,-1.5549704115159808
1782661251047559700,4.1005595703125,-9.707867554208637,-5.781304935359954,0.15599216041825711
1782661251057630500,4.11063037109375,-10.823778878331185,-3.942737800841033,1.269466685847938
1782661251067702500,4.12070263671875,-10.55619527862668,-1.639597636835277,0.7566760072894394
1782661251077773600,4.130773681640625,-10.590954457318782,-0.15519903727918863,-0.3577301729671657
1782661251087845600,4.140845703125,-10.545894833886623,-0.19158464812934398,-1.0765966740831732
1782661251097916700,4.150916748046875,-9.602155601415037,-1.3661808009326457,-1.4930876635767518
1782661251107987700,4.16098779296875,-8.652253754660487,-2.5263620594143865,-1.7213107282735407
1782661251118059500,4.1710595703125,-8.225416581588982,-3.193253604751825,-1.9331113582186399
1782661251128130600,4.181130615234375,-7.224404140800237,-3.5997982236400246,-1.9807272420048712
1782661251138202600,4.19120263671875,-5.172551106214523,-3.8165006541520357,-1.7374845950916409
1782661251148273700,4.201273681640625,-2.8716157587766644,-3.7895939425259826,-1.3221734630323945
1782661251158345700,4.211345703125,-1.4850760604262352,-3.338075332662463,-1.027479811149463
1782661251168416800,4.221416748046875,-1.4691618674576281,-2.273123503665626,-0.9552010491412133
1782661251178488800,4.23148876953125,-1.8919056337356566,-0.8351806580752134,-0.7033827354539185
1782661251188559600,4.2415595703125,-1.9513082552969454,0.39903000547438855,-0.18140198455005882
1782661251198630700,4.251630615234375,-1.221069734686613,1.122181782694161,0.5372657791234553
1782661251208702500,4.261702392578125,0.05888824229836464,1.5122504830777643,1.2766023829467594
1782661251218773500,4.2717734375,1.578221961635351,1.5435416933983563,1.7051431450657546
1782661251228845600,4.281845458984375,3.102614717927575,1.3135954581707716,1.696404835075885
1782661251238916600,4.29191650390625,4.1823324466407295,1.0719485560163855,1.5360013610213994
1782661251248988700,4.30198876953125,4.760566049838066,0.8797609735578298,1.3450903743699192
1782661251259059700,4.312059814453125,5.027904150348902,0.881265532901883,1.1514537621468306
1782661251269130800,4.322130859375,5.3184173747420305,1.256609542362392,1.0261144410803913
1782661251279202800,4.332202880859375,5.712188144513965,1.6502867886319756,1.1132093716874718
1782661251289273900,4.34227392578125,6.05242898415029,2.0257287055090067,1.3234756316721439
1782661251299345700,4.352345703125,6.19627806763649,2.3883579025641084,1.5840940685391425
1782661251309416400,4.36241650390625,6.268888545817137,2.647630770041048,1.7477835785269735
1782661251319488500,4.372488525390625,6.4692573889046905,2.68558085372895,1.7607152485534547
1782661251329559600,4.3825595703125,6.78977821354866,2.563363464075327,1.603586412255466
1782661251339631600,4.392631591796875,7.042932305884361,2.351917931178212,1.2843620571628211
1782661251349702700,4.40270263671875,6.931599590599537,2.125852629037201,1.0522386240266264
1782661251359773700,4.412773681640625,6.532088231348991,1.9202590370386838,1.0011980264887212
1782661251369845500,4.422845458984375,6.1306917890042065,1.8255001476749777,1.0528709305807948
1782661251379916500,4.43291650390625,5.9939323715180155,1.9073557163238524,1.0539867828682064
1782661251389988600,4.442988525390625,5.882796055588126,2.0815566834539174,0.9382128702655435
1782661251400059600,4.4530595703125,5.1351586564093825,2.2390616595879194,0.8754723364531993
1782661251410131700,4.463131591796875,4.613431953331828,2.3682076794609426,0.7388249279741197
1782661251420202800,4.47320263671875,4.320377227762341,2.54107944381386,0.7066500666867941
1782661251430273500,4.4832734375,4.387026751711964,2.547695062561333,0.5746688233878463
1782661251440345600,4.493345703125,4.579862861207127,2.436331367616355,0.40694450492598117
1782661251450416600,4.503416748046875,4.79767091487348,2.466402973014116,0.23005298353768883
1782661251460488400,4.513488525390625,5.058817175006866,2.681595291224122,0.027389380576461553
1782661251470559500,4.5235595703125,5.1590749540477985,2.9003207519963383,-0.28738278088029473
1782661251480631600,4.533631591796875,4.854335635903477,2.936375815717876,-0.7124618947707116
1782661251490702600,4.54370263671875,3.778020409110188,2.6137670788839458,-1.0478691767707466
1782661251500773600,4.553773681640625,1.5374404539138078,1.8099656016737222,-0.9919148690324276
1782661251510845700,4.563845703125,-1.645033982670307,0.4225555502295494,-0.20198142938334493
1782661251520916700,4.573916748046875,-4.5536809567242855,-1.503826938125491,1.1003795546002686
1782661251530988800,4.58398876953125,-5.843582235574722,-3.739555361637473,2.0245165532402694
1782661251541059800,4.594059814453125,-5.4623792709529395,-5.85220159536004,1.7402442690633235
1782661251551131600,4.604131591796875,-6.28505116058886,-8.02277219478488,0.51424263093248
1782661251561202400,4.614202392578125,-8.238163250437378,-9.840101018702983,-0.5131954599671066
1782661251571273500,4.6242734375,-9.214960118380189,-9.861716638183593,-1.3986156283304094
1782661251581345500,4.634345458984375,-8.094860110396146,-7.9012009940803045,-1.852469403143227
1782661251591416600,4.64441650390625,-7.153242692384123,-5.451527622070908,-1.3908059774927795
1782661251601488600,4.654488525390625,-7.4311518712699405,-3.704507429131865,-0.3776874307814985
1782661251611559700,4.6645595703125,-8.852783925789595,-2.4855595089048146,0.34171452891808
1782661251621631700,4.6746318359375,-11.184101552009581,-1.4123065922915934,0.1149217892853543
1782661251631702800,4.684702880859375,-13.54369016394615,-0.4457341812431812,-0.6919244989808648
1782661251641773800,4.69477392578125,-15.036654931795596,-0.1738981847912073,-1.4640928936302662
1782661251651845600,4.704845703125,-14.410123453897237,-0.8182920671164989,-2.0435338267907497
1782661251661916700,4.714916748046875,-11.025497382462024,-1.698075252506137,-2.398403203499317
1782661251671988700,4.72498876953125,-6.337928764295578,-2.140032837820053,-2.2551938792213795
1782661251682059800,4.735059814453125,-2.0256226147860286,-1.8018804948955773,-1.7408631316140293
1782661251692131800,4.7451318359375,1.0869529406636953,-0.9869389072507619,-0.9453549240399152
1782661251702203000,4.755202880859375,3.2065041314691305,0.037440380600094796,0.03512735441736877
1782661251712274000,4.76527392578125,4.4106969656348225,1.0001929410994053,1.006017044143006
1782661251722345700,4.775345703125,4.781505377492309,1.6235983959317206,1.8433882710650562
1782661251732416800,4.785416748046875,4.623568147420883,1.9794477235883474,2.3082982774212955
1782661251742488800,4.79548876953125,4.218426673328876,2.2870690269097684,2.3577765940785405
1782661251752559600,4.8055595703125,4.025535034254193,2.481527769170701,2.188776702722907
1782661251762631700,4.815631591796875,4.265741382211447,2.505743342016637,1.9618059761747717
1782661251772702700,4.82570263671875,4.630433941537142,2.348426581931114,1.8020019293181597
1782661251782773800,4.835773681640625,4.727038458767533,2.101235489653051,1.8412024514585732
1782661251792845800,4.845845703125,4.429987941560149,1.9201523617938159,1.9762737697273491
1782661251802916900,4.855916748046875,3.893376973083615,1.8993056808590887,2.005224262140691
1782661251812988700,4.86598876953125,3.3162253199040888,1.965671711692214,1.839191550027579
1782661251823059700,4.876059814453125,2.9430940180569887,2.132491044138372,1.5748698747284708
1782661251833131800,4.8861318359375,2.7172844442427158,2.271713344606757,1.2751492615289985
1782661251843202800,4.896202880859375,2.7311066333681344,2.339256310264766,0.9894958982571959
1782661251853273900,4.90627392578125,2.892097990313172,2.402468553242087,0.781273419059813
1782661251863346000,4.916345947265625,3.1818712099939583,2.4270602659240366,0.6493421523824334
1782661251873416700,4.926416748046875,3.679468264943361,2.388376899525523,0.5972101794112473
1782661251883488800,4.93648876953125,4.315758920311928,2.3992197805792093,0.5199287868101149
1782661251893559800,4.946559814453125,4.992851541668176,2.498901513297856,0.4710342613901943
1782661251903630800,4.956630859375,5.609067377257347,2.6419842885866758,0.4149688944928348
1782661251913702700,4.96670263671875,6.132925831666588,2.8325363787978888,0.3859557121068239
1782661251923773700,4.976773681640625,6.450977635848522,2.986895165860653,0.38214777119122445
1782661251933845800,4.986845703125,6.668249098420143,3.101389560046792,0.37312523743249476
1782661251943916800,4.996916748046875,6.7855825154244895,3.198710701113939,0.3290645619098097
1782661251953988900,5.00698876953125,6.879544993713497,3.2836312102913854,0.5213477136973291
1782661251964060000,5.017059814453125,6.953694518029689,3.2149633322566746,0.5877898054413497
1782661251974131000,5.027130859375,6.915207843247056,2.934187073501944,0.5543633366577327
1782661251984202800,5.03720263671875,6.400474944579601,2.5675527324587106,0.5331390180496499
1782661251994273500,5.0472734375,4.525114787453413,2.130835970407724,0.5659066210657357
1782661252004345600,5.057345703125,2.5005583405941723,1.486038767978549,0.1599088954705745
1782661252014416600,5.067416748046875,0.4188029196977615,0.7274936058163642,0.09507182777039706
1782661252024488700,5.07748876953125,-1.488477977824211,-0.3071189067572355,-0.2884511407641694
1782661252034559700,5.087559814453125,-3.268697845053673,-1.6158534808933733,-0.9886355551008135
1782661252044630800,5.097630859375,-4.492479176786541,-2.8880484226614236,-1.7633365369677543
1782661252054702800,5.107702880859375,-5.356630493280291,-3.9025364310950037,-2.340402411559969
1782661252064774000,5.11777392578125,-6.574103080257773,-4.902754506635666,-2.689835004042089
1782661252074845700,5.127845703125,-7.785110855135321,-5.841101524674892,-2.465791563117504
1782661252084916700,5.137916748046875,-8.399452129024267,-6.557531884685158,-1.5245476545929908
1782661252094987800,5.14798779296875,-8.205363389119505,-6.958418039420247,-0.41353747345022857
1782661252105059800,5.158059814453125,-6.588246756422519,-6.596327187025547,0.030914120636507867
1782661252115130600,5.168130615234375,-3.8367695351988074,-5.722618353113532,-0.0029249475359916684
1782661252125202700,5.17820263671875,-1.0401356599092484,-5.23581858651042,0.11854547794153913
1782661252135273700,5.188273681640625,0.5910767181575298,-5.232098689204454,0.6398256245616823
1782661252145345800,5.198345703125,-0.16129881545901298,-5.211462728410959,0.9890817644983529
1782661252155416800,5.208416748046875,-2.912365117794275,-4.773290506854653,0.6712642074637115
1782661252165487900,5.21848779296875,-6.331986514765024,-4.379173700124025,0.06774707339536398
1782661252175559700,5.2285595703125,-8.475880704188347,-4.267718819764256,-0.32734003967214376
1782661252185630700,5.238630615234375,-8.441606094142793,-4.4574622239410875,-0.4890328228848055
1782661252195702800,5.248702880859375,-7.190736848998069,-4.642921082666516,-0.784296200947091
1782661252205773800,5.25877392578125,-5.7368099600732325,-4.331088591390848,-1.1760216555617748
1782661252215844900,5.268844970703125,-4.308134416782856,-3.422119643527269,-1.4486017483793199
1782661252225917000,5.2789169921875,-2.6828087586671114,-1.9798393532544374,-1.3355135677292942
1782661252235987700,5.28898779296875,-1.1636159091055394,-0.4679027584314346,-1.0143888589080423
1782661252246059800,5.299059814453125,-0.018187398597598076,0.7991507287949323,-0.6012009660804644
1782661252256130800,5.309130859375,0.8897937072724104,1.7185288424700498,-0.17585578513238578
1782661252266201900,5.319201904296875,1.7226263409167528,2.3022855930030346,0.23760654072239992
1782661252276273700,5.329273681640625,2.4665531951397655,2.581940738773346,0.5575863903574645
1782661252286344700,5.3393447265625,2.9492390966832636,2.5854496236771345,0.68493040230982
1782661252296416800,5.349416748046875,3.1044138763040303,2.429336101901531,0.6617982407864182
1782661252306487800,5.35948779296875,3.094064916247129,2.272272147533297,0.6823604787565767
1782661252316560000,5.369559814453125,3.081725074633956,2.167060545477271,0.8033169816289096
1782661252326631000,5.379630859375,3.201346310314536,2.0934332914695144,1.0781337474573403
1782661252336702000,5.389701904296875,3.3115666804432866,2.0395266369760034,1.4207444580301642
1782661252346773800,5.399773681640625,3.4901147368669507,2.142738881908357,1.6721674887895583
1782661252356844500,5.409844482421875,3.713028589239716,2.4073896430313586,1.8423267793133853
1782661252366916600,5.41991650390625,3.8084494496434926,2.743883989615738,1.9472417365103958
1782661252376987600,5.429987548828125,3.778196350198984,3.021292525503039,2.038798030440509
1782661252387058700,5.44005859375,3.6197856573969123,3.1607734769076106,2.1235114727385342
1782661252397130800,5.450130859375,3.4686639525592327,3.142875124384463,2.090542100072652
1782661252407201800,5.460201904296875,3.464235030201077,3.0367694960981604,1.929040163256973
1782661252417273900,5.47027392578125,3.5624195100992915,2.89752936771214,1.6272816144891082
1782661252427345000,5.480344970703125,3.7496646677196024,2.8217978349015116,1.3255387016817926
1782661252437416000,5.490416015625,4.137144228392839,2.7570784022316337,1.0416210761614144
1782661252447487700,5.50048779296875,4.565189608210325,2.677838861300051,0.8268245523359626
1782661252457558800,5.510558837890625,4.953006438013911,2.6091402958661316,0.6840417098417878
1782661252467630800,5.520630859375,5.274467173856497,2.474461776307225,0.5219278516728431
1782661252477701600,5.53070166015625,5.51780714366436,2.404772154009342,0.400457334863767
1782661252487772700,5.540772705078125,5.4533507458448405,2.473877838939428,0.41315592678673563
1782661252497844700,5.5508447265625,5.0470975111186505,2.5433529417037963,0.3382943086784333
1782661252507915800,5.560915771484375,4.678078905287385,2.5885809074401855,0.2552428447758779
1782661252517987800,5.57098779296875,4.1045185545980925,2.7113538851499555,0.3140139269679785
1782661252528059000,5.581058837890625,3.28414500503242,2.958679125201702,0.40550548509880896
1782661252538130700,5.591130615234375,2.441716275525093,3.061041183045506,0.4679980354994535
1782661252548201700,5.60120166015625,1.7730279098987578,2.7267443465054035,0.5293146009232849
1782661252558272800,5.611272705078125,0.9523089078962802,1.8270371479839085,0.6077199560530483
1782661252568344800,5.6213447265625,-0.16694237430393694,0.4431920955449343,0.7458830297920852
1782661252578415900,5.631415771484375,-1.6933219204992054,-1.0891343763560055,0.7637441190447658
1782661252588488000,5.641488037109375,-3.5867256838381287,-2.463438277989626,0.018424614020111037
1782661252598558700,5.651558837890625,-4.7201253183782095,-3.029290538519621,-1.0656852578379212
1782661252608629800,5.661629638671875,-5.0689393405705685,-3.250558377251029,-1.6113587998226284
1782661252618704000,5.671703857421875,-5.2912207402586935,-3.6577462624788284,-1.3242840254455803
1782661252628775400,5.681775390625,-5.286701217007637,-3.538843404200673,-0.28681853459365664
1782661252638846200,5.69184619140625,-6.204920808297396,-2.8121915099054573,0.2998711641186848
1782661252648918300,5.701918212890625,-5.172528894382715,-2.163470412030816,0.2688583323480561
1782661252658989300,5.7119892578125,-2.9216186838299034,-1.426695767650008,0.2207925493698567
1782661252669061000,5.72206103515625,-1.1839555173009633,-0.5305144051671028,0.4774834375295788
1782661252679132200,5.732132080078125,-0.3469686865866184,-0.5413134470790625,1.1375339578658341
1782661252689203200,5.742203125,-1.4270622628748415,-1.691797487410903,0.9933060311298817
1782661252699275300,5.752275146484375,-2.9766566804409025,-2.80267490901947,-0.04614537284225225
1782661252709346300,5.76234619140625,-4.402763250026107,-3.509411558011174,-1.2260855170220135
1782661252719418400,5.77241845703125,-5.550551475402712,-4.072625286731124,-1.8336779011726378
1782661252729489400,5.782489501953125,-6.553714372223615,-4.306036567720771,-1.853776394088566
1782661252739560400,5.792560546875,-5.879954694682359,-4.505151026833057,-1.2350466759823262
