time,seconds_elapsed,z,y,x
1782663383892990000,0.036989990234375,-0.291414557147026,0.04358542269375175,0.0602273819476366
1782663383903060000,0.04706005859375,0.1834142011553049,0.0005868965098634361,0.17796163483783603
1782663383913129700,0.057129638671875,0.39397359886765476,-0.0814690535493195,0.24986747188046574
1782663383923200000,0.067199951171875,0.38675884518325326,-0.13597809438277036,0.1668603951089084
1782663383933270000,0.07727001953125,0.3177431766241789,-0.10769976560994982,0.0486266682639718
1782663383943339800,0.08733984375,0.18758710292577743,-0.16556377942711115,-0.03744257255718112
1782663383953409800,0.097409912109375,0.05229658894836902,-0.2233281322620809,-0.08730214361697435
1782663383963480000,0.10747998046875,0.04146656737625599,-0.21045703331641852,-0.09475304414480924
1782663383973549800,0.1175498046875,0.047211833029985426,-0.18453863860797137,-0.13287395435497165
1782663383983619800,0.127619873046875,0.014023849177360534,-0.15734196759201585,-0.11326660595685242
1782663383993690000,0.137690185546875,-0.041138066074252126,-0.12672361503168939,-0.09435279278084635
1782663384003759900,0.147759765625,-0.13190379414856432,-0.09374565720055252,-0.08293211183920503
1782663384013830000,0.157829833984375,-0.11287117689847946,-0.10005728803277016,-0.09993395391404628
1782663384023899000,0.16789892578125,0.010683306577801704,-0.10673073791470378,-0.06640197892934084
1782663384033969000,0.177968994140625,0.16192308483719825,-0.17619659792669115,-0.062250119946897026
1782663384044039000,0.188038818359375,0.2872685433834791,-0.19447620485238729,-0.03471650859415531
1782663384054109000,0.19810888671875,0.17344225771725177,-0.13937128048501907,-0.01572261591926217
1782663384064179000,0.208178955078125,0.028828619599342343,-0.09928360024653375,-0.058008244593441484
1782663384074249000,0.2182490234375,-0.047125908312201495,-0.11387180530838667,-0.08193842462673782
1782663384084319000,0.228319091796875,-0.0952928501099348,-0.16644750345908105,-0.07932780373692512
1782663384094389000,0.238388916015625,-0.013752046498656273,-0.2154581295393407,-0.07234817398265003
1782663384104458800,0.248458740234375,0.08270400217175483,-0.2711972601570189,-0.07568813206031919
1782663384114528800,0.25852880859375,0.18795242910683155,-0.24019115038812158,-0.06375321798622607
1782663384124599000,0.26859912109375,0.20969255174994467,-0.1456781255442649,0.004584551311284303
1782663384134667800,0.278667724609375,0.19496786082684991,-0.09923932271338999,0.04990896315947175
1782663384144738000,0.288738037109375,0.16926584881544113,-0.11721797393113374,0.10102562160827219
1782663384154807800,0.298807861328125,0.16790858898758887,-0.13362477272227405,0.1156156533010304
1782663384164877800,0.3088779296875,0.3171913879603147,-0.1561702934641391,0.153114193829149
1782663384174948000,0.318947998046875,0.459921696549654,-0.19484036198966204,0.2531658558387309
1782663384185017900,0.329017822265625,0.4234083676666021,-0.17591843857243655,0.331825112664327
1782663384195088000,0.339087890625,0.23909926349818705,-0.14217735088169575,0.3751245945561677
1782663384205158000,0.349157958984375,-0.030399814438819884,-0.11164579982198775,0.34898229143135245
1782663384215228000,0.359227783203125,-0.23161972139775752,-0.07714256865233182,0.3100378629438579
1782663384225298000,0.3692978515625,-0.29031156434118743,-0.054580608232319354,0.3193333684250712
1782663384235368000,0.379367919921875,-0.35130233187675475,-0.04739603049047291,0.3118425742782652
1782663384245437000,0.38943701171875,-0.2223088722169399,-0.03712671154104173,0.32082901381030676
1782663384255507000,0.3995068359375,-0.08052315100133418,-0.03569908989071846,0.3453593516938388
1782663384265577000,0.409576904296875,-0.11239829868972301,-0.0534636599663645,0.30535701165124773
1782663384275647000,0.41964697265625,-0.1339998896449804,-0.05519128747656941,0.23498810185231267
1782663384285717000,0.429717041015625,-0.13428747441470623,-0.0042273353714495894,0.1680923480566591
1782663384295786800,0.439786865234375,-0.08539630999565125,0.004142725827917457,0.11361556552499533
1782663384305857000,0.44985693359375,-0.022492986837029456,-0.003038637043535709,0.07040156995952129
1782663384315927000,0.459927001953125,0.09047814330458641,0.0036189942147582766,0.022924144795909523
1782663384325996800,0.469996826171875,0.1559995400071144,0.004307853261753917,-0.027726065184921024
1782663384336067000,0.480067138671875,0.1672282055079937,-0.039877106227725743,-0.0685768387503922
1782663384346136800,0.49013671875,0.14368483283519745,0.004591492508724332,-0.08955613308884203
1782663384356206800,0.500206787109375,0.11216975063085555,0.03709792383797467,-0.04950856566503644
1782663384366276000,0.510276123046875,0.08411386896967887,0.0725416507281363,-0.03229958364553749
1782663384376346400,0.520346435546875,0.07084931372702122,0.1082552806008607,0.029299963438138364
1782663384386416000,0.530416015625,0.10180559300482273,0.09648447104729711,0.05152151292264461
1782663384396486400,0.540486328125,0.14563772046864032,0.09222615601569413,0.055195159934088585
1782663384406556400,0.550556396484375,0.22271219232082365,0.05878295529298484,0.0492106056317687
1782663384416626200,0.560626220703125,0.2868675613671541,0.01719911821261048,0.07421842483393848
1782663384426696200,0.5706962890625,0.30749592337608334,-0.03553834637105465,0.0713116705417633
1782663384436766500,0.580766357421875,0.23245909483134744,-0.04498195508606732,0.09595547873713076
1782663384446836200,0.590836181640625,0.09914309579730034,-0.04981880065798759,0.11397037031203508
1782663384456906200,0.60090625,0.005904255607724189,-0.0483303156659007,0.12161774326004088
1782663384466976500,0.6109765625,-0.01890869860947132,-0.055869405933842056,0.1045976348761469
1782663384477046300,0.62104638671875,-0.0009837503403425216,-0.0576505902621895,0.06014737551398575
1782663384487115300,0.631115234375,0.0019388591080904006,-0.06887004954330622,0.024111747145280242
1782663384497185300,0.641185302734375,-0.042139352071285247,-0.08379260112605988,0.005876198557019234
1782663384507255300,0.65125537109375,-0.042295419415831564,-0.0819632668070495,0.011117606341838835
1782663384517325300,0.6613251953125,-0.09728782331943511,-0.09280183701179921,0.03788607854098081
1782663384527395300,0.671395263671875,-0.11480886696279048,-0.10245433923713862,0.03929755277410149
1782663384537465300,0.68146533203125,-0.08474807521998882,-0.08131561655327678,0.08312244677953422
1782663384547535000,0.69153515625,-0.04736147063374519,-0.06262048762924968,0.13762334083914757
1782663384557605400,0.70160546875,-0.02710778715610504,-0.056113736083731054,0.16093480445221064
1782663384567675400,0.71167529296875,-0.03952244757115841,-0.040200346832722424,0.17665435163155196
1782663384577745200,0.7217451171875,-0.0813368054717779,-0.0025653204433619976,0.18516820521578192
1782663384587815200,0.731815185546875,-0.13472995748519898,0.0036835108183324336,0.18468078702501953
1782663384597885400,0.741885498046875,-0.23720015187859533,0.02185512732490897,0.17178608800806103
1782663384607954200,0.7519541015625,-0.4341320062547922,0.06949424585625529,0.17961393208950757
1782663384618024400,0.7620244140625,-0.497701099845767,0.07538644570000469,0.15260295637138188
1782663384628094200,0.77209423828125,-0.32749417078793047,0.038743133761733765,0.15824951089099049
1782663384638164200,0.782164306640625,-0.12407061630487441,-0.00795410080961883,0.20462737731486558
1782663384648234200,0.792234130859375,0.059761518001556393,-0.06287753113023936,0.23779110350906849
1782663384658304300,0.80230419921875,0.1849742900788784,-0.08472856680192054,0.24042766255773604
1782663384668374300,0.812374267578125,0.14291267941892147,-0.06894764482416212,0.1817447335731238
1782663384678444300,0.8224443359375,0.11290917082130908,-0.03974346991069615,0.08821779715716839
1782663384688514300,0.832514404296875,0.21629881814718246,-0.06154328685179353,0.0005502542939037085
1782663384698584300,0.842584228515625,0.32686405619084835,-0.10268683281876147,-0.03381086499132216
1782663384708654300,0.852654296875,0.35486440827250476,-0.10503010800927877,-0.07566168244481086
1782663384718724400,0.862724365234375,0.36094869662225243,-0.11718611748814582,-0.13580942328497767
1782663384728793300,0.87279345703125,0.28962299755513665,-0.09094071931503712,-0.139056223186478
1782663384738863000,0.882863037109375,0.13645137445032596,-0.04953011990971863,-0.132588853803277
1782663384748933400,0.892933349609375,0.014129063117504118,-0.02286781149879098,-0.17325652588680385
1782663384759003400,0.90300341796875,-0.04703706098496914,-0.04438260095342993,-0.20238522441126405
1782663384769073200,0.9130732421875,-0.1666746632784605,-0.06210377027876675,-0.28157610389553006
1782663384779143400,0.923143310546875,-0.3345721463501453,-0.0568147970251739,-0.38914369449317454
1782663384789213200,0.933213134765625,-0.3001426380038261,-0.10863704646006225,-0.42218584013432264
1782663384799283200,0.943283203125,-0.1461263807684183,-0.15371150213517248,-0.34663660508804023
1782663384809353500,0.953353515625,0.06258242064118386,-0.16950922911725938,-0.28829569447413084
1782663384819423200,0.96342333984375,0.16818506784141063,-0.1760348314937204,-0.2120386764846742
1782663384829493200,0.9734931640625,0.11205986051559448,-0.11905549155659972,-0.16005246865972875
1782663384839563300,0.983563232421875,0.0955932943612337,-0.07502776845544576,-0.14388123219013213
1782663384849632300,0.99363232421875,0.13694003475010394,-0.051727703019231554,-0.092076737607643
1782663384859702300,1.003702392578125,0.14591069219112396,-0.015797361655905843,-0.0174031163521111
1782663384869772300,1.013772216796875,0.2257996369421482,-0.017653145590424538,0.04652655417956412
1782663384879842300,1.02384228515625,0.27734628430604935,-0.004653597959503531,0.10747793955281376
1782663384889912300,1.033912353515625,0.1974099932819605,0.004520619229599833,0.11237206826992333
1782663384899982300,1.043982421875,0.02399462357163429,-0.01281893036700785,0.0657017217054963
1782663384910052400,1.05405224609375,-0.1688970155030489,-0.030071532332524655,0.013153203822672366
1782663384920122400,1.064122314453125,-0.31647476412355896,-0.06639196899197995,0.010956570561230183
1782663384930192100,1.074192138671875,-0.30415888790786266,-0.09008030309341847,-0.014130670552700756
1782663384940262400,1.084262451171875,-0.25733283932507034,-0.10230988926514982,-0.03405256479270756
1782663384950332400,1.09433251953125,-0.22992636148333548,-0.10332527685277164,-0.06081431499011814
1782663384960402200,1.104402099609375,-0.14878653988838195,-0.09142959881052375,-0.07877594200782477
1782663384970471400,1.114471435546875,-0.0664624769449234,-0.0580151127256453,-0.066289750726521
1782663384980541200,1.124541259765625,-0.0381458985209465,-0.04786927402541041,-0.007133505141735077
1782663384990611200,1.134611083984375,-0.023702947148680684,-0.04006875634230673,0.07622121602371335
1782663385000681500,1.144681396484375,0.03207797678411007,-0.0190044140689075,0.10761815174110233
1782663385010751200,1.154751220703125,0.05074468333125114,-0.04103080630749464,0.15345957320071757
1782663385020821200,1.1648212890625,-0.03139174808561802,-0.02372019054442644,0.17059344415739178
1782663385030891300,1.174891357421875,-0.14202420614659786,-0.0065362699009478085,0.18533567073717713
1782663385040961300,1.184961181640625,-0.3006155162125826,-0.0036220629546791314,0.20795118797533213
1782663385051031300,1.19503125,-0.5794751276910305,0.0037054303891956805,0.25615597756542263
1782663385061101300,1.205101318359375,-0.8308312306940555,0.0008667728971689939,0.1795182166300714
1782663385071171300,1.21517138671875,-0.8811182333856821,0.01033851172812283,0.07660122831724583
1782663385081241300,1.225241455078125,-0.8620417769938706,-0.0002151771206408739,0.04782280453518033
1782663385091310300,1.235310302734375,-0.7330301971554756,0.004358195209503174,0.010924202661588788
1782663385101380400,1.24538037109375,-0.5132891295999288,0.028241102034971117,0.040387905294075606
1782663385111450000,1.2554501953125,-0.25731647271215913,0.06450958931148051,0.049295507436245674
1782663385121520400,1.265520263671875,0.006961071184277534,0.16540099008083342,0.15951975002251564
1782663385131590400,1.27559033203125,0.2586766551494598,0.1280880352526903,0.18267529242150485
1782663385141660200,1.28566015625,0.41009938876032825,0.0638984716758132,0.1380651663225144
1782663385151730200,1.295730224609375,0.4500321706980467,0.04064692155644297,0.0712616208549589
1782663385161800400,1.305800537109375,0.45751872706115243,0.08143471288830041,-0.008326368188112974
1782663385171870200,1.3158701171875,0.4616986430943012,0.09722805595621466,-0.05487827600464224
1782663385181940200,1.325940185546875,0.4836106151729822,0.1027782374292612,-0.08499766606688498
1782663385192010500,1.336010498046875,0.4001461500227451,0.11199614762961864,-0.09973061336167156
1782663385202080300,1.346080322265625,0.29706688382029534,0.07994272076487541,-0.17429164108820258
1782663385212149500,1.3561494140625,0.2750923678994179,0.04436667273193597,-0.15722389417029917
1782663385222219300,1.36621923828125,0.2938584431678056,0.003911766616255045,-0.09597140695862472
1782663385232289300,1.376289306640625,0.30958266652226446,0.012834201001375913,-0.08479125677458942
1782663385242359300,1.386359375,0.30964579488635063,0.03653860945478082,-0.0951983767595142
1782663385252429300,1.39642919921875,0.3348217371970415,0.024664485657215116,-0.07625562974996865
1782663385262499300,1.406499267578125,0.2892290298014879,0.024925620811432597,-0.08046827900893985
1782663385272569000,1.416569091796875,0.30046470956504345,0.007766980739682913,-0.04059592202156782
1782663385282639400,1.426639404296875,0.3744061440885067,0.034870237851142884,0.007298778706043958
1782663385292709400,1.43670947265625,0.459912344199419,0.023779811777174472,0.06430719860717654
1782663385302779100,1.446779052734375,0.46683659050464626,-0.019193068508803843,0.08501279057078064
1782663385312849400,1.456849365234375,0.4170610444664955,-0.038536943665146824,0.05999971067160367
1782663385322918100,1.466918212890625,0.31446400882303716,-0.059012453199923036,0.019977058493345974
1782663385332988200,1.47698828125,0.20017828895151615,-0.0770627814143896,-0.0013753800064325332
1782663385343058400,1.487058349609375,0.1515203487664461,-0.08058145705983043,0.02841981960274279
1782663385353128200,1.497128173828125,0.11654314340949058,-0.08454086221009492,0.03649550096541643
1782663385363198200,1.5071982421875,-0.009035539370775222,-0.0412668070204556,0.10716916586458683
1782663385373268500,1.5172685546875,-0.21416706681549547,0.00750219232365489,0.12056048929207026
1782663385383338000,1.527337890625,-0.38386779991686343,0.02373158872127533,0.08684256328120828
1782663385393408000,1.537407958984375,-0.4409726659297943,0.013734364711493252,0.08907214896418154
1782663385403478000,1.54747802734375,-0.36270635394454,-0.016055208874493836,0.10264752372168004
1782663385413548000,1.557548095703125,-0.2494102296322584,-0.05076134220510721,0.13594152523204683
1782663385423618000,1.5676181640625,-0.12131868724822997,-0.0265289643548429,0.19883425393141804
1782663385433687800,1.577687744140625,-0.02480769352018833,-0.01636442095413804,0.24027137601748108
1782663385443757000,1.587757080078125,0.02869242599904537,-0.014042407747358083,0.23360475773513315
1782663385453826800,1.597826904296875,0.025835283002257344,-0.017503069595247507,0.14602942319996653
1782663385463897000,1.60789697265625,0.024570377632975576,-0.044147330892831085,0.05794928094781935
1782663385473967000,1.617967041015625,0.037947161078453064,-0.055218175483494995,0.028979645442590116
1782663385484036900,1.628036865234375,0.03498831127285957,-0.05564663002863526,0.02636902455277741
1782663385494107000,1.63810693359375,0.0950707317918539,-0.03827230137959122,0.038348946812376376
1782663385504177000,1.648177001953125,0.12715046214163303,-0.013643179296702146,0.0940101898882538
1782663385514247000,1.658246826171875,0.05653145003914833,0.02974456540048122,0.11202581211552023
1782663385524317000,1.66831689453125,0.03962649246752262,0.08249094394296408,0.11453399554416537
1782663385534387000,1.678386962890625,0.027210663008689878,0.10202361966967582,0.1165520573683083
1782663385544457000,1.68845703125,-0.047781741872429846,0.11312778200805186,0.12290617563538253
1782663385554526000,1.69852587890625,-0.10376783298850059,0.15103928725123406,0.14067059958055614
1782663385564596000,1.708595947265625,-0.049427755513787267,0.1500628434345126,0.18262626564800738
1782663385574666000,1.718666015625,0.08581775027811527,0.15975319345220923,0.22970132055580614
1782663385584735700,1.72873583984375,0.17057693141400812,0.12339914678409696,0.2441680181298405
1782663385594806000,1.738805908203125,0.07361351774334907,0.07460866626054048,0.17343144406229258
1782663385604876000,1.7488759765625,-0.0282815071105957,0.06613631373047828,0.06136866093724966
1782663385614945800,1.75894580078125,0.004138999500870704,0.013981471340358256,0.01576082903780043
1782663385625016000,1.76901611328125,0.09706336691379547,-0.028488573990017176,0.008471110421046615
1782663385635086000,1.779086181640625,0.16950491826832292,-0.05890870056450367,0.006855857244133949
1782663385645155800,1.78915576171875,0.25927345199882984,-0.053975189685076475,0.017852832880988715
1782663385655226000,1.79922607421875,0.30753567086458206,-0.054156975992769,0.032750542283430696
1782663385665294800,1.809294921875,0.24410452443957328,-0.05428673985227942,0.06941884253248572
1782663385675364900,1.81936474609375,0.20084815103709697,-0.061813482095301145,0.06718092741258443
1782663385685435100,1.82943505859375,0.21780103940367698,-0.08593640822172165,0.08568608672246336
1782663385695505000,1.8395048828125,0.11764672073721885,-0.1088512737326324,0.11208660239204764
1782663385705575000,1.849574951171875,-0.003641571372747421,-0.13290434949323535,0.07846936027668416
1782663385715645200,1.859645263671875,-0.08299450955092906,-0.17362506693825125,0.01015109939724207
1782663385725715000,1.86971484375,-0.08780103304982184,-0.1943912299826741,0.008771189346164464
1782663385735785000,1.879784912109375,-0.015655834293365478,-0.19984701117053627,0.002041442699730396
1782663385745855000,1.88985498046875,0.06431611256599426,-0.24818916340470312,0.011344620030745864
1782663385755925000,1.899925048828125,0.0070996028721332545,-0.24024346509724853,0.04204831278696656
1782663385765995000,1.9099951171875,-0.11771277171075344,-0.21040946784764528,0.07620528780221938
1782663385776064000,1.92006396484375,-0.18100655549168584,-0.2110031959570944,0.09197320416793227
1782663385786134000,1.930134033203125,-0.2325520338118076,-0.2255376250050962,0.08918839575499296
1782663385796203800,1.940203857421875,-0.2614975577890873,-0.23076675783023237,0.06516366930603981
1782663385806274000,1.950274169921875,-0.2980897971272468,-0.24230916545540093,0.09834310452602803
1782663385816344000,1.960343994140625,-0.35509646346271034,-0.22535919969826934,0.07774396861158311
1782663385826413800,1.970413818359375,-0.3651210138708353,-0.1857290539689362,0.04357340346239507
1782663385836483800,1.98048388671875,-0.25747721623182296,-0.18051497258245944,0.024686770554259416
1782663385846554000,1.99055419921875,-0.12886252675652504,-0.17988865737766027,0.03126497990079224
1782663385856623900,2.000623779296875,-0.028916297882795334,-0.15354104093909263,0.017786124320328233
1782663385866694000,2.01069384765625,0.03242109113335609,-0.12657163934037088,0.04161510900147259
1782663385876763000,2.020762939453125,0.02749941682219505,-0.11352584141492843,0.06017820904366672
1782663385886833000,2.0308330078125,0.009489712879061698,-0.09480185172259807,0.03760170864164829
1782663385896903000,2.04090283203125,0.08672492825090884,-0.10164031944051384,0.06420461501553654
1782663385906973000,2.050972900390625,0.16591127769052982,-0.11248436953797936,0.0837467892229557
1782663385917043000,2.06104296875,0.21986673976182936,-0.13408859084174035,0.06407507035173475
1782663385927113000,2.071113037109375,0.2553127316743135,-0.1388793322496116,0.1170185789015144
1782663385937183000,2.081182861328125,0.23992694649398325,-0.031847967420518396,0.19075528463311492
1782663385947253000,2.0912529296875,0.15940028836131095,0.11318594193607569,0.2293972230426967
1782663385957323000,2.101322998046875,0.09748714528381824,0.12126330379918217,0.25612105238251387
1782663385967393000,2.11139306640625,0.15927929233014582,0.0520763703264296,0.32696948932670056
1782663385977462000,2.1214619140625,0.1145855796009302,-0.09251344852447509,0.2559644005160779
1782663385987531800,2.13153173828125,0.10198036504983901,-0.1757275921754539,0.15805968740731477
1782663385997602000,2.14160205078125,0.1509329042673111,-0.2224342521622777,0.13830555094964803
1782663386007672000,2.151672119140625,0.16389701525866984,-0.28583295762240885,0.07919292531087994
1782663386017741800,2.161741943359375,0.16495675344467162,-0.2887557132013142,0.0653201750420034
1782663386027812000,2.17181201171875,0.1570849971562624,-0.22732048983387648,0.037915523831173775
1782663386037881900,2.1818818359375,0.1457306594491005,-0.16325279907099902,0.009816314484924078
1782663386047952000,2.191951904296875,0.13413199159204958,-0.1388889037955552,0.06443462437912821
1782663386058022100,2.202022216796875,-0.038651509955525395,-0.13608685198687015,0.09564078676477074
1782663386068092000,2.212091796875,-0.3056874126493931,-0.11587474262863397,0.06372340736985206
1782663386078162000,2.222161865234375,-0.42434710982143875,-0.06014189562126994,0.10829553954601287
1782663386088231000,2.23223095703125,-0.4010778779149055,-0.053128728923574085,0.12509579463414847
1782663386098301000,2.242301025390625,-0.31402678644955156,-0.07554353595785797,0.07952310711331666
1782663386108371000,2.252370849609375,-0.1604080040991306,-0.12303133638501167,0.04063040881305933
1782663386118441000,2.26244091796875,-0.06545300764143466,-0.15281864494867622,-0.0287128842651844
1782663386128511000,2.272510986328125,-0.06462474012374878,-0.16600750460661948,-0.12661314039453864
1782663386138581000,2.2825810546875,-0.1311953536182642,-0.15724954006820915,-0.23327881371639667
1782663386148651000,2.292651123046875,-0.129507838922739,-0.1309307113327086,-0.3198807731747627
1782663386158721000,2.302720947265625,-0.06526654515862465,-0.08950016511790454,-0.35234891832023857
1782663386168791000,2.312791015625,0.019246552261710168,-0.07415186240375042,-0.39499673137031494
1782663386178860800,2.32286083984375,0.13445289410948752,-0.07380969790257513,-0.4381816469717771
1782663386188930000,2.332929931640625,0.19327742352187632,-0.05086801744997501,-0.4260728376355022
1782663386198999800,2.342999755859375,0.15129121618568897,-0.06589622136428952,-0.4336453187163919
1782663386209070000,2.353070068359375,0.07686813562512397,-0.049639936959743496,-0.38364056703224775
1782663386219140000,2.36314013671875,0.18007541212141512,0.019729440407827495,-0.2775960943486541
1782663386229209900,2.3732099609375,0.27049977941215037,0.044033641385287044,-0.09340623264573514
1782663386239279900,2.38327978515625,0.28782909987568855,0.06460720446705817,0.10166611146889626
1782663386249350100,2.39335009765625,0.12026596332490444,0.10237718234769999,0.24577633010931313
1782663386259420000,2.403419921875,-0.09908522813022136,0.052090471917018294,0.2195752825345844
1782663386269490000,2.413489990234375,-0.106264325979352,-0.07674721265919505,0.14522380590550601
1782663386279560000,2.423559814453125,-0.04205810352861881,-0.2444246963046491,0.16826076342612503
1782663386289629000,2.43362890625,0.005962707796692848,-0.30980346966609357,0.22011399252116678
1782663386299699000,2.443698974609375,0.014672083953022956,-0.28074820170402526,0.25816125297322867
1782663386309769000,2.45376904296875,-0.035710195806622505,-0.2505208212226629,0.3266351428057998
1782663386319839000,2.4638388671875,-0.12813479700386524,-0.23777386011332272,0.382239468062669
1782663386329908700,2.47390869140625,-0.2789519659370184,-0.24832075389511882,0.42902671900503336
1782663386339979000,2.48397900390625,-0.26318448796272276,-0.23544278681725261,0.47479931301213796
1782663386350049000,2.494049072265625,-0.19596973134577272,-0.2681554082430899,0.5283901795547455
1782663386360118800,2.504118896484375,-0.10494856720566749,-0.25330183024331926,0.5600394095327704
1782663386370189000,2.51418896484375,-0.12042787588834762,-0.2289882038503885,0.5626631821651011
1782663386380259600,2.524259521484375,-0.2108674407482147,-0.16115210046470163,0.5430628480296582
1782663386390328300,2.534328369140625,-0.2750730786770582,-0.11757993911132215,0.513142926062271
1782663386400398600,2.544398681640625,-0.2907107927918434,-0.10136910128369926,0.4271143095124513
1782663386410468400,2.55446826171875,-0.2173725848585367,-0.09928440396413206,0.37489327001832423
1782663386420538400,2.564538330078125,-0.03760813838243484,-0.12704890146329997,0.39318025653287764
1782663386430608400,2.5746083984375,0.18285715179443357,-0.13090002393350003,0.44111141681335864
1782663386440678400,2.584678466796875,0.35252515166997905,-0.13127601763904093,0.4372052031550556
1782663386450748400,2.59474853515625,0.3492483219563961,-0.13481383637636898,0.33960867921262977
1782663386460818400,2.604818359375,0.20397242053747175,-0.1464228794969618,0.220290810392797
1782663386470888400,2.614888427734375,0.02101882263123989,-0.16544439083114265,0.12893171953521668
1782663386480958500,2.62495849609375,-0.17331307837963103,-0.11935440143793821,-0.050426995684206485
1782663386491027500,2.63502734375,-0.3358580945074558,-0.04549889163225889,-0.1971777919612825
1782663386501097500,2.645097412109375,-0.3148445325732231,0.034948563784360884,-0.265837925080955
1782663386511167500,2.65516748046875,-0.20656419059634207,0.10221227410957216,-0.25851203917227683
1782663386521237200,2.6652373046875,-0.07290098555982112,0.1309659287765622,-0.21543949790410696
1782663386531307500,2.6753076171875,0.13461013049781323,0.11455211572274565,-0.1543096872240305
1782663386541377300,2.685377197265625,0.3401455625683069,0.04772665068432688,-0.13675035739690064
1782663386551447300,2.695447265625,0.4922825819283724,0.02297185639515519,-0.17290274401307104
1782663386561517600,2.705517578125,0.5531242963820695,0.010529869581758975,-0.18219401171058416
1782663386571587300,2.71558740234375,0.5857844569683075,0.0259875509545207,-0.16131430528908966
1782663386581657300,2.7256572265625,0.5724345615297556,0.024615824209898707,-0.08473346217274666
1782663386591726300,2.735726318359375,0.39265024130940435,0.014399404491484165,-0.01033142440021038
1782663386601796400,2.74579638671875,0.22334698309302328,0.046049803513288495,-0.00247588859423995
1782663386611866400,2.755866455078125,0.06849895120859145,0.04645911496654152,-0.0013033376835286617
1782663386621936400,2.765936279296875,-0.057329322418570514,0.03407017351463437,-0.015294307504594325
1782663386632006400,2.77600634765625,-0.1560036316603422,0.023745471116155385,-0.022060586769133805
1782663386642076400,2.786076416015625,-0.2194242566913366,-0.01697875346019864,-0.02169781787134707
1782663386652146400,2.796146484375,-0.235097042119503,-0.03507511277347803,-0.012195976163074374
1782663386662216400,2.806216552734375,-0.247462018173933,-0.0793884478829801,0.01161240412145853
1782663386672286500,2.816286376953125,-0.2668126153320074,-0.0881166748702526,0.0028872458741068838
1782663386682356500,2.8263564453125,-0.21993279073536395,-0.061346010714024304,0.0322219883646816
1782663386692425500,2.836425537109375,-0.051529696229100225,-0.0488926257237792,0.09334208136834203
1782663386702495200,2.8464951171875,0.16186580169200895,-0.027087767281383273,0.16636493974216282
1782663386712565500,2.8565654296875,0.2639139712810516,-0.026811872949451206,0.17013642110489308
1782663386722635500,2.866635498046875,0.258790052396059,-0.042537119217216965,0.1446100579213351
1782663386732705300,2.876705322265625,0.20859189703166484,-0.05799976902604103,0.09947963427528739
1782663386742775600,2.886775634765625,0.16496084509789943,-0.06515373243391513,0.04716412143073976
1782663386752845600,2.896845458984375,0.16827274612486362,-0.07273907299637794,0.03370893898680806
1782663386762915300,2.906915283203125,0.23336510376036165,-0.0480278255879879,0.07947349581792951
1782663386772985300,2.9169853515625,0.21718612237572668,-0.004796732757240534,0.105008699895069
1782663386783055400,2.927055419921875,0.11337269667983055,0.042154549640417094,0.10357106830738484
1782663386793124400,2.937124267578125,0.03264028684198856,0.07051628238037227,0.06083776893094182
1782663386803194600,2.947194580078125,0.07798515695631504,0.028881664960831402,-0.025192820380255578
1782663386813264400,2.957264404296875,0.1759457649707794,-0.0299840732447803,-0.04142513938732445
1782663386823334400,2.96733447265625,0.23419278675615787,-0.07233166123926639,-0.04580211236253381
1782663386833404400,2.977404296875,0.24498890605866908,-0.07594926721453667,-0.05216317182704806
1782663386843474400,2.987474365234375,0.2499362993329763,-0.08193652493059635,-0.08616568693295121
1782663386853544400,2.99754443359375,0.2018044288486242,-0.07974778271466493,-0.06700279436670244
1782663386863614200,3.0076142578125,0.081485858553648,-0.06535144696310162,-0.061493164099752896
1782663386873684500,3.0176845703125,-0.010967384216189384,-0.08836597345620394,-0.05376666150093078
1782663386883753200,3.027753173828125,-0.07248772858381271,-0.09773659000024199,-0.04908785603493452
1782663386893823500,3.037823486328125,-0.11369652180671691,-0.13323635792657731,-0.04152721152231097
1782663386903893500,3.0478935546875,-0.12370821273326874,-0.1766270252332091,-0.024935996074974535
1782663386913963300,3.05796337890625,-0.10581249055862427,-0.19216727032288908,0.017280074494332075
1782663386924033300,3.068033203125,-0.040652328383922576,-0.18702376995459197,0.06132051094658673
1782663386934103600,3.078103515625,0.01595160236954689,-0.16963000595271585,0.1321352648168802
1782663386944173300,3.08817333984375,0.09709317753016948,-0.16599983275681734,0.186586401450634
1782663386954243300,3.098243408203125,0.17843699726462364,-0.1286266721740365,0.23158874173760413
1782663386964313600,3.108313720703125,0.15715280169546603,-0.11113726577796042,0.29432072691731154
1782663386974383400,3.11838330078125,0.07509937238693237,-0.1306803167682141,0.2963246871508658
1782663386984452600,3.12845263671875,-0.03745148651599884,-0.14127864847630262,0.2512993313144892
1782663386994522400,3.1385224609375,-0.22244565033912658,-0.13753865823037922,0.19988661252856255
1782663387004592400,3.14859228515625,-0.3760042269349098,-0.13188793899230658,0.12390826535001397
1782663387014662400,3.158662353515625,-0.39405718549787994,-0.1434929635249078,0.04710625376366079
1782663387024732400,3.168732421875,-0.3721101421058178,-0.17565730341821909,-0.017517974903434513
1782663387034802400,3.178802490234375,-0.29696108535826204,-0.17824023258350788,-0.05596271024048328
1782663387044872400,3.18887255859375,-0.218780113568902,-0.16539521792717277,-0.10927585582025348
1782663387054942500,3.1989423828125,-0.16426584857106208,-0.1450928730022162,-0.10763437222354114
1782663387065012500,3.209012451171875,-0.12905191184878348,-0.11193820689730345,-0.0710213823582977
1782663387075081500,3.21908154296875,-0.09901683906912803,-0.10207096594274044,-0.05331014990508556
1782663387085151500,3.2291513671875,-0.06874386588037014,-0.08901968812458216,-0.060558659728616474
1782663387095221500,3.239221435546875,0.021825462839007378,-0.11137721201367676,-0.054401598403602834
1782663387105291300,3.249291259765625,0.11186989090144633,-0.10097674096524714,-0.04956657946258783
1782663387115361500,3.259361572265625,0.15260288330614566,-0.08823869381472468,0.0013414777368307112
1782663387125431300,3.269431396484375,0.18179975169599055,-0.0839790636088699,0.004858180620893836
1782663387135501300,3.279501220703125,0.15536299566924572,-0.09988426955342292,-0.005990034195035696
1782663387145571600,3.289571533203125,0.09806991360783576,-0.08797332087680697,0.0006548106469213963
1782663387155641300,3.299641357421875,-0.0029687866777181626,-0.04673362105898559,0.07402341371849179
1782663387165710300,3.30971044921875,-0.05652969647347927,-0.016738368833065034,0.09646101710647344
1782663387175780600,3.319780517578125,-0.053228316840529435,-0.021783596458658575,0.10762165887244045
1782663387185850400,3.329850341796875,-0.0268786545753479,-0.02900682571046054,0.11366159662380813
1782663387195920400,3.33992041015625,-0.024408465069532394,-0.03268522196225822,0.1121888937227428
1782663387205990400,3.349990478515625,-0.028102643412351608,-0.027731983469054103,0.10880078565441072
1782663387216060400,3.360060302734375,0.049850364840030664,-0.03136442168727517,0.1244479251846671
1782663387226130400,3.37013037109375,0.102508188316226,-0.051785570686310525,0.13544738503955303
1782663387236200400,3.380200439453125,0.09831424375772475,-0.06480038895159959,0.14766739966534076
1782663387246270500,3.3902705078125,0.14148469244241713,-0.053864349721744656,0.13689656093455851
1782663387256339200,3.400339111328125,0.2128933936178684,-0.05285970272384584,0.15039134473651647
1782663387266409500,3.410409423828125,0.39385669448971744,-0.07966441528014838,0.17519151253737508
1782663387276479500,3.4204794921875,0.5651543413937091,-0.04438588888905942,0.17471271604448557
1782663387286549200,3.43054931640625,0.5859948848485946,-0.035147374292090534,0.13837474372833966
1782663387296619500,3.44061962890625,0.6146990012854338,-0.07119929620847106,0.04311426151804626
1782663387306689500,3.450689453125,0.6501537610262632,-0.07815415684767067,0.02003777570463717
1782663387316759300,3.46075927734375,0.46017070287466044,-0.06315773631110787,0.02905819057151675
1782663387326829300,3.470829345703125,0.21563187867105005,0.0034317280143499372,0.002016673584654927
1782663387336899600,3.480899658203125,-0.07002806047201156,0.07690905215740203,-0.013170812544599175
1782663387346968300,3.49096826171875,-0.25202245795726774,0.03554316867664456,-0.07075820137746631
1782663387357038600,3.50103857421875,-0.4800415245145559,-0.032966596186906096,0.02411262392811477
1782663387367108400,3.5111083984375,-0.5545663118839264,-0.033223639687895774,0.08215338255167007
1782663387377178000,3.52117822265625,-0.5079875160604715,-0.043123906129226085,0.07572576065696776
1782663387387248400,3.531248291015625,-0.4548661667257547,-0.05056333541497588,0.10288652010932564
1782663387397318100,3.541318115234375,-0.42016485570073125,-0.041599326910451054,0.1803890811804682
1782663387407388200,3.55138818359375,-0.5065285494238138,-0.05240063384473324,0.21082586662881075
1782663387417458200,3.561458251953125,-0.5891483804434537,-0.09329685398712753,0.17812164770513772
1782663387427528200,3.571528076171875,-0.5765513491988181,-0.10980543265230953,0.167434176408872
1782663387437597200,3.58159716796875,-0.5605547386437654,-0.07655475882701575,0.16445654883757233
1782663387447667200,3.591667236328125,-0.4747825810730457,-0.0415348103068769,0.23125286084674299
1782663387457737200,3.6017373046875,-0.26092472633719443,-0.03151194039918482,0.2512915133342147
1782663387467807200,3.61180712890625,0.002579495099186897,-0.05440116001218557,0.25582038893550635
1782663387477877200,3.621877197265625,0.15172317786216735,-0.07212671325169503,0.1970604491919279
1782663387487947300,3.631947265625,0.28477906465530395,-0.07296535603292285,0.1346836341254413
1782663387498017300,3.642017333984375,0.41542905935049057,-0.09222622908093035,0.07040215448141098
1782663387508087000,3.652087158203125,0.4647516009241342,-0.12295279125608503,0.03432867832034826
1782663387518156300,3.66215625,0.4025590563833713,-0.15050393826551733,0.04525346550382674
1782663387528226000,3.67222607421875,0.3088473379850387,-0.1313627460744232,0.013834025693684816
1782663387538296300,3.68229638671875,0.17358605010211467,-0.09729388773404062,-0.007157616669684648
1782663387548366300,3.692366455078125,-0.0445943440079689,-0.04883132399059832,-0.02321501750126481
1782663387558436000,3.70243603515625,-0.21620763273239135,-0.054817924119532103,-0.004251227703690528
1782663387568506400,3.71250634765625,-0.29231121372580526,-0.05492533001676202,-0.010036533106863497
1782663387578576400,3.722576416015625,-0.33636253689825535,-0.03786832368858158,-0.006125789403915405
1782663387588646100,3.732646240234375,-0.2631622761309147,0.004022460449114441,0.02740771995075047
1782663387598716200,3.742716064453125,-0.1204068331003189,-0.015003215603530407,0.07123517123945057
1782663387608785200,3.75278515625,0.0639396804690361,-0.03094093557819724,0.12853387932404875
1782663387618855200,3.762855224609375,0.21675883687436578,-0.049481823788583276,0.16816570555381477
1782663387628925400,3.772925537109375,0.28901684835553165,-0.051324675176292654,0.19555216352082788
1782663387638995200,3.7829951171875,0.3239344324797392,-0.07042144370377064,0.1703742484487593
1782663387649065200,3.793065185546875,0.27836978213489055,-0.06045943713784217,0.20178689319193363
1782663387659135000,3.803135009765625,0.13491291283667087,-0.04538666342943907,0.17218933504670858
1782663387669205200,3.813205322265625,0.04831131870448589,-0.03825038180872798,0.1393503838274628
1782663387679275300,3.823275146484375,0.039589083066582674,-0.044529973534867165,0.10586012909263372
1782663387689345000,3.833344970703125,-0.0021101240217685697,-0.0805394445490092,0.10150880201533437
1782663387699414300,3.843414306640625,-0.06083703827857971,-0.0998996863182634,0.1160889699012041
1782663387709484000,3.853484130859375,-0.0955588075697422,-0.04110336008705198,0.08691811273545026
1782663387719554300,3.86355419921875,-0.17741992917656899,-0.04507810893692076,0.0803416569545865
1782663387729624300,3.873624267578125,-0.1712146447956562,-0.056791562280058855,0.07175824526548386
1782663387739694000,3.883694091796875,-0.2058130799680948,-0.08036701059155166,0.05987681494429707
1782663387749764000,3.89376416015625,-0.24685177732110022,-0.06469736696854234,0.020784721614420413
1782663387759834400,3.90383447265625,-0.30432430760264395,-0.02721175898723304,-0.01266176704391837
1782663387769904000,3.913904052734375,-0.3020072628319263,0.006464665969461202,-0.06393705012053251
1782663387779973400,3.923973388671875,-0.24145547123551367,0.003006853665784001,-0.08353972234353423
1782663387790043100,3.934043212890625,-0.16690028872787951,0.001194981938228011,-0.08242620814368128
1782663387800113200,3.944113037109375,-0.15072189186513424,0.017509864662215113,-0.07492796134278178
1782663387810183200,3.95418310546875,-0.03391396003961563,-0.010464330064877868,-0.08032938199490308
1782663387820253200,3.964253173828125,0.05400689999759197,-0.0004578267700970173,-0.09580576806813478
1782663387830323200,3.9743232421875,0.16004618504941462,0.001118628766387701,-0.09929054144397377
1782663387840393200,3.984393310546875,0.22336919492483137,-0.03189684806354344,-0.12524155978038906
1782663387850463200,3.994463134765625,0.22777181379795072,-0.057461570496112106,-0.13398118494451045
1782663387860532200,4.0045322265625,0.22915245450139043,-0.057695963773876424,-0.08970219049602747
1782663387870602200,4.014602294921875,0.27209201703965663,-0.07802388153150677,-0.04112593724504113
1782663387880672300,4.02467236328125,0.2773784330099821,-0.07292677758820354,-0.003665975161641836
1782663387890742300,4.0347421875,0.2964922988027334,-0.073104033851251,-0.005274287141114473
1782663387900812000,4.04481201171875,0.3169038031905889,-0.08751184084489941,0.012422259199619293
1782663387910882300,4.05488232421875,0.20981179421544074,-0.08363032323643564,0.11539075850397348
1782663387920952300,4.064952392578125,-0.03000526216328144,-0.04904262865372002,0.1634768901504576
1782663387931022000,4.07502197265625,-0.1442968272536993,-0.05266564145646989,0.11633549200817941
1782663387941092400,4.08509228515625,-0.20907997280955312,-0.1003081209886819,0.08289426404684781
1782663387951161000,4.0951611328125,-0.26114158395826814,-0.10739084579125047,0.07142696748450399
1782663387961231000,4.105231201171875,-0.2032172182559967,-0.08801518725715578,0.07890402536690234
1782663387971301400,4.11530126953125,-0.09574000935554504,-0.07215177462771534,0.08561638248711824
1782663387981371100,4.12537109375,-0.0858557442009449,-0.07140972408875823,0.08167612042874098
1782663387991441200,4.135441162109375,-0.07011456971168517,-0.10651157873868941,0.033239567909389735
1782663388001511200,4.14551123046875,-0.04126023114919662,-0.10020122654810547,0.02351896888390183
1782663388011581200,4.155581298828125,-0.0324731135815382,-0.07463350844085216,0.04074234475493431
1782663388021651200,4.165651123046875,0.09395020332932472,-0.05788461821377277,0.06842778566852212
1782663388031720200,4.17572021484375,0.12564181114435194,-0.042305137092247605,0.09833397137150168
1782663388041790200,4.185790283203125,0.059468088012933726,-0.014070318667590617,0.09800298585146665
1782663388051860000,4.19585986328125,0.057955345362424845,-0.04002323670014739,0.054466188072413206
1782663388061930200,4.20593017578125,-0.0030979660153388974,-0.06678389091901481,0.037760990856587885
1782663388072000300,4.216000244140625,-0.06836100404262542,-0.07193652444183826,-0.00637479572892189
1782663388082070000,4.226070068359375,-0.03883154269754886,-0.06930719885155558,-0.018436989444494248
1782663388092140300,4.236140380859375,-0.058632806232571597,-0.06913008871898055,-0.00003565583527088165
1782663388102210300,4.246210205078125,-0.10602233391702175,-0.034445290437340736,0.03232289145588874
1782663388112279300,4.256279296875,-0.12705810768306255,-0.01589841087758541,0.03856047067120671
1782663388122349300,4.266349365234375,-0.06889058087468147,-0.03738295132443309,0.038730128149688244
1782663388132419000,4.276419189453125,-0.0007838438540697097,-0.06444828757829964,0.04803308628499508
1782663388142489000,4.286489013671875,-0.0034498481929302214,-0.08606989840827882,0.018776012140512464
1782663388152559400,4.296559326171875,-0.02446341012716293,-0.04603248705230653,-0.019925620567053555
1782663388162629000,4.306629150390625,0.009454057043790817,-0.06723696844875812,-0.011196516796946525
1782663388172699100,4.31669921875,0.061900283595919606,-0.055825639857351776,0.04159896158427
1782663388182769400,4.326769287109375,0.1278869597226381,-0.025481501128524542,0.08381064823940396
1782663388192838100,4.336838134765625,0.09906652342975139,-0.04728672489710152,0.07360416539311408
1782663388202908200,4.346908203125,0.05006371532976627,-0.014948124415427446,0.09963424031510948
1782663388212978200,4.356978271484375,0.04300970516502857,-0.030666137224808335,0.10351926505491137
1782663388223048200,4.367048095703125,0.038215456625819204,-0.05730842576101422,0.0927970877714455
1782663388233118200,4.3771181640625,0.026006547915935516,-0.05996493161916733,0.09313874081596732
1782663388243188200,4.387188232421875,0.0004091653227806091,-0.06741269034184515,0.07089592934772372
1782663388253258200,4.39725830078125,0.030205753171443937,-0.06543503359332681,0.09329436976909637
1782663388263328300,4.407328369140625,0.10531681599617004,-0.036426162056252355,0.15354907811507582
1782663388273397200,4.417397216796875,0.16311784757971762,-0.057402826046198605,0.1406358205281198
1782663388283467300,4.42746728515625,0.14746961207091808,-0.09977605993859469,0.0655504766665399
1782663388293537000,4.437537109375,0.022290742263197896,-0.07387078044004738,0.06952361808121205
1782663388303607300,4.447607177734375,-0.11346388209462165,-0.009319543943926692,0.053875967094302174
1782663388313677300,4.45767724609375,-0.1737766042381525,-0.023132307653874157,-0.0214529762648046
1782663388323747000,4.4677470703125,-0.07687164275646209,-0.07382065768800676,-0.07925532302260399
1782663388333817300,4.4778173828125,0.027553777357935905,-0.1259202627595514,-0.0841214677542448
1782663388343887000,4.48788720703125,0.13725041587352751,-0.15224457138776779,-0.04381006176248192
1782663388353956000,4.4979560546875,0.23628420607745645,-0.16012524163499472,-0.025774931117147206
1782663388364026400,4.5080263671875,0.295823605760932,-0.1673078466154635,-0.03049816024675965
1782663388374096100,4.51809619140625,0.25902269210815426,-0.16552995022274553,-0.06263692730739712
1782663388384166400,4.52816650390625,0.15644728377461434,-0.1588417046304792,-0.0013322715170681475
1782663388394236400,4.538236328125,-0.03417524132430553,-0.10566906349994241,0.08837678711116313
1782663388404306400,4.548306396484375,-0.18685235891044139,-0.05029087514914572,0.14500526778399944
1782663388414376400,4.55837646484375,-0.2180044530212879,-0.03610416356027126,0.12434680289775132
1782663388424445400,4.568445556640625,-0.21591829439699647,-0.07997589238211512,0.11012290110364556
1782663388434515500,4.578515380859375,-0.183867205619812,-0.10965396841764449,0.08319602347239852
1782663388444585200,4.588585205078125,-0.12240122178792953,-0.15578918519206345,0.03962020885720849
1782663388454655500,4.598655517578125,-0.0846183113604784,-0.17357041414156554,0.04509776348546147
1782663388464725500,4.6087255859375,-0.06074643738567829,-0.16067761482074855,0.07211451135724782
1782663388474795300,4.618795166015625,-0.02093523600101471,-0.1506461962804198,0.13410890297740696
1782663388484865500,4.628865478515625,-0.006357844594120979,-0.10323474902510642,0.16199074324592946
1782663388494935600,4.638935546875,-0.027990415209531782,-0.11635171249061822,0.11899594338908791
1782663388505004300,4.64900439453125,-0.09469546873867511,-0.1395268363729119,0.07055325338989496
1782663388515074600,4.659074462890625,-0.2569172442615032,-0.0976961118593812,0.027860943610966204
1782663388525144300,4.669144287109375,-0.35091830099523064,-0.03127528209909797,0.05484904991015792
1782663388535214300,4.67921435546875,-0.24222470204234123,-0.0475322971560061,0.09461538923978804
1782663388545284600,4.68928466796875,0.055390463310480115,-0.08082761384062469,0.08812281235009431
1782663388555354400,4.699354248046875,0.20435469785332677,-0.08623203016743064,0.06694777624383569
1782663388565424400,4.70942431640625,0.21587094812393187,-0.06882175342217087,0.059505059022456404
1782663388575494400,4.719494384765625,0.23463351626098156,-0.027900983360409734,0.03977861428931355
1782663388585563400,4.7295634765625,0.26903204494714733,-0.02644903098642826,0.06979059845432639
1782663388595633400,4.73963330078125,0.24072072722017765,-0.049896980460733174,0.08025485545396804
1782663388605703400,4.749703369140625,0.17749474797844886,-0.05964432136267423,0.04076557950004935
1782663388615773400,4.7597734375,0.10012100091874598,-0.05314151533991098,0.033997985061258076
1782663388625843500,4.769843505859375,0.0676999097853899,-0.036520050884783266,0.06104308224469423
1782663388635913500,4.77991357421875,0.02647650351524353,-0.041985842010006304,0.08283347377032041
1782663388645983500,4.7899833984375,-0.005192307946085929,-0.0383808032553643,0.07211363457441329
1782663388656052200,4.80005224609375,-0.02879179472029209,-0.037307548000663514,0.07941767397746444
1782663388666122500,4.81012255859375,-0.047610476958751674,-0.0568687922347337,0.06408990259468555
1782663388676192500,4.820192626953125,-0.04784545475840568,-0.08363120001927017,0.06709127636775374
1782663388686262300,4.83026220703125,-0.07172901917099953,-0.08963599339202045,0.034991087751835584
1782663388696332500,4.84033251953125,-0.0022445640563964844,-0.09992774336896836,0.023033669584989546
1782663388706402300,4.85040234375,0.006241524738073349,-0.10981412741541861,0.029897564005106687
1782663388716472300,4.860472412109375,-0.011938859596848487,-0.11771635190732777,0.03877338276952505
1782663388726542600,4.87054248046875,-0.038836218872666355,-0.1030421490624547,0.05101487857475877
1782663388736611300,4.880611328125,-0.09471475796103476,-0.08995777269229292,0.03994491076692939
1782663388746681300,4.890681396484375,-0.06979308267235755,-0.11081745923906564,0.020358605156838894
1782663388756751600,4.900751708984375,0.025989012259244916,-0.1242899581439793,0.05933065230362117
1782663388766821400,4.9108212890625,0.07899170365035534,-0.13306567753478885,0.09416355381906032
1782663388776891400,4.920891357421875,0.053988195297121996,-0.11543320940621196,0.10260682638511061
1782663388786961400,4.93096142578125,-0.05592179370820522,-0.08412449996154756,0.09661240827590227
1782663388797031400,4.941031494140625,-0.10310907681882381,-0.09779266756903379,0.06883782777413726
1782663388807100400,4.951100341796875,-0.11436521484851836,-0.13661120465453713,0.04847250061556697
1782663388817170400,4.96117041015625,-0.16100596999228,-0.12000533962734043,0.03290083747431636
1782663388827240400,4.971240478515625,-0.17626199131309986,-0.11885229713469743,0.022363807499408722
1782663388837310200,4.981310302734375,-0.08502806120514869,-0.11164864936619996,0.04451747937947512
1782663388847380500,4.99138037109375,0.03612228373885155,-0.10517565395981072,0.09508841357901691
1782663388857450500,5.001450439453125,0.08943301816582679,-0.10891527887955307,0.09979089218154549
1782663388867520300,5.011520263671875,0.11008008487522601,-0.07556194839738309,0.1039347139880061
1782663388877590500,5.021590576171875,0.07449848388433455,-0.04185556669384241,0.11810089424550532
1782663388887659300,5.0316591796875,0.03832183960974216,-0.05858071071915328,0.09377470063194632
1782663388897729300,5.041729248046875,0.03117372142076492,-0.06758190942890942,0.0656963148780167
1782663388907799600,5.051799560546875,0.014925181931257248,-0.06300349559746682,0.03094195849150419
1782663388917869300,5.061869384765625,0.10397358469367027,-0.06889467252790928,0.01590001831278205
1782663388927939300,5.071939208984375,0.1489712488055229,-0.06816591986194252,0.037535511537641286
1782663388938009600,5.082009521484375,0.15733108087182043,-0.07504778833016752,0.07200403672009706
1782663388948079400,5.092079345703125,0.11931027003526687,-0.04136727172024548,0.10042597521468996
1782663388958148400,5.1021484375,0.0875374136775732,-0.04998575472272932,0.08779854883179068
1782663388968218400,5.11221826171875,0.04366378515958786,-0.07955525581724941,0.0512136160172522
1782663388978288400,5.122288330078125,-0.016967501413822174,-0.08546199564300477,0.014371639701724052
1782663388988358400,5.1323583984375,-0.06666705960631371,-0.09656392949167639,0.007215922728180885
1782663388998428400,5.142428466796875,-0.07811901246905327,-0.07668287871871143,0.05027648129761219
1782663389008498400,5.15249853515625,-0.08108955271244049,-0.06929302419573068,0.06269844823628663
1782663389018568400,5.162568359375,-0.07755904049873352,-0.06446662695258855,0.061642071051150556
1782663389028637400,5.172637451171875,-0.06392623646557331,-0.091687190300785,0.0175502697378397
1782663389038707500,5.18270751953125,-0.06142798990905284,-0.11629092221409082,0.028303280550986527
1782663389048777200,5.192777099609375,-0.05583528446853161,-0.13335797501225025,-0.005863339075446129
1782663389058847500,5.202847412109375,-0.04473521378338337,-0.11742993618138134,-0.020595774913579223
1782663389068917500,5.21291748046875,-0.06317804844677448,-0.11468995329085736,-0.00437032403871417
1782663389078987300,5.2229873046875,-0.06672492727339267,-0.098659513531439,0.03267652719914913
1782663389089057500,5.2330576171875,-0.044885435909032816,-0.07767967120371759,0.03868658126890659
1782663389099126300,5.243126220703125,-0.018410101437568663,-0.08848470446504653,0.0644148967653513
1782663389109196500,5.253196533203125,0.01959668087363243,-0.11838431429676712,0.037352410055696963
1782663389119266600,5.2632666015625,0.024333061745762823,-0.13439422272481025,0.00812003196105361
1782663389129336300,5.27333642578125,0.0543453381717205,-0.16514043944850562,0.014153320775926112
1782663389139406300,5.28340625,0.11433657327592373,-0.1706936165962368,0.02289192302674055
1782663389149476600,5.2934765625,0.13803250616192816,-0.1347173171993345,0.07625891768559813
1782663389159546400,5.30354638671875,0.1381844818532467,-0.13856222912445665,0.10634688969627022
1782663389169615600,5.31361572265625,0.10905775609016417,-0.1315444593168795,0.09932605114877223
1782663389179685400,5.323685302734375,0.09390402610003948,-0.14267090655229986,0.11087006620913743
1782663389189755400,5.33375537109375,0.05904372512102127,-0.13712678949385881,0.0718126058012247
1782663389199825400,5.343825439453125,-0.033707039290666575,-0.11515512311719357,0.10250497344583272
1782663389209895400,5.3538955078125,-0.10265490331053734,-0.1178529473664239,0.02913096354678273
1782663389219965400,5.36396533203125,-0.11252280185222625,-0.12887187910676,0.010867284842580557
1782663389230035200,5.37403515625,-0.05273205775618553,-0.12289872298128902,0.052215194275230165
1782663389240104400,5.3841044921875,0.003930325186252593,-0.09642210986819118,0.07440598329529166
1782663389250174500,5.394174560546875,-0.07549743179380894,-0.0850375962184742,0.06244082021340727
1782663389260244500,5.404244384765625,-0.2103752733170986,-0.087087149159424,-0.013415800281614064
1782663389270314500,5.414314453125,-0.2021452051103115,-0.10954831608608365,-0.042794747240096326
1782663389280384300,5.42438427734375,-0.09083294809162616,-0.11171729415562003,-0.019034078554809094
1782663389290454300,5.434454345703125,0.014328969603776932,-0.09933006973676382,0.035085341906547544
1782663389300524500,5.444524658203125,0.10195698417425154,-0.08085114084668457,0.09254004427045583
1782663389310593300,5.45459326171875,0.14212357486784458,-0.06757895028684288,0.0984637352310121
1782663389320663600,5.46466357421875,0.14830314028561115,-0.04888780341818928,0.12904109819382428
1782663389330733300,5.4747333984375,0.15593699616491793,-0.05632818255200982,0.1303778997555375
1782663389340803300,5.48480322265625,0.09311901320219039,-0.03445628675539046,0.060347355065494775
1782663389350873300,5.494873291015625,0.009123802176117897,-0.050668403224647045,0.01498670286014676
1782663389360943400,5.504943359375,0.052802784904837606,-0.06493117572441696,-0.005299713843315839
1782663389371013400,5.515013427734375,0.14396189621090888,-0.06338485959786921,0.04844181321635842
1782663389381081900,5.525081787109375,0.13834580989480016,-0.06202774590048939,0.08623407599404453
1782663389391151600,5.535151611328125,0.060658174580335615,-0.08327394754681736,0.11290610208138822
1782663389401221600,5.5452216796875,-0.06896364611089228,-0.09341131067965179,0.0928226606041193
1782663389411291600,5.555291748046875,-0.19779168607592582,-0.07050400742068887,0.07973989166915416
1782663389421361700,5.565361572265625,-0.23000059576332568,-0.049377450098656114,0.07417129775658249
1782663389431431700,5.575431640625,-0.13133388530611992,-0.07073138643577695,0.040998949864506716
1782663389441501700,5.585501708984375,-0.03631634500622749,-0.1264575845066458,-0.0308772226922214
1782663389451570700,5.59557080078125,-0.0220423204600811,-0.1748669932907447,-0.061709144937992094
1782663389461640700,5.605640625,-0.10169862549901008,-0.12982717053759843,-0.04582373967245221
1782663389471710700,5.615710693359375,-0.1964595606893301,-0.07032989296279847,0.012331219915300607
1782663389481780700,5.62578076171875,-0.25661153931319713,-0.08289525042753666,0.014038316094130277
1782663389491850500,5.6358505859375,-0.30828911958038807,-0.07836454819533974,-0.041096126628667115
1782663389501920800,5.645920654296875,-0.23501170192360876,-0.04197966799754649,0.018881664472073314
1782663389511991800,5.65599169921875,-0.12664075905382632,-0.0007747106995433569,0.06549070930331945
1782663389522061800,5.666061767578125,-0.22785481590628623,-0.056785278669744726,-0.1599495928071439
1782663389532131600,5.676131591796875,0.47679392089545725,-0.1234467853181064,-0.04686579607129097
1782663389542201900,5.686201904296875,0.532546787777543,-0.09261537452898919,0.140245652166754
1782663389552270600,5.6962705078125,0.2533276953369379,-0.1545514600906521,0.04513414997309446
1782663389562340900,5.7063408203125,0.15221885242462158,-0.13264197223000226,-0.07107800791636108
1782663389572411000,5.716410888671875,0.03879822494983673,-0.10207491146549581,-0.09888605229631066
1782663389582480600,5.726480712890625,-0.05013444247841835,-0.08131729705370962,-0.015847119081765414
1782663389592550700,5.736550537109375,-0.12020283496081828,-0.05078026610128581,0.07340002112314105
1782663389602620700,5.74662060546875,-0.046187166157364845,-0.07820530251301824,0.1312318862363696
1782663389612690700,5.756690673828125,0.12733517105877398,-0.1177268002361059,0.16572320777252317
1782663389622760000,5.766760009765625,0.3478606669902801,-0.1413196380738169,0.1788135754920542
1782663389632829700,5.77682958984375,0.509918776383996,-0.1689928770929575,0.11343611730486154
1782663389642899700,5.786899658203125,0.49117783555686473,-0.16299714380949734,0.04530103097259998
