time,seconds_elapsed,z,y,x
1782663383892990000,0.036989990234375,0.01375166978687048,0.12215099483728409,0.2715572714805603
1782663383903060000,0.04706005859375,0.029419301077723503,0.07800589501857758,0.2389906942844391
1782663383913129700,0.057129638671875,0.042430974543094635,0.053100813180208206,0.2016712874174118
1782663383923200000,0.067199951171875,0.04135340824723244,0.04454706236720085,0.17779985070228577
1782663383933270000,0.07727001953125,0.030392104759812355,0.05002545192837715,0.16462545096874237
1782663383943339800,0.08733984375,0.024456070736050606,0.0621836818754673,0.1600019633769989
1782663383953409800,0.097409912109375,0.010210555978119373,0.08242211490869522,0.15647834539413452
1782663383963480000,0.10747998046875,0.002683080732822418,0.09782055765390396,0.15183386206626892
1782663383973549800,0.1175498046875,-0.013384036719799042,0.11763474345207214,0.15111348032951355
1782663383983619800,0.127619873046875,-0.02153780683875084,0.14374910295009613,0.1609434187412262
1782663383993690000,0.137690185546875,-0.03039494715631008,0.1867535561323166,0.17050576210021973
1782663384003759900,0.147759765625,-0.041147131472826004,0.21619422733783722,0.1822442263364792
1782663384013830000,0.157829833984375,-0.04473920166492462,0.23742574453353882,0.17884203791618347
1782663384023899000,0.16789892578125,-0.05813077464699745,0.24425266683101654,0.15152089297771454
1782663384033969000,0.177968994140625,-0.06974268704652786,0.22779938578605652,0.11944497376680374
1782663384044039000,0.188038818359375,-0.06750144809484482,0.2344466894865036,0.10972772538661957
1782663384054109000,0.19810888671875,-0.07009323686361313,0.24600987136363983,0.11024544388055801
1782663384064179000,0.208178955078125,-0.07476746290922165,0.2544551193714142,0.11699365824460983
1782663384074249000,0.2182490234375,-0.08117716014385223,0.2643016278743744,0.1262446790933609
1782663384084319000,0.228319091796875,-0.09168875962495804,0.25801560282707214,0.11978454142808914
1782663384094389000,0.238388916015625,-0.10888665169477463,0.2373630702495575,0.10027556121349335
1782663384104458800,0.248458740234375,-0.11972802132368088,0.21588055789470673,0.07502052187919617
1782663384114528800,0.25852880859375,-0.1295284479856491,0.1970117837190628,0.06137847900390625
1782663384124599000,0.26859912109375,-0.13052137196063995,0.18533502519130707,0.05335412174463272
1782663384134667800,0.278667724609375,-0.1253281980752945,0.17987793684005737,0.04287698119878769
1782663384144738000,0.288738037109375,-0.12464293837547302,0.19068710505962372,0.028157221153378487
1782663384154807800,0.298807861328125,-0.12069134414196014,0.17320744693279266,-0.0011423446703702211
1782663384164877800,0.3088779296875,-0.10966449975967407,0.14830291271209717,-0.03848574310541153
1782663384174948000,0.318947998046875,-0.0937206819653511,0.11049986630678177,-0.06924737989902496
1782663384185017900,0.329017822265625,-0.07425498217344284,0.08218557387590408,-0.08048848807811737
1782663384195088000,0.339087890625,-0.05305915325880051,0.07264266908168793,-0.06577320396900177
1782663384205158000,0.349157958984375,-0.03677428141236305,0.07196785509586334,-0.04017823934555054
1782663384215228000,0.359227783203125,-0.01781017892062664,0.06747324019670486,-0.008836294524371624
1782663384225298000,0.3692978515625,0.00034838978899642825,0.07234092801809311,0.027417751029133797
1782663384235368000,0.379367919921875,0.02335464023053646,0.06318950653076172,0.048828497529029846
1782663384245437000,0.38943701171875,0.04400857910513878,0.031994786113500595,0.05872165784239769
1782663384255507000,0.3995068359375,0.06559216976165771,0.011660218238830566,0.06705176085233688
1782663384265577000,0.409576904296875,0.079742431640625,0.00751835759729147,0.08009377866983414
1782663384275647000,0.41964697265625,0.09117192029953003,0.01455762516707182,0.09314938634634018
1782663384285717000,0.429717041015625,0.10008510202169418,0.013761769980192184,0.10722310096025467
1782663384295786800,0.439786865234375,0.10689932852983475,0.01439720019698143,0.1100202202796936
1782663384305857000,0.44985693359375,0.11201735585927963,0.007156921084970236,0.10738549381494522
1782663384315927000,0.459927001953125,0.11346931010484695,-0.0003984668292105198,0.09872356057167053
1782663384325996800,0.469996826171875,0.10910464823246002,-0.005640103947371244,0.0919741839170456
1782663384336067000,0.480067138671875,0.1029181256890297,-0.005530115682631731,0.08224139362573624
1782663384346136800,0.49013671875,0.09416936337947845,-0.003077882109209895,0.07210768014192581
1782663384356206800,0.500206787109375,0.09617951512336731,0.0054421029053628445,0.06661810725927353
1782663384366276000,0.510276123046875,0.0945439413189888,0.017813188955187798,0.060613423585891724
1782663384376346400,0.520346435546875,0.09177238494157791,0.02017994038760662,0.05589723214507103
1782663384386416000,0.530416015625,0.09006861597299576,0.019905459135770798,0.037878744304180145
1782663384396486400,0.540486328125,0.08645790070295334,0.020299073308706284,0.018155908212065697
1782663384406556400,0.550556396484375,0.08887401968240738,0.014452865347266197,-0.008811377920210361
1782663384416626200,0.560626220703125,0.0925063043832779,0.0020502579864114523,-0.032559584826231
1782663384426696200,0.5706962890625,0.09509537369012833,-0.01317258458584547,-0.05033557489514351
1782663384436766500,0.580766357421875,0.10161479562520981,-0.02258552610874176,-0.05559611693024635
1782663384446836200,0.590836181640625,0.10726914554834366,-0.02601030096411705,-0.054756324738264084
1782663384456906200,0.60090625,0.1129659116268158,-0.025090713053941727,-0.05546019971370697
1782663384466976500,0.6109765625,0.11503314971923828,-0.022964293137192726,-0.05766983702778816
1782663384477046300,0.62104638671875,0.11358945071697235,-0.008287345990538597,-0.055403485894203186
1782663384487115300,0.631115234375,0.11292124539613724,0.005812026094645262,-0.05033024773001671
1782663384497185300,0.641185302734375,0.10692939907312393,0.02079976350069046,-0.04114074259996414
1782663384507255300,0.65125537109375,0.10609287768602371,0.0382932648062706,-0.028601497411727905
1782663384517325300,0.6613251953125,0.10606039315462112,0.054204054176807404,-0.015527240931987762
1782663384527395300,0.671395263671875,0.10659735649824142,0.06413067132234573,-0.004611039999872446
1782663384537465300,0.68146533203125,0.10805623233318329,0.06860344856977463,0.0027763021644204855
1782663384547535000,0.69153515625,0.11393967270851135,0.07150044292211533,0.004587926901876926
1782663384557605400,0.70160546875,0.1199919730424881,0.08277732878923416,0.0033221261110156775
1782663384567675400,0.71167529296875,0.12871021032333374,0.09978629648685455,0.012018646113574505
1782663384577745200,0.7217451171875,0.14019642770290375,0.11355191469192505,0.02628839574754238
1782663384587815200,0.731815185546875,0.15644411742687225,0.14600306749343872,0.05282159522175789
1782663384597885400,0.741885498046875,0.17545881867408752,0.19546356797218323,0.09759705513715744
1782663384607954200,0.7519541015625,0.18953421711921692,0.24167947471141815,0.14450056850910187
1782663384618024400,0.7620244140625,0.19241522252559662,0.2592483460903168,0.15975676476955414
1782663384628094200,0.77209423828125,0.20114925503730774,0.24497996270656586,0.1623426377773285
1782663384638164200,0.782164306640625,0.21358302235603333,0.20929467678070068,0.1452382206916809
1782663384648234200,0.792234130859375,0.23015251755714417,0.1597384810447693,0.12180411070585251
1782663384658304300,0.80230419921875,0.24252769351005554,0.12981972098350525,0.10573646426200867
1782663384668374300,0.812374267578125,0.2586688697338104,0.11512972414493561,0.09988640248775482
1782663384678444300,0.8224443359375,0.259744256734848,0.10259981453418732,0.0833207443356514
1782663384688514300,0.832514404296875,0.2589232623577118,0.09293436259031296,0.0597333125770092
1782663384698584300,0.842584228515625,0.25085148215293884,0.08600108325481415,0.03373846411705017
1782663384708654300,0.852654296875,0.2421892136335373,0.05740305036306381,0.007644106633961201
1782663384718724400,0.862724365234375,0.22783291339874268,0.02796420082449913,-0.010731172747910023
1782663384728793300,0.87279345703125,0.21505378186702728,0.018647342920303345,-0.02316940389573574
1782663384738863000,0.882863037109375,0.19335700571537018,0.016945581883192062,-0.023796310648322105
1782663384748933400,0.892933349609375,0.17078591883182526,0.0020811487920582294,-0.012277339585125446
1782663384759003400,0.90300341796875,0.14594635367393494,-0.0010880129411816597,0.008858039043843746
1782663384769073200,0.9130732421875,0.11299186944961548,0.0007314605172723532,0.04326487332582474
1782663384779143400,0.923143310546875,0.07953164726495743,0.0020571821369230747,0.06875291466712952
1782663384789213200,0.933213134765625,0.05087811499834061,-0.0023668077774345875,0.07431714236736298
1782663384799283200,0.943283203125,0.02615918405354023,-0.022840391844511032,0.06614656746387482
1782663384809353500,0.953353515625,0.002353268675506115,-0.043675746768713,0.047805238515138626
1782663384819423200,0.96342333984375,-0.010672518983483315,-0.04934721440076828,0.0368383415043354
1782663384829493200,0.9734931640625,-0.028715185821056366,-0.05775395408272743,0.02607136406004429
1782663384839563300,0.983563232421875,-0.04242434352636337,-0.06323766708374023,0.01759212464094162
1782663384849632300,0.99363232421875,-0.048712752759456635,-0.06400776654481888,0.00705619715154171
1782663384859702300,1.003702392578125,-0.052687253803014755,-0.07152054458856583,-0.01635591872036457
1782663384869772300,1.013772216796875,-0.04993057623505592,-0.07910653948783875,-0.036752842366695404
1782663384879842300,1.02384228515625,-0.047287654131650925,-0.08452766388654709,-0.05205430090427399
1782663384889912300,1.033912353515625,-0.04527396336197853,-0.074038065969944,-0.04651208966970444
1782663384899982300,1.043982421875,-0.048486001789569855,-0.056681983172893524,-0.02782095968723297
1782663384910052400,1.05405224609375,-0.05408964306116104,-0.030075348913669586,0.003656242974102497
1782663384920122400,1.064122314453125,-0.05987429618835449,-0.009421202354133129,0.030560826882719994
1782663384930192100,1.074192138671875,-0.06455013155937195,-0.00025077303871512413,0.05354674533009529
1782663384940262400,1.084262451171875,-0.06649983674287796,0.017845939844846725,0.07025674730539322
1782663384950332400,1.09433251953125,-0.07115726172924042,0.03374965116381645,0.08486446738243103
1782663384960402200,1.104402099609375,-0.07662206888198853,0.03901898115873337,0.09007121622562408
1782663384970471400,1.114471435546875,-0.07748163491487503,0.043133191764354706,0.09235925227403641
1782663384980541200,1.124541259765625,-0.07450555264949799,0.04477636143565178,0.09218401461839676
1782663384990611200,1.134611083984375,-0.06728360801935196,0.046057332307100296,0.08705531060695648
1782663385000681500,1.144681396484375,-0.056977711617946625,0.04699849337339401,0.07919659465551376
1782663385010751200,1.154751220703125,-0.0478859543800354,0.046217985451221466,0.08716907352209091
1782663385020821200,1.1648212890625,-0.03746713325381279,0.04447707533836365,0.09704060852527618
1782663385030891300,1.174891357421875,-0.021127086132764816,0.04472367465496063,0.12600040435791016
1782663385040961300,1.184961181640625,0.0008916643564589322,0.058820851147174835,0.18983343243598938
1782663385051031300,1.19503125,0.012556670233607292,0.08454454690217972,0.26979660987854004
1782663385061101300,1.205101318359375,0.01796421967446804,0.11856164038181305,0.35470137000083923
1782663385071171300,1.21517138671875,0.018468191847205162,0.15747538208961487,0.43217068910598755
1782663385081241300,1.225241455078125,0.01978832110762596,0.19232790172100067,0.5017518997192383
1782663385091310300,1.235310302734375,0.013971308246254921,0.21336618065834045,0.5423116683959961
1782663385101380400,1.24538037109375,0.012382999062538147,0.21422238647937775,0.558822751045227
1782663385111450000,1.2554501953125,0.02209542877972126,0.1987181454896927,0.5460990071296692
1782663385121520400,1.265520263671875,0.033267389982938766,0.16458788514137268,0.5112515091896057
1782663385131590400,1.27559033203125,0.03611849620938301,0.13555440306663513,0.4639142155647278
1782663385141660200,1.28566015625,0.02913488820195198,0.12668395042419434,0.4204314351081848
1782663385151730200,1.295730224609375,0.023992354050278664,0.10896561294794083,0.3803026080131531
1782663385161800400,1.305800537109375,0.01401082519441843,0.10152900218963623,0.34030619263648987
1782663385171870200,1.3158701171875,0.004427093546837568,0.09742173552513123,0.2991703450679779
1782663385181940200,1.325940185546875,-0.004915541969239712,0.11461617052555084,0.2666446268558502
1782663385192010500,1.336010498046875,-0.019344989210367203,0.12300048023462296,0.24458883702754974
1782663385202080300,1.346080322265625,-0.036321043968200684,0.11745311319828033,0.22036844491958618
1782663385212149500,1.3561494140625,-0.04919315502047539,0.09607087075710297,0.18849800527095795
1782663385222219300,1.36621923828125,-0.05420682206749916,0.08500143885612488,0.1576942801475525
1782663385232289300,1.376289306640625,-0.06213489919900894,0.07079704105854034,0.1262999027967453
1782663385242359300,1.386359375,-0.07020027935504913,0.048851530998945236,0.09903925657272339
1782663385252429300,1.39642919921875,-0.07779403030872345,0.032653115689754486,0.07532820850610733
1782663385262499300,1.406499267578125,-0.08153577148914337,0.012286856770515442,0.043888527899980545
1782663385272569000,1.416569091796875,-0.08049850910902023,-0.017510928213596344,0.006547480821609497
1782663385282639400,1.426639404296875,-0.07728567719459534,-0.04681156203150749,-0.035952311009168625
1782663385292709400,1.43670947265625,-0.07081885635852814,-0.07166515290737152,-0.07331480830907822
1782663385302779100,1.446779052734375,-0.06547202914953232,-0.09296724200248718,-0.10699580609798431
1782663385312849400,1.456849365234375,-0.06425400823354721,-0.10509277880191803,-0.12393241375684738
1782663385322918100,1.466918212890625,-0.07263097912073135,-0.11307373642921448,-0.13922642171382904
1782663385332988200,1.47698828125,-0.07696426659822464,-0.12468720972537994,-0.1514236032962799
1782663385343058400,1.487058349609375,-0.08307036012411118,-0.12578842043876648,-0.1644994616508484
1782663385353128200,1.497128173828125,-0.079584039747715,-0.12590952217578888,-0.1562982052564621
1782663385363198200,1.5071982421875,-0.07722315192222595,-0.10730920732021332,-0.13231484591960907
1782663385373268500,1.5172685546875,-0.07899355888366699,-0.08806844800710678,-0.09452081471681595
1782663385383338000,1.527337890625,-0.08097841590642929,-0.06856558471918106,-0.05541815236210823
1782663385393408000,1.537407958984375,-0.08318605273962021,-0.05812191963195801,-0.032440733164548874
1782663385403478000,1.54747802734375,-0.0830819234251976,-0.047152094542980194,-0.01587747037410736
1782663385413548000,1.557548095703125,-0.0782613679766655,-0.04641938954591751,-0.011983073316514492
1782663385423618000,1.5676181640625,-0.06691896170377731,-0.050360068678855896,-0.013561529107391834
1782663385433687800,1.577687744140625,-0.05961274355649948,-0.05466757342219353,-0.019083216786384583
1782663385443757000,1.587757080078125,-0.05586327984929085,-0.049845386296510696,-0.02046220190823078
1782663385453826800,1.597826904296875,-0.06127571314573288,-0.043175388127565384,-0.022075263783335686
1782663385463897000,1.60789697265625,-0.07047879695892334,-0.03575235977768898,-0.029611477628350258
1782663385473967000,1.617967041015625,-0.07529871165752411,-0.028852807357907295,-0.029048576951026917
1782663385484036900,1.628036865234375,-0.08050678670406342,-0.027215231209993362,-0.04009323939681053
1782663385494107000,1.63810693359375,-0.08064489811658859,-0.025513047352433205,-0.05344914644956589
1782663385504177000,1.648177001953125,-0.07685256004333496,-0.018188556656241417,-0.05438178777694702
1782663385514247000,1.658246826171875,-0.07781185209751129,-0.010092032141983509,-0.06141676753759384
1782663385524317000,1.66831689453125,-0.07752076536417007,-0.007519685663282871,-0.06398698687553406
1782663385534387000,1.678386962890625,-0.07897940278053284,0.0007050354033708572,-0.059862103313207626
1782663385544457000,1.68845703125,-0.08085799962282181,0.009533148258924484,-0.05049869418144226
1782663385554526000,1.69852587890625,-0.07754737883806229,0.00799910631030798,-0.04172484576702118
1782663385564596000,1.708595947265625,-0.06951715052127838,-0.011646500788629055,-0.04589136317372322
1782663385574666000,1.718666015625,-0.06399840116500854,-0.02928079478442669,-0.05280501767992973
1782663385584735700,1.72873583984375,-0.060529373586177826,-0.03357194736599922,-0.04815753549337387
1782663385594806000,1.738805908203125,-0.06531932204961777,-0.019607651978731155,-0.040780190378427505
1782663385604876000,1.7488759765625,-0.07604414224624634,-0.006515286862850189,-0.0362381674349308
1782663385614945800,1.75894580078125,-0.08176307380199432,0.00354724726639688,-0.04079142212867737
1782663385625016000,1.76901611328125,-0.08331622928380966,0.004919041879475117,-0.05278550088405609
1782663385635086000,1.779086181640625,-0.0848475992679596,0.0047840639017522335,-0.06777354329824448
1782663385645155800,1.78915576171875,-0.08307740092277527,0.0012644301168620586,-0.08981599658727646
1782663385655226000,1.79922607421875,-0.07383473962545395,0.0027921306900680065,-0.1039670780301094
1782663385665294800,1.809294921875,-0.07003094255924225,0.009601300582289696,-0.12051356583833694
1782663385675364900,1.81936474609375,-0.06231178343296051,0.007390598766505718,-0.1392596811056137
1782663385685435100,1.82943505859375,-0.0538083091378212,0.013204279355704784,-0.15126600861549377
1782663385695505000,1.8395048828125,-0.049173977226018906,0.021089211106300354,-0.14427106082439423
1782663385705575000,1.849574951171875,-0.04926079884171486,0.029937298968434334,-0.13684536516666412
1782663385715645200,1.859645263671875,-0.053643807768821716,0.033773601055145264,-0.12402333319187164
1782663385725715000,1.86971484375,-0.05896240845322609,0.030777279287576675,-0.11982353031635284
1782663385735785000,1.879784912109375,-0.060243748128414154,0.02153276465833187,-0.11945413798093796
1782663385745855000,1.88985498046875,-0.0598091222345829,0.011534192599356174,-0.11627432703971863
1782663385755925000,1.899925048828125,-0.05738503485918045,0.014485904015600681,-0.10952692478895187
1782663385765995000,1.9099951171875,-0.05559006705880165,0.015313614159822464,-0.0977000966668129
1782663385776064000,1.92006396484375,-0.053447168320417404,0.023469721898436546,-0.08299829065799713
1782663385786134000,1.930134033203125,-0.051593340933322906,0.02036207914352417,-0.06358704715967178
1782663385796203800,1.940203857421875,-0.05195063352584839,0.012042786926031113,-0.04366755485534668
1782663385806274000,1.950274169921875,-0.0506342314183712,0.011402563191950321,-0.02020244486629963
1782663385816344000,1.960343994140625,-0.053008534014225006,0.014057852327823639,0.009615116752684116
1782663385826413800,1.970413818359375,-0.056248005479574203,0.01023914571851492,0.02766469120979309
1782663385836483800,1.98048388671875,-0.05501961708068848,0.0024409592151641846,0.03711896762251854
1782663385846554000,1.99055419921875,-0.05563720315694809,-0.011576855555176735,0.03994804620742798
1782663385856623900,2.000623779296875,-0.05314437672495842,-0.02183598279953003,0.03369757533073425
1782663385866694000,2.01069384765625,-0.04788623005151749,-0.025833921507000923,0.03356707841157913
1782663385876763000,2.020762939453125,-0.04639149829745293,-0.023835375905036926,0.02816287986934185
1782663385886833000,2.0308330078125,-0.04262552037835121,-0.022263843566179276,0.019238892942667007
1782663385896903000,2.04090283203125,-0.03983043506741524,-0.020014381036162376,0.0014349742559716105
1782663385906973000,2.050972900390625,-0.04008263349533081,-0.007798461709171534,-0.02409222349524498
1782663385917043000,2.06104296875,-0.031952474266290665,-0.012537602335214615,-0.04282565414905548
1782663385927113000,2.071113037109375,-0.018727749586105347,-0.018633577972650528,-0.05893990769982338
1782663385937183000,2.081182861328125,-0.012433952651917934,0.0001164623536169529,-0.06958208978176117
1782663385947253000,2.0912529296875,0.0024784174747765064,0.020927734673023224,-0.07433902472257614
1782663385957323000,2.101322998046875,0.027999060228466988,0.01954304799437523,-0.0900675430893898
1782663385967393000,2.11139306640625,0.046693120151758194,0.018422123044729233,-0.09544766694307327
1782663385977462000,2.1214619140625,0.05955958738923073,0.016940385103225708,-0.10291548073291779
1782663385987531800,2.13153173828125,0.06561828404664993,0.014927300624549389,-0.11015981435775757
1782663385997602000,2.14160205078125,0.07426289469003677,0.007107448764145374,-0.12067142874002457
1782663386007672000,2.151672119140625,0.08451606333255768,0.0023086988367140293,-0.13009636104106903
1782663386017741800,2.161741943359375,0.08937925845384598,0.0013233294012024999,-0.13556382060050964
1782663386027812000,2.17181201171875,0.09586778283119202,-0.000380827346816659,-0.14392535388469696
1782663386037881900,2.1818818359375,0.09519582986831665,-0.022640524432063103,-0.14550919830799103
1782663386047952000,2.191951904296875,0.09980602562427521,-0.03628762811422348,-0.12892623245716095
1782663386058022100,2.202022216796875,0.09627370536327362,-0.029484160244464874,-0.09489278495311737
1782663386068092000,2.212091796875,0.09266619384288788,-0.023696312680840492,-0.05003343150019646
1782663386078162000,2.222161865234375,0.08954852819442749,-0.020529408007860184,-0.007809821516275406
1782663386088231000,2.23223095703125,0.08512448519468307,-0.015293632633984089,0.021860988810658455
1782663386098301000,2.242301025390625,0.07534757256507874,-0.016874495893716812,0.03655858337879181
1782663386108371000,2.252370849609375,0.06367893517017365,-0.02475532330572605,0.04775744304060936
1782663386118441000,2.26244091796875,0.04689285531640053,-0.02930997870862484,0.056784480810165405
1782663386128511000,2.272510986328125,0.02296861633658409,-0.026135224848985672,0.07135463505983353
1782663386138581000,2.2825810546875,-0.01090018730610609,-0.014672392047941685,0.07731033861637115
1782663386148651000,2.292651123046875,-0.04396466538310051,0.0024535974953323603,0.08064834773540497
1782663386158721000,2.302720947265625,-0.08062437921762466,0.01043020375072956,0.07215428352355957
1782663386168791000,2.312791015625,-0.11850172281265259,0.01861622929573059,0.051362987607717514
1782663386178860800,2.32286083984375,-0.15987233817577362,0.021606959402561188,0.02654365822672844
1782663386188930000,2.332929931640625,-0.19906474649906158,0.032591164112091064,0.0037350161001086235
1782663386198999800,2.342999755859375,-0.2324567586183548,0.06670308858156204,-0.0012275432236492634
1782663386209070000,2.353070068359375,-0.25790780782699585,0.0909101590514183,-0.016787061467766762
1782663386219140000,2.36314013671875,-0.27210310101509094,0.0977654904127121,-0.03655872121453285
1782663386229209900,2.3732099609375,-0.2697909474372864,0.09023593366146088,-0.05580991506576538
1782663386239279900,2.38327978515625,-0.2520241439342499,0.08624248206615448,-0.05793400853872299
1782663386249350100,2.39335009765625,-0.23753973841667175,0.09187852591276169,-0.04433830454945564
1782663386259420000,2.403419921875,-0.22984986007213593,0.08578308671712875,-0.03305448964238167
1782663386269490000,2.413489990234375,-0.21768240630626678,0.06634493917226791,-0.032071519643068314
1782663386279560000,2.423559814453125,-0.2024734765291214,0.03761592134833336,-0.03798903152346611
1782663386289629000,2.43362890625,-0.17859743535518646,0.008728613145649433,-0.034831319004297256
1782663386299699000,2.443698974609375,-0.1498860865831375,-0.028808139264583588,-0.02861000970005989
1782663386309769000,2.45376904296875,-0.11402955651283264,-0.07009193301200867,-0.006245848722755909
1782663386319839000,2.4638388671875,-0.07503150403499603,-0.09954413771629333,0.02806076966226101
1782663386329908700,2.47390869140625,-0.03793180361390114,-0.13173377513885498,0.06396523863077164
1782663386339979000,2.48397900390625,-0.0017192661762237549,-0.15996456146240234,0.08471761643886566
1782663386350049000,2.494049072265625,0.037022002041339874,-0.19673404097557068,0.10053066909313202
1782663386360118800,2.504118896484375,0.07040198892354965,-0.21877646446228027,0.1163434311747551
1782663386370189000,2.51418896484375,0.10178867727518082,-0.22534862160682678,0.14113853871822357
1782663386380259600,2.524259521484375,0.1282031536102295,-0.21828338503837585,0.17441777884960175
1782663386390328300,2.534328369140625,0.14813904464244843,-0.1974516063928604,0.20810383558273315
1782663386400398600,2.544398681640625,0.16310489177703857,-0.16424645483493805,0.2298840433359146
1782663386410468400,2.55446826171875,0.18104925751686096,-0.14972689747810364,0.23531928658485413
1782663386420538400,2.564538330078125,0.20658369362354279,-0.15779022872447968,0.22033242881298065
1782663386430608400,2.5746083984375,0.2343660593032837,-0.19123072922229767,0.19667822122573853
1782663386440678400,2.584678466796875,0.2587275803089142,-0.2367635816335678,0.17193837463855743
1782663386450748400,2.59474853515625,0.27108946442604065,-0.27986177802085876,0.15938237309455872
1782663386460818400,2.604818359375,0.27228212356567383,-0.30278587341308594,0.15668952465057373
1782663386470888400,2.614888427734375,0.25492629408836365,-0.29656314849853516,0.1640174835920334
1782663386480958500,2.62495849609375,0.22370357811450958,-0.24863728880882263,0.1827995479106903
1782663386491027500,2.63502734375,0.18723158538341522,-0.19038783013820648,0.20040038228034973
1782663386501097500,2.645097412109375,0.1560099869966507,-0.13906927406787872,0.21517536044120789
1782663386511167500,2.65516748046875,0.1340346485376358,-0.10139193385839462,0.22695478796958923
1782663386521237200,2.6652373046875,0.11684491485357285,-0.07934857159852982,0.21680162847042084
1782663386531307500,2.6753076171875,0.09760650247335434,-0.056900519877672195,0.1803877055644989
1782663386541377300,2.685377197265625,0.0732962116599083,-0.036909881979227066,0.1290910691022873
1782663386551447300,2.695447265625,0.055004820227622986,-0.013451692648231983,0.0748605877161026
1782663386561517600,2.705517578125,0.03405990079045296,-0.00477119255810976,0.017619475722312927
1782663386571587300,2.71558740234375,0.01539087574928999,-0.010110830888152122,-0.03424052521586418
1782663386581657300,2.7256572265625,0.0016786523628979921,-0.008804350160062313,-0.06901481002569199
1782663386591726300,2.735726318359375,-0.009375063702464104,-0.008386500179767609,-0.08677463233470917
1782663386601796400,2.74579638671875,-0.01789086125791073,-0.0022998363710939884,-0.08983568847179413
1782663386611866400,2.755866455078125,-0.02584971860051155,0.003660317976027727,-0.08603508770465851
1782663386621936400,2.765936279296875,-0.03580790013074875,0.018840748816728592,-0.07782497256994247
1782663386632006400,2.77600634765625,-0.041514523327350616,0.025580143555998802,-0.06040336936712265
1782663386642076400,2.786076416015625,-0.04587172344326973,0.03095412254333496,-0.03871763497591019
1782663386652146400,2.796146484375,-0.05356346815824509,0.01920132525265217,-0.011708920821547508
1782663386662216400,2.806216552734375,-0.061744533479213715,0.020359128713607788,0.014767169952392578
1782663386672286500,2.816286376953125,-0.06454111635684967,0.033134575933218,0.02915303409099579
1782663386682356500,2.8263564453125,-0.0672980323433876,0.03971708565950394,0.037304461002349854
1782663386692425500,2.836425537109375,-0.061162110418081284,0.029534218832850456,0.024091189727187157
1782663386702495200,2.8464951171875,-0.05218135192990303,0.016003955155611038,0.008209497667849064
1782663386712565500,2.8565654296875,-0.04978930205106735,0.011731713078916073,-0.011620399542152882
1782663386722635500,2.866635498046875,-0.047019075602293015,0.015303029678761959,-0.02344817854464054
1782663386732705300,2.876705322265625,-0.0509757362306118,0.03074696660041809,-0.0337466225028038
1782663386742775600,2.886775634765625,-0.05525403469800949,0.044199634343385696,-0.04217429831624031
1782663386752845600,2.896845458984375,-0.054310478270053864,0.04194260388612747,-0.056451503187417984
1782663386762915300,2.906915283203125,-0.05078514665365219,0.031639788299798965,-0.07069025188684464
1782663386772985300,2.9169853515625,-0.04766445606946945,0.0383397676050663,-0.08081212639808655
1782663386783055400,2.927055419921875,-0.03901893272995949,0.05553355813026428,-0.08058059215545654
1782663386793124400,2.937124267578125,-0.04360995441675186,0.06662322580814362,-0.0881253257393837
1782663386803194600,2.947194580078125,-0.04445130005478859,0.0669468566775322,-0.10431912541389465
1782663386813264400,2.957264404296875,-0.044370073825120926,0.06247647479176521,-0.12815868854522705
1782663386823334400,2.96733447265625,-0.04400177299976349,0.05587286502122879,-0.14943304657936096
1782663386833404400,2.977404296875,-0.04561698064208031,0.04941682890057564,-0.17307817935943604
1782663386843474400,2.987474365234375,-0.04549292474985123,0.033880289644002914,-0.18977227807044983
1782663386853544400,2.99754443359375,-0.04363803192973137,0.03333407640457153,-0.19433879852294922
1782663386863614200,3.0076142578125,-0.04544462263584137,0.03547166287899017,-0.18996883928775787
1782663386873684500,3.0176845703125,-0.044635020196437836,0.0330607034265995,-0.18090423941612244
1782663386883753200,3.027753173828125,-0.04496375471353531,0.03503929823637009,-0.16937486827373505
1782663386893823500,3.037823486328125,-0.045714765787124634,0.03603319078683853,-0.15651792287826538
1782663386903893500,3.0478935546875,-0.04472966119647026,0.042613860219717026,-0.1504427194595337
1782663386913963300,3.05796337890625,-0.04509345069527626,0.04129639267921448,-0.14867465198040009
1782663386924033300,3.068033203125,-0.03492546081542969,0.03539739549160004,-0.15451207756996155
1782663386934103600,3.078103515625,-0.025881631299853325,0.02038063295185566,-0.16234096884727478
1782663386944173300,3.08817333984375,-0.011181086301803589,-0.001196717843413353,-0.18601126968860626
1782663386954243300,3.098243408203125,0.006676473189145327,-0.010727904736995697,-0.20300143957138062
1782663386964313600,3.108313720703125,0.022570936009287834,-0.025296829640865326,-0.213541179895401
1782663386974383400,3.11838330078125,0.03763164207339287,-0.04078497737646103,-0.20870967209339142
1782663386984452600,3.12845263671875,0.04866989701986313,-0.039745837450027466,-0.18452122807502747
1782663386994522400,3.1385224609375,0.055026330053806305,-0.027043094858527184,-0.1503685861825943
1782663387004592400,3.14859228515625,0.051612552255392075,-0.01509489119052887,-0.11537230014801025
1782663387014662400,3.158662353515625,0.0418534018099308,0.004739000927656889,-0.08811218291521072
1782663387024732400,3.168732421875,0.03422480449080467,0.020417725667357445,-0.07030273228883743
1782663387034802400,3.178802490234375,0.024323437362909317,0.02754807285964489,-0.05324944853782654
1782663387044872400,3.18887255859375,0.0070551298558712006,0.029000408947467804,-0.039725497364997864
1782663387054942500,3.1989423828125,0.00030641339253634214,0.02891811728477478,-0.02530927211046219
1782663387065012500,3.209012451171875,-0.007712493184953928,0.029085125774145126,-0.015440449118614197
1782663387075081500,3.21908154296875,-0.020511645823717117,0.03501012921333313,-0.004627748858183622
1782663387085151500,3.2291513671875,-0.028325652703642845,0.02801947109401226,-0.004254355560988188
1782663387095221500,3.239221435546875,-0.03535053879022598,0.019381241872906685,-0.017358971759676933
1782663387105291300,3.249291259765625,-0.04080653190612793,0.012228382751345634,-0.030158407986164093
1782663387115361500,3.259361572265625,-0.044757865369319916,0.0008681362960487604,-0.042998041957616806
1782663387125431300,3.269431396484375,-0.05274541676044464,-0.008303535170853138,-0.05039454624056816
1782663387135501300,3.279501220703125,-0.06210216507315636,-0.009629257023334503,-0.05490460991859436
1782663387145571600,3.289571533203125,-0.06370822340250015,-0.011243537999689579,-0.05083903297781944
1782663387155641300,3.299641357421875,-0.06631865352392197,-0.0074746329337358475,-0.04304848611354828
1782663387165710300,3.30971044921875,-0.06127631291747093,-0.011506746523082256,-0.03368883207440376
1782663387175780600,3.319780517578125,-0.05855056270956993,-0.017531614750623703,-0.02331954799592495
1782663387185850400,3.329850341796875,-0.05308230221271515,-0.023973021656274796,-0.01645643450319767
1782663387195920400,3.33992041015625,-0.04710989445447922,-0.020300522446632385,-0.011602289974689484
1782663387205990400,3.349990478515625,-0.03837431222200394,-0.02754131704568863,-0.010680120438337326
1782663387216060400,3.360060302734375,-0.029703326523303986,-0.033058322966098785,-0.01594226062297821
1782663387226130400,3.37013037109375,-0.020066672936081886,-0.039009932428598404,-0.02123996987938881
1782663387236200400,3.380200439453125,-0.01695450209081173,-0.054232027381658554,-0.03176531195640564
1782663387246270500,3.3902705078125,-0.014052637852728367,-0.08624770492315292,-0.053387075662612915
1782663387256339200,3.400339111328125,-0.015627631917595863,-0.13895778357982635,-0.10554695129394531
1782663387266409500,3.410409423828125,-0.011675871908664703,-0.19277536869049072,-0.16648231446743011
1782663387276479500,3.4204794921875,-0.003577997675165534,-0.22697408497333527,-0.21662458777427673
1782663387286549200,3.43054931640625,-0.007552055642008781,-0.2660429775714874,-0.2763292193412781
1782663387296619500,3.44061962890625,-0.007788278162479401,-0.29478487372398376,-0.33402395248413086
1782663387306689500,3.450689453125,-0.009135681204497814,-0.29439491033554077,-0.37275266647338867
1782663387316759300,3.46075927734375,-0.013723774813115597,-0.2639414072036743,-0.37064239382743835
1782663387326829300,3.470829345703125,-0.018416432663798332,-0.2193186730146408,-0.358978807926178
1782663387336899600,3.480899658203125,-0.030482949689030647,-0.19009101390838623,-0.33001694083213806
1782663387346968300,3.49096826171875,-0.035696934908628464,-0.13273389637470245,-0.2875576615333557
1782663387357038600,3.50103857421875,-0.03216105327010155,-0.09067166596651077,-0.24797378480434418
1782663387367108400,3.5111083984375,-0.03563877195119858,-0.04979811981320381,-0.2112092673778534
1782663387377178000,3.52117822265625,-0.028806431218981743,-0.009818480350077152,-0.17618337273597717
1782663387387248400,3.531248291015625,-0.01688191294670105,0.023255906999111176,-0.13331784307956696
1782663387397318100,3.541318115234375,0.0007812359253875911,0.050331734120845795,-0.07798562198877335
1782663387407388200,3.55138818359375,0.014356637373566628,0.058110300451517105,-0.025252260267734528
1782663387417458200,3.561458251953125,0.019634222611784935,0.059922583401203156,0.022347750142216682
1782663387427528200,3.571528076171875,0.02308749221265316,0.06964504718780518,0.06488623470067978
1782663387437597200,3.58159716796875,0.03303306922316551,0.07493115216493607,0.10134224593639374
1782663387447667200,3.591667236328125,0.04036358371376991,0.062218427658081055,0.1179417297244072
1782663387457737200,3.6017373046875,0.047957587987184525,0.03543128818273544,0.11361036449670792
1782663387467807200,3.61180712890625,0.053334400057792664,0.02162076160311699,0.1000858023762703
1782663387477877200,3.621877197265625,0.059352610260248184,0.006240739021450281,0.07172632962465286
1782663387487947300,3.631947265625,0.05620768293738365,-0.0028289223555475473,0.03959396481513977
1782663387498017300,3.642017333984375,0.05226700380444527,-0.024384547024965286,-0.0005052524502389133
1782663387508087000,3.652087158203125,0.04798070341348648,-0.03406360000371933,-0.03550698608160019
1782663387518156300,3.66215625,0.0436253696680069,-0.04025571420788765,-0.054547522217035294
1782663387528226000,3.67222607421875,0.038538239896297455,-0.041604455560445786,-0.06608092039823532
1782663387538296300,3.68229638671875,0.028085598722100258,-0.03333241119980812,-0.060861390084028244
1782663387548366300,3.692366455078125,0.023291008546948433,-0.0263486560434103,-0.03657309338450432
1782663387558436000,3.70243603515625,0.020365793257951736,-0.020169323310256004,-0.007247960194945335
1782663387568506400,3.71250634765625,0.018778659403324127,-0.00875350832939148,0.026483867317438126
1782663387578576400,3.722576416015625,0.01723296009004116,-0.006956406403332949,0.04558885097503662
1782663387588646100,3.732646240234375,0.018856676295399666,-0.0048094564117491245,0.05303150787949562
1782663387598716200,3.742716064453125,0.02688850462436676,-0.008997010067105293,0.04807456582784653
1782663387608785200,3.75278515625,0.038591619580984116,-0.017972663044929504,0.027095027267932892
1782663387618855200,3.762855224609375,0.049114570021629333,-0.0300919096916914,0.0026320279575884342
1782663387628925400,3.772925537109375,0.057798758149147034,-0.03657824173569679,-0.02373334765434265
1782663387638995200,3.7829951171875,0.07020189613103867,-0.04984371364116669,-0.0443589985370636
1782663387649065200,3.793065185546875,0.08472107350826263,-0.051826346665620804,-0.06218482553958893
1782663387659135000,3.803135009765625,0.09486611932516098,-0.041907671838998795,-0.0663611963391304
1782663387669205200,3.813205322265625,0.09912782162427902,-0.033585887402296066,-0.07202432304620743
1782663387679275300,3.823275146484375,0.10042691230773926,-0.03516647592186928,-0.07641081511974335
1782663387689345000,3.833344970703125,0.09874971210956573,-0.03846190124750137,-0.07119018584489822
1782663387699414300,3.843414306640625,0.11186977475881577,-0.04808683320879936,-0.06456556916236877
1782663387709484000,3.853484130859375,0.11096733063459396,-0.044062141329050064,-0.053527310490608215
1782663387719554300,3.86355419921875,0.11887212097644806,-0.053089458495378494,-0.03729640692472458
1782663387729624300,3.873624267578125,0.11983612924814224,-0.06509815156459808,-0.023854674771428108
1782663387739694000,3.883694091796875,0.11853677779436111,-0.06970888376235962,-0.002121681347489357
1782663387749764000,3.89376416015625,0.11112998425960541,-0.0667920634150505,0.01971178501844406
1782663387759834400,3.90383447265625,0.09988664835691452,-0.05862307921051979,0.049757301807403564
1782663387769904000,3.913904052734375,0.0851961299777031,-0.05480051040649414,0.07098555564880371
1782663387779973400,3.923973388671875,0.0762215405702591,-0.05472620576620102,0.08322597295045853
1782663387790043100,3.934043212890625,0.06207866594195366,-0.0521281436085701,0.09533494710922241
1782663387800113200,3.944113037109375,0.05052800476551056,-0.048183735460042953,0.09992996603250504
1782663387810183200,3.95418310546875,0.03719547390937805,-0.04084012657403946,0.09403711557388306
1782663387820253200,3.964253173828125,0.022274048998951912,-0.03456491976976395,0.08204463124275208
1782663387830323200,3.9743232421875,0.009984003379940987,-0.029813911765813828,0.06546163558959961
1782663387840393200,3.984393310546875,-0.0020476258359849453,-0.01454014889895916,0.04872792586684227
1782663387850463200,3.994463134765625,-0.017112931236624718,-0.0024451888166368008,0.026856057345867157
1782663387860532200,4.0045322265625,-0.026864895597100258,-0.00011412380263209343,-0.003034462220966816
1782663387870602200,4.014602294921875,-0.03046618029475212,0.011956831440329552,-0.020713629201054573
1782663387880672300,4.02467236328125,-0.03510407358407974,0.023796446621418,-0.04349643737077713
1782663387890742300,4.0347421875,-0.035052619874477386,0.017878342419862747,-0.06869922578334808
1782663387900812000,4.04481201171875,-0.027865545824170113,0.0024288117419928312,-0.08386539667844772
1782663387910882300,4.05488232421875,-0.019256705418229103,0.010458944365382195,-0.07648777961730957
1782663387920952300,4.064952392578125,-0.015479011461138725,0.01537167839705944,-0.0641312450170517
1782663387931022000,4.07502197265625,-0.009040835313498974,0.02377893030643463,-0.04458745941519737
1782663387941092400,4.08509228515625,-0.0071896715089678764,0.03645318001508713,-0.02025708556175232
1782663387951161000,4.0951611328125,-0.00495725916698575,0.038711294531822205,-0.0036471423227339983
1782663387961231000,4.105231201171875,0.0018159585306420922,0.03358231112360954,0.005716532003134489
1782663387971301400,4.11530126953125,0.0109838442876935,0.03057599626481533,0.015065598301589489
1782663387981371100,4.12537109375,0.014574051834642887,0.030889185145497322,0.016319947317242622
1782663387991441200,4.135441162109375,0.016336746513843536,0.0388646125793457,0.019002093002200127
1782663388001511200,4.14551123046875,0.018773270770907402,0.04535846784710884,0.01576874777674675
1782663388011581200,4.155581298828125,0.020064106211066246,0.02830944024026394,0.0035730693489313126
1782663388021651200,4.165651123046875,0.026179788634181023,0.01627674512565136,-0.010820516385138035
1782663388031720200,4.17572021484375,0.03076777420938015,0.009379246272146702,-0.015198450535535812
1782663388041790200,4.185790283203125,0.031026899814605713,0.009550487622618675,-0.02180042676627636
1782663388051860000,4.19585986328125,0.029074687510728836,0.01142403669655323,-0.023142317309975624
1782663388061930200,4.20593017578125,0.024836000055074692,0.013460289686918259,-0.017973389476537704
1782663388072000300,4.216000244140625,0.021867167204618454,0.011200075969099998,-0.017722632735967636
1782663388082070000,4.226070068359375,0.015500614419579506,0.005142183508723974,-0.010339285247027874
1782663388092140300,4.236140380859375,0.01530035212635994,0.0049278624355793,-0.0017860464286059141
1782663388102210300,4.246210205078125,0.01512325182557106,0.0016431197291240096,0.010739599354565144
1782663388112279300,4.256279296875,0.015293904580175877,-0.0020381389185786247,0.01636442169547081
1782663388122349300,4.266349365234375,0.015507756732404232,-0.010006582364439964,0.018962601199746132
1782663388132419000,4.276419189453125,0.013587713241577148,-0.01108885183930397,0.02073550596833229
1782663388142489000,4.286489013671875,0.00753754423931241,-0.005065313074737787,0.02686503902077675
1782663388152559400,4.296559326171875,0.0011642302852123976,-0.001605175668373704,0.02728768065571785
1782663388162629000,4.306629150390625,0.0029637282714247704,-0.003788967849686742,0.02295578271150589
1782663388172699100,4.31669921875,0.005775651894509792,-0.006632340140640736,0.014475516974925995
1782663388182769400,4.326769287109375,0.004366307053714991,-0.006233931519091129,0.006853816099464893
1782663388192838100,4.336838134765625,0.006692741997539997,-0.001199602149426937,0.006408002693206072
1782663388202908200,4.346908203125,0.00720779737457633,-0.001745816320180893,0.004699585027992725
1782663388212978200,4.356978271484375,0.008470507338643074,-0.00005829078145325184,0.0014261415926739573
1782663388223048200,4.367048095703125,0.012409321963787079,0.0013105738908052444,0.0006956364959478378
1782663388233118200,4.3771181640625,0.010233628563582897,0.009405165910720825,0.001074034022167325
1782663388243188200,4.387188232421875,0.011856825090944767,0.010169493034482002,-0.005811302922666073
1782663388253258200,4.39725830078125,0.019883958622813225,0.0018205557717010379,-0.015544204972684383
1782663388263328300,4.407328369140625,0.02436286211013794,-0.009182827547192574,-0.03349577635526657
1782663388273397200,4.417397216796875,0.03391434624791145,-0.025991924107074738,-0.04114753007888794
1782663388283467300,4.42746728515625,0.025973333045840263,-0.030804788693785667,-0.04626639187335968
1782663388293537000,4.437537109375,0.03188592195510864,-0.016593748703598976,-0.030232185497879982
1782663388303607300,4.447607177734375,0.02416941151022911,0.012558809481561184,-0.014671334996819496
1782663388313677300,4.45767724609375,0.014314811676740646,0.025243833661079407,-0.004461955279111862
1782663388323747000,4.4677470703125,0.004218235611915588,0.02831925079226494,-0.0038025565445423126
1782663388333817300,4.4778173828125,-0.0033140825107693672,0.024548936635255814,-0.015688395127654076
1782663388343887000,4.48788720703125,-0.008234006352722645,0.01942128688097,-0.035074878484010696
1782663388353956000,4.4979560546875,-0.017294034361839294,0.014103625901043415,-0.06695029139518738
1782663388364026400,4.5080263671875,-0.01955692283809185,-0.004581378772854805,-0.08573276549577713
1782663388374096100,4.51809619140625,-0.02277609147131443,-0.018081732094287872,-0.09405472874641418
1782663388384166400,4.52816650390625,-0.02031586319208145,-0.018577879294753075,-0.08657390624284744
1782663388394236400,4.538236328125,-0.018318770453333855,-0.006064943037927151,-0.06932571530342102
1782663388404306400,4.548306396484375,-0.017593856900930405,0.004136029630899429,-0.05680592358112335
1782663388414376400,4.55837646484375,-0.01854684017598629,0.010975193232297897,-0.04644543305039406
1782663388424445400,4.568445556640625,-0.020125828683376312,0.01862379163503647,-0.03179245442152023
1782663388434515500,4.578515380859375,-0.025893012061715126,0.02336372435092926,-0.025290152058005333
1782663388444585200,4.588585205078125,-0.02338617853820324,0.022018561139702797,-0.02022348716855049
1782663388454655500,4.598655517578125,-0.020183244720101357,0.01602552831172943,-0.01372321043163538
1782663388464725500,4.6087255859375,-0.013267283327877522,0.008451232686638832,-0.013013744726777077
1782663388474795300,4.618795166015625,-0.006867656018584967,0.005676116794347763,-0.010740126483142376
1782663388484865500,4.628865478515625,-0.0031943577341735363,-0.0036097934935241938,-0.007696399465203285
1782663388494935600,4.638935546875,0.0004576383507810533,-0.010375740006566048,0.005759979598224163
1782663388505004300,4.64900439453125,-0.0008955138036981225,-0.009146424941718578,0.036720290780067444
1782663388515074600,4.659074462890625,-0.0020188381895422935,0.016116773709654808,0.07606667280197144
1782663388525144300,4.669144287109375,-0.003228978719562292,0.03726840019226074,0.08863785862922668
1782663388535214300,4.67921435546875,-0.00334237702190876,0.03102158010005951,0.07848357409238815
1782663388545284600,4.68928466796875,-0.00181878253351897,0.01441916823387146,0.06266678869724274
1782663388555354400,4.699354248046875,0.0021362246479839087,0.007979441434144974,0.04860031604766846
1782663388565424400,4.70942431640625,0.0031442311592400074,0.010492932982742786,0.03139336407184601
1782663388575494400,4.719494384765625,0.004364651627838612,0.0018672995502129197,0.013143296353518963
1782663388585563400,4.7295634765625,0.009917342104017735,-0.0020171874202787876,-0.008474115282297134
1782663388595633400,4.73963330078125,0.008848615922033787,0.000771454069763422,-0.02230379916727543
1782663388605703400,4.749703369140625,0.009546364657580853,0.00340745085850358,-0.029815776273608208
1782663388615773400,4.7597734375,0.008801531046628952,0.007134969811886549,-0.03198164701461792
1782663388625843500,4.769843505859375,0.01453797984868288,0.012318014167249203,-0.03396836668252945
1782663388635913500,4.77991357421875,0.017259890213608742,0.012210500426590443,-0.03236137330532074
1782663388645983500,4.7899833984375,0.02079736813902855,0.014248617924749851,-0.02822228893637657
1782663388656052200,4.80005224609375,0.02451689913868904,0.014551941305398941,-0.02434690296649933
1782663388666122500,4.81012255859375,0.03138785809278488,0.01761324517428875,-0.019020847976207733
1782663388676192500,4.820192626953125,0.03075423464179039,0.021959811449050903,-0.015924159437417984
1782663388686262300,4.83026220703125,0.03285094350576401,0.017574917525053024,-0.020944485440850258
1782663388696332500,4.84033251953125,0.03265690430998802,0.018644539639353752,-0.023875556886196136
1782663388706402300,4.85040234375,0.03041238896548748,0.019184894859790802,-0.025133101269602776
1782663388716472300,4.860472412109375,0.03125597909092903,0.015466836281120777,-0.024746453389525414
1782663388726542600,4.87054248046875,0.025722196325659752,0.02062031999230385,-0.016383063048124313
1782663388736611300,4.880611328125,0.02596651017665863,0.026755284518003464,-0.009554184041917324
1782663388746681300,4.890681396484375,0.02042686939239502,0.02564048394560814,-0.011706017889082432
1782663388756751600,4.900751708984375,0.018749289214611053,0.008721131831407547,-0.019705768674612045
1782663388766821400,4.9108212890625,0.017739152535796165,-0.0011341620702296495,-0.026570066809654236
1782663388776891400,4.920891357421875,0.01889667473733425,-0.00043930415995419025,-0.021539591252803802
1782663388786961400,4.93096142578125,0.017769359052181244,-0.003184756962582469,-0.011492282152175903
1782663388797031400,4.941031494140625,0.010494932532310486,-0.010098626837134361,0.00035627413308247924
1782663388807100400,4.951100341796875,0.009624078869819641,-0.00888529047369957,0.018679354339838028
1782663388817170400,4.96117041015625,0.0034420257434248924,-0.0028996337205171585,0.03704771399497986
1782663388827240400,4.971240478515625,0.003579977434128523,-0.002528388984501362,0.046174634248018265
1782663388837310200,4.981310302734375,0.005806433502584696,-0.008685413748025894,0.040628258138895035
1782663388847380500,4.99138037109375,0.008420858532190323,-0.013153665699064732,0.033704839646816254
1782663388857450500,5.001450439453125,0.011060744524002075,-0.022884197533130646,0.024704571813344955
1782663388867520300,5.011520263671875,0.01902918890118599,-0.027161234989762306,0.020188117399811745
1782663388877590500,5.021590576171875,0.023324228823184967,-0.02417042665183544,0.019331417977809906
1782663388887659300,5.0316591796875,0.025676066055893898,-0.021425772458314896,0.01586264930665493
1782663388897729300,5.041729248046875,0.025800008326768875,-0.0061643412336707115,0.011604747734963894
1782663388907799600,5.051799560546875,0.0289545226842165,-0.001324045704677701,0.004475732333958149
1782663388917869300,5.061869384765625,0.02916560508310795,0.004279590677469969,-0.005310013424605131
1782663388927939300,5.071939208984375,0.032927051186561584,0.0006110863760113716,-0.0170590803027153
1782663388938009600,5.082009521484375,0.039155710488557816,-0.0021640879567712545,-0.024780945852398872
1782663388948079400,5.092079345703125,0.043663643300533295,-0.006966033019125462,-0.03017651103436947
1782663388958148400,5.1021484375,0.04610330983996391,-0.010031970217823982,-0.03541997820138931
1782663388968218400,5.11221826171875,0.04366891458630562,-0.005447871051728725,-0.032772794365882874
1782663388978288400,5.122288330078125,0.03953766077756882,-0.003798216348513961,-0.027707725763320923
1782663388988358400,5.1323583984375,0.036388203501701355,0.00033927056938409805,-0.021030114963650703
1782663388998428400,5.142428466796875,0.035177212208509445,-0.0050260890275239944,-0.01849992573261261
1782663389008498400,5.15249853515625,0.03760841488838196,-0.005383218638598919,-0.009919487871229649
1782663389018568400,5.162568359375,0.03689111769199371,-0.010572092607617378,-0.0032579267863184214
1782663389028637400,5.172637451171875,0.03592652082443237,-0.013556163758039474,0.0015022072475403547
1782663389038707500,5.18270751953125,0.031105080619454384,-0.013968358747661114,0.007843535393476486
1782663389048777200,5.192777099609375,0.02331160567700863,-0.016903961077332497,0.012352533638477325
1782663389058847500,5.202847412109375,0.018445583060383797,-0.012922566384077072,0.020591357722878456
1782663389068917500,5.21291748046875,0.012611395679414272,-0.01634339615702629,0.024374911561608315
1782663389078987300,5.2229873046875,0.011923927813768387,-0.021143713966012,0.030112620443105698
1782663389089057500,5.2330576171875,0.00975052174180746,-0.021602043882012367,0.029779726639389992
1782663389099126300,5.243126220703125,0.009837022051215172,-0.022985443472862244,0.02631727047264576
1782663389109196500,5.253196533203125,0.0071067484095692635,-0.021602198481559753,0.027211027219891548
1782663389119266600,5.2632666015625,0.0021288751158863306,-0.009699108079075813,0.01899438165128231
1782663389129336300,5.27333642578125,-0.0005992670776322484,-0.012757215648889542,0.007478606887161732
1782663389139406300,5.28340625,-0.002018677070736885,-0.015314234420657158,-0.007149788551032543
1782663389149476600,5.2934765625,-0.0005334321176633239,-0.01303616538643837,-0.018145980313420296
1782663389159546400,5.30354638671875,0.0026594826485961676,-0.011542577296495438,-0.02807505428791046
1782663389169615600,5.31361572265625,0.0038259471766650677,-0.015068336389958858,-0.03720303997397423
1782663389179685400,5.323685302734375,0.0013781331945210695,-0.012385278940200806,-0.04883521795272827
1782663389189755400,5.33375537109375,0.007429634220898151,-0.008547930046916008,-0.04380770027637482
1782663389199825400,5.343825439453125,0.005101336166262627,0.00005326000973582268,-0.03336884081363678
1782663389209895400,5.3538955078125,-0.0007213990902528167,0.004420045297592878,-0.02218702808022499
1782663389219965400,5.36396533203125,0.000017363461665809155,0.001017271657474339,-0.019401468336582184
1782663389230035200,5.37403515625,0.0016994159668684006,-0.006191639229655266,-0.019296007230877876
1782663389240104400,5.3841044921875,0.005017125979065895,-0.012638187035918236,-0.010593835264444351
1782663389250174500,5.394174560546875,0.003006706014275551,-0.002217237837612629,0.01275569573044777
1782663389260244500,5.404244384765625,-0.00461754621937871,0.012971814721822739,0.026655055582523346
1782663389270314500,5.414314453125,-0.007167522329837084,0.01562778651714325,0.034708987921476364
1782663389280384300,5.42438427734375,-0.008783001452684402,0.013118764385581017,0.03341672569513321
1782663389290454300,5.434454345703125,-0.0024910178035497665,0.004975616466253996,0.016674496233463287
1782663389300524500,5.444524658203125,0.001594804460182786,-0.0012591585982590914,0.007137606386095285
1782663389310593300,5.45459326171875,0.003332783468067646,-0.009826015681028366,-0.00005079776747152209
1782663389320663600,5.46466357421875,0.007621645927429199,-0.010765490122139454,-0.013840906322002411
1782663389330733300,5.4747333984375,0.009242712520062923,-0.005574190989136696,-0.01828625425696373
1782663389340803300,5.48480322265625,0.007868040353059769,0.018008938059210777,-0.020840613171458244
1782663389350873300,5.494873291015625,0.005993174854665995,0.022460676729679108,-0.026132579892873764
1782663389360943400,5.504943359375,0.00778212770819664,0.011645937338471413,-0.04059673473238945
1782663389371013400,5.515013427734375,0.014107401482760906,-0.0024983780458569527,-0.04825252294540405
1782663389381081900,5.525081787109375,0.01575062796473503,-0.014344768598675728,-0.05643926560878754
1782663389391151600,5.535151611328125,0.017889944836497307,-0.015973025932908058,-0.05367623642086983
1782663389401221600,5.5452216796875,0.021164191886782646,-0.004825117997825146,-0.032491862773895264
1782663389411291600,5.555291748046875,0.019042186439037323,0.006643784698098898,-0.015756025910377502
1782663389421361700,5.565361572265625,0.021710194647312164,0.0037770946510136127,-0.00563715398311615
1782663389431431700,5.575431640625,0.01807737722992897,0.0023866582196205854,-0.004067220725119114
1782663389441501700,5.585501708984375,0.009293152950704098,-0.004141271114349365,-0.0024275463074445724
1782663389451570700,5.59557080078125,0.004192134831100702,-0.0064414432272315025,0.008405128493905067
1782663389461640700,5.605640625,-0.005358535330742598,-0.011461406946182251,0.026895102113485336
1782663389471710700,5.615710693359375,-0.01372032891958952,-0.009460307657718658,0.0467526949942112
1782663389481780700,5.62578076171875,-0.02648678980767727,-0.00598724652081728,0.07388760894536972
1782663389491850500,5.6358505859375,-0.03004956617951393,-0.017790641635656357,0.09341364353895187
1782663389501920800,5.645920654296875,-0.02791823446750641,0.0035166647285223007,0.12023625522851944
1782663389511991800,5.65599169921875,-0.06118404492735863,0.12805326282978058,0.1626337766647339
1782663389522061800,5.666061767578125,-0.07582807540893555,0.05803122743964195,0.10208360850811005
1782663389532131600,5.676131591796875,-0.056810446083545685,0.006366432644426823,0.05466868728399277
1782663389542201900,5.686201904296875,-0.05050290748476982,0.006991823203861713,0.030914099887013435
1782663389552270600,5.6962705078125,-0.05994248017668724,0.013476088643074036,0.01273962203413248
1782663389562340900,5.7063408203125,-0.06930290907621384,0.030914247035980225,0.012504073791205883
1782663389572411000,5.716410888671875,-0.07021131366491318,0.03385677561163902,0.020914603024721146
1782663389582480600,5.726480712890625,-0.06515678763389587,0.03270248696208,0.029514441266655922
1782663389592550700,5.736550537109375,-0.053878575563430786,0.012842761352658272,0.02168554626405239
1782663389602620700,5.74662060546875,-0.050471965223550797,-0.0013462197966873646,0.011663047596812248
1782663389612690700,5.756690673828125,-0.04713901877403259,-0.01460530050098896,-0.024816133081912994
1782663389622760000,5.766760009765625,-0.04133651405572891,-0.011200827546417713,-0.060389257967472076
1782663389632829700,5.77682958984375,-0.03691140562295914,0.019974136725068092,-0.09689506888389587
1782663389642899700,5.786899658203125,-0.028549348935484886,-0.013690616004168987,-0.14442478120326996
