time,seconds_elapsed,z,y,x
1782812036722609200,0.068609130859375,0.004356441643834114,-0.0137746875887271,-0.010754604548611678
1782812036732680000,0.078679931640625,0.001513327172398567,-0.027558910190779714,0.011194429871137253
1782812036742751000,0.0887509765625,-0.014496727386116981,-0.0183583712503314,0.011177723048219922
1782812036752822000,0.098822021484375,0.00301028773188591,-0.0226541230823379,0.0032030657910509033
1782812036762893000,0.10889306640625,-0.00926174934208393,-0.008877252669679,-0.008799280646198894
1782812036772964000,0.118964111328125,-0.0079167644739151,-0.007467842529481276,-0.004929353010829072
1782812036783035100,0.12903515625,0.010040332499146461,-0.004805518851894885,0.009262671790691093
1782812036793107000,0.13910693359375,-0.005220949518680572,-0.010080253517581149,0.017735640808683818
1782812036803177700,0.149177734375,-0.009261164820194245,-0.021313211601087824,-0.006320658955466933
1782812036813248800,0.159248779296875,-0.007765957826375961,-0.009284034239128231,0.014051977010013069
1782812036823319800,0.16931982421875,-0.0038753801286220547,-0.007320095488708466,-0.011772115594660862
1782812036833390800,0.179390869140625,-0.0035784430086612698,-0.01940780723802745,0.017212884159770327
1782812036843462000,0.1894619140625,0.002855389431118965,-0.0129475251827389,0.005196440698509104
1782812036853533000,0.199532958984375,0.017817980763316154,-0.013905739223025739,-0.004993275959359016
1782812036863604000,0.20960400390625,0.000009936872124671935,-0.013670487428735941,-0.013238484653062186
1782812036873674800,0.2196748046875,-0.00956628524661064,-0.00620132972500287,0.0013391099665197542
1782812036883745800,0.229745849609375,-0.0005886135429143905,-0.011724988517304882,0.014238202030805405
1782812036893816800,0.23981689453125,-0.009863806888461113,-0.013044519283808767,0.004990200369572266
1782812036903888000,0.249887939453125,-0.002381342178583145,-0.01582162844748236,-0.0039178515804582275
1782812036913959000,0.259958984375,-0.006570610561966896,-0.017613261104607952,-0.0038207866974407805
1782812036924030000,0.270030029296875,0.002407645663619041,-0.019863158923247828,-0.006399459812720306
1782812036934101000,0.28010107421875,-0.01809212152957916,-0.015101680142479016,-0.019093172347883228
1782812036944172000,0.290172119140625,0.0031558336824178694,-0.0022016290969680994,-0.02058274418535875
1782812036954243000,0.3002431640625,-0.001782207241654396,-0.02108185053062625,-0.013085492898302617
1782812036964313900,0.31031396484375,-0.011207038190960883,-0.014958910670923068,-0.014738285623607225
1782812036974385000,0.320385009765625,0.000765139153599739,-0.022222015275387093,-0.0047553641338134185
1782812036984456000,0.3304560546875,0.004503741160035133,-0.0001834850744344294,0.0005168292316258885
1782812036994527000,0.34052685546875,0.0016606266885995863,-0.003912542934389785,0.002881649533670861
1782812037004598000,0.350597900390625,0.005101707053184509,-0.013288484107516705,0.007780317428580019
1782812037014669800,0.360669921875,-0.002081482449173927,-0.01062036087680608,-0.011202444214234128
1782812037024740900,0.370740966796875,-0.006719663643836975,-0.00765131847076118,0.013754713379777968
1782812037034812000,0.38081201171875,-0.007169745498895644,-0.017556343285599723,0.0037621815281338056
1782812037044883000,0.390883056640625,0.0062970543175935745,-0.009134031309187413,-0.015618539056857115
1782812037054954000,0.4009541015625,0.008691255977749824,0.0016715042756404728,-0.0009771950186812318
1782812037065024800,0.411024658203125,-0.01585048008263111,-0.011312882318766787,-0.01037150524884928
1782812037075095800,0.421095703125,-0.009416647642850875,0.0008418119858484715,-0.010556935685197822
1782812037085166800,0.431166748046875,-0.0046294133663177485,-0.013444989843480288,0.005810832570074126
1782812037095238000,0.44123779296875,-0.004631166931986809,-0.017401700713159517,0.0027094553215196355
1782812037105309000,0.451308837890625,-0.0107663086861372,-0.021270578035758807,0.004833619285083841
1782812037115380000,0.4613798828125,-0.01720247921347618,-0.02525504456204362,0.0009391988125629722
1782812037125450800,0.47145068359375,0.0025502690047025677,-0.01120431651091203,-0.00864712914165575
1782812037135521800,0.481521728515625,-0.012561959931254385,-0.016206271250359713,-0.004283874164544977
1782812037145592800,0.4915927734375,-0.008522329151630401,-0.014051641366584225,-0.00182866303215269
1782812037155664000,0.501663818359375,0.006889759513735771,-0.004004376803152263,0.0009628468329203315
1782812037165735000,0.51173486328125,0.004345920249819756,0.0021306096873711794,0.0015027486961684189
1782812037175806000,0.521805908203125,-0.010020458754897116,-0.012163772660214454,0.0026524575874092987
1782812037185876700,0.531876708984375,-0.005681552767753601,-0.024262325463956222,-0.008935159152664709
1782812037195947800,0.54194775390625,-0.016455460238456725,0.005103387553617358,-0.0007787155878031626
1782812037206018800,0.552018798828125,-0.0004436521142721176,-0.0030078857122454792,-0.011692097744566853
1782812037216089900,0.56208984375,-0.02184241397380829,-0.017478081284463404,-0.016285560731380246
1782812037226162000,0.572161865234375,-0.00433481433391571,-0.013737698312895372,-0.008492959209962282
1782812037236233000,0.58223291015625,-0.014509002345800399,-0.017400970060797407,-0.018118653343478217
1782812037246304000,0.592303955078125,-0.0007423427999019623,-0.006350574603118002,-0.013166058737668207
1782812037256374800,0.602374755859375,0.0003039513826370239,-0.02079679564470425,-0.008450663571350742
1782812037266445800,0.61244580078125,-0.02049684458374977,-0.006061985186394303,-0.006718476333748549
1782812037276516900,0.622516845703125,-0.020644728621840476,-0.02007713960064575,-0.010997991700295823
1782812037286588000,0.632587890625,-0.02229015774130821,-0.007272438688389956,-0.01202311066406546
1782812037296659000,0.642658935546875,-0.01780161415040493,-0.016809780968306584,0.0056160475002019665
1782812037306730000,0.65272998046875,0.004044306954741478,-0.025582194157177583,0.01996116452118149
1782812037316801000,0.662801025390625,-0.00044599020183086393,-0.005147783817769959,-0.003128128258162178
1782812037326871800,0.672871826171875,0.01107610528767109,-0.014310036574443801,-0.01544397250781767
1782812037336942800,0.68294287109375,-0.011371288841962814,-0.0014847951976582408,-0.00795908979527885
1782812037347014000,0.693013916015625,0.004791325929760932,-0.0071294134885072705,0.004281040603353176
1782812037357085000,0.7030849609375,0.009876666370034218,-0.014135127532109618,0.010130262105190194
1782812037367156000,0.713156005859375,-0.0007487725406885147,-0.01079916064296849,-0.008531640402670017
1782812037377227000,0.72322705078125,-0.0026940613895654678,-0.011960295110521837,0.010317640186741481
1782812037387297800,0.7332978515625,-0.0000011690437793731689,0.0005052917741704732,-0.00840202495692065
1782812037397369300,0.743369384765625,-0.010026888495683669,-0.016034348749555647,0.005551039989572018
1782812037407440400,0.7534404296875,-0.013618190985918044,-0.008255321379052475,0.003699388807476498
1782812037417511200,0.76351123046875,-0.00718260498046875,-0.011010949363280087,0.005483192067884374
1782812037427582200,0.773582275390625,-0.004938040924072265,-0.011497929162625223,-0.000218608903454151
1782812037437653200,0.7836533203125,0.00418926838338375,-0.015204428130900486,-0.007565398319554515
1782812037447724300,0.793724365234375,-0.005537760382890701,-0.0218924636606127,-0.008459540997550356
1782812037457796400,0.80379638671875,0.0031400515913963317,-0.007193491700664162,-0.012840489178267307
1782812037467867400,0.813867431640625,0.002691138780117035,-0.010796219767211004,-0.004075026319990865
1782812037477938400,0.8239384765625,-0.0006008885025978088,0.004167869402328506,0.007522547841805499
1782812037488009200,0.83400927734375,0.0034399113208055496,-0.003506236288975924,-0.002052395635296125
1782812037498080300,0.844080322265625,-0.004191021949052811,-0.0066371181932277975,-0.008572929110995027
1782812037508151300,0.8541513671875,-0.003743278181552887,-0.009890621830150485,-0.013247426011343487
1782812037518222300,0.864222412109375,-0.004044306954741478,-0.009020405733725055,-0.0017429506602114997
1782812037528293400,0.87429345703125,-0.004641688326001167,-0.008303553568106144,-0.005136362808034755
1782812037538364400,0.884364501953125,-0.005389876344799995,0.004684468021802604,0.006436850947351195
1782812037548435200,0.894435302734375,-0.0070353054642677305,-0.023924554010108113,0.004432771982788108
1782812037558506200,0.90450634765625,0.001644260075688362,-0.00015645093703642486,-0.008469158209266607
1782812037568577300,0.914577392578125,-0.014817045381665228,-0.013095199158275499,-0.013989074691501445
1782812037578648300,0.9246484375,-0.021998481318354607,-0.006740916494419798,-0.012587877540511544
1782812037588719400,0.93471923828125,-0.017508184161782264,-0.014418638914916664,-0.0026110752642503937
1782812037598790400,0.944790283203125,-0.0037421091377735135,-0.005446574968099594,-0.010578126886987593
1782812037608861400,0.954861328125,0.006882745251059532,-0.019418145968951285,-0.007658145503769628
1782812037618932200,0.96493212890625,0.004938625445961952,-0.011591534863365813,-0.00015060571813955902
1782812037629003300,0.975003173828125,0.005086509484052658,-0.013118406503926962,0.002179711809393484
1782812037639074300,0.98507421875,-0.0012000234395265579,-0.001973711225762963,-0.00013149230900453402
1782812037649145300,0.995145263671875,-0.01377133572101593,-0.019390846970072016,0.005198443142639007
1782812037659216400,1.00521630859375,-0.004343582162261009,-0.018243074307590722,0.0013642055918695404
1782812037669287400,1.015287353515625,-0.020503274324536323,-0.014250059148669243,0.010366406665334943
1782812037679358200,1.025358154296875,0.0016425065100193024,-0.02395002637808211,-0.0005283415729063562
1782812037689429200,1.03542919921875,-0.01317220078408718,-0.01672657793057151,0.0009203091657138429
1782812037699501300,1.045501220703125,-0.013322422909736632,-0.011896162099437788,-0.016961980421910994
1782812037709572400,1.055572265625,0.00717559071779251,-0.0023627744754310697,0.003039559492142871
1782812037719643400,1.065643310546875,-0.01452419991493225,-0.015907690162584184,0.005914283811394125
1782812037729714400,1.07571435546875,-0.004799509236216545,0.007409253343194723,0.0038776291679241694
1782812037739785500,1.085785400390625,-0.004650456154346466,-0.004951932452106848,0.006307815456914249
1782812037749856300,1.095856201171875,0.002232289096713066,-0.01792805354166776,0.004347274239978287
1782812037759927300,1.10592724609375,-0.0039040217012166973,-0.008989024214772507,0.015618066416110377
1782812037769998300,1.115998291015625,0.011209960800409317,-0.01262372745531611,0.007367391529423184
1782812037780069400,1.1260693359375,0.002980477115511894,-0.004750007538683712,-0.0012871514504193327
1782812037790140400,1.136140380859375,-0.004350596424937248,-0.006607207112153991,-0.006421434182510711
1782812037800211500,1.14621142578125,-0.0006096563309431075,-0.003485915020154789,0.02027976320039015
1782812037810282200,1.1562822265625,-0.0052460839599370954,-0.01516307320720516,0.009250243850669358
1782812037820353300,1.166353271484375,-0.00973579659461975,-0.007983034643158316,0.012449329869635402
1782812037830424300,1.17642431640625,-0.008388473638892174,-0.019317800000170245,-0.005385921688890084
1782812037840495400,1.186495361328125,-0.0025508535265922547,-0.005493848175927996,0.005264717878459487
1782812037850566400,1.19656640625,-0.0016536124259233474,-0.006998261389508843,-0.0072086641536210656
1782812037860637400,1.206637451171875,-0.015570494097471237,-0.010207085634488612,-0.010491049108444712
1782812037870708200,1.216708251953125,-0.0031499884635210035,-0.0117386151838582,0.008263353988458401
1782812037880779300,1.226779296875,-0.020657003581523895,0.007826528907194734,-0.006643255673069506
1782812037890850300,1.236850341796875,-0.013324176475405692,-0.010718460089573636,-0.004199609397596214
1782812037900921300,1.24692138671875,-0.006740121909976005,-0.00834105430059135,0.008785407384473365
1782812037910992400,1.256992431640625,-0.00958382090330124,-0.002175974065903574,0.0014965313012246042
1782812037921063400,1.2670634765625,-0.013771920242905616,-0.013806781493732705,0.0021893678370164707
1782812037931134200,1.27713427734375,-0.008833879318833351,-0.0005078673237469047,-0.0065979164107120595
1782812037941205200,1.287205322265625,0.005083586874604225,-0.005533339936099946,0.008614087671868036
1782812037951276300,1.2972763671875,0.0014928689062595367,-0.01650092508168891,0.01589848394282162
1782812037961347300,1.307347412109375,-0.007034720942378044,-0.0038587760536931454,-0.00035556740544270723
1782812037971419400,1.31741943359375,-0.009130816438794136,-0.0015722999511752276,0.007602981250430457
1782812037981490400,1.327490478515625,0.003887655088305473,-0.00048739992445334787,-0.0003790989780798554
1782812037991561500,1.3375615234375,-0.010925883162021637,-0.008005648333765566,0.0063644501481321634
1782812038001632300,1.34763232421875,-0.012422843721508979,0.007583723994111642,0.010121994317055214
1782812038011703300,1.357703369140625,-0.004492050722241401,-0.0013820472092367709,-0.0006905897797783836
1782812038021774300,1.3677744140625,0.01092003794312477,-0.01332949197134003,-0.0035546831071609627
1782812038031845400,1.377845458984375,-0.014371639701724052,-0.01666818054053001,-0.0025571371369063852
1782812038041916400,1.38791650390625,-0.0003074585139751434,-0.009986154626496135,0.0030375479148584414
1782812038051987500,1.397987548828125,-0.00599310293495655,0.0012152118755038826,0.003880768689792603
1782812038062058200,1.408058349609375,0.008223638466000556,-0.017734832524508238,-0.002258565182285383
1782812038072129300,1.41812939453125,0.007625088050961494,-0.0034980895151384174,-0.01109997250373708
1782812038082200300,1.428200439453125,0.0076245035290718076,-0.009453764782845974,-0.0133431369042024
1782812038092271400,1.438271240234375,-0.010332593443989754,-0.01210971351857297,0.015190045695810112
1782812038102342400,1.44834228515625,-0.009136661657691001,-0.00932891456047073,-0.0038270840074867006
1782812038112413400,1.458413330078125,-0.014673837518692015,-0.007936921345954761,-0.004932903524651192
1782812038122484500,1.468484375,0.002088496711850166,-0.008748182929912581,-0.01284957895030966
1782812038132555300,1.47855517578125,-0.0032978725016117095,-0.008518557158811018,0.009491386529628653
1782812038142626300,1.488626220703125,-0.006140402451157569,-0.021888061480130998,0.00020410545406630262
1782812038152697300,1.498697265625,-0.011077858853340148,-0.009973779202112927,0.00704801424879115
1782812038162768400,1.508768310546875,-0.006588146218657494,-0.014466597109334543,0.009388766405370551
1782812038172839400,1.51883935546875,-0.01002864206135273,-0.015885953254811465,0.01686653439053334
1782812038182910500,1.528910400390625,-0.0071843585461378095,-0.01521478512813337,-0.012743673173710703
1782812038192981200,1.538981201171875,0.001793313157558441,-0.0028966530232690272,0.0051927920032758266
1782812038203052300,1.54905224609375,-0.011074936243891715,-0.010574147114902734,0.006516722666972782
1782812038213123300,1.559123291015625,-0.005837035590410232,-0.011503189859632402,0.001712064614892006
1782812038223194400,1.5691943359375,-0.0006003039807081222,-0.025238330889260394,-0.0035859093624865633
1782812038233265400,1.579265380859375,-0.0026958149552345273,-0.01276964786518365,-0.0011783344808151013
1782812038243337500,1.58933740234375,-0.004941548055410385,-0.012264593553030863,0.007055425803689286
1782812038253408500,1.599408447265625,-0.004940379011631012,-0.015589911183994262,0.004841017140250187
1782812038263479300,1.609479248046875,0.006133972710371017,-0.0013261614366900174,-0.0008107706769020296
1782812038273550300,1.61955029296875,-0.0010439560949802398,-0.0017887465802952647,-0.008774294618703424
1782812038283621400,1.629621337890625,0.007786416092514991,-0.016120547461975367,0.002596352619153913
1782812038293692400,1.6396923828125,-0.004631166931986809,-0.007002581371599808,-0.0086985259687528
1782812038303763500,1.649763427734375,-0.007025368592143058,-0.011665001958375797,0.0006048043426009826
1782812038313834500,1.65983447265625,-0.0029857378125190733,-0.000843145426409319,0.010158889978053047
1782812038323905300,1.6699052734375,-0.004779050970077514,-0.007417153521860018,0.0012508836937951855
1782812038333976300,1.679976318359375,0.006145663148164749,-0.016934320663427933,-0.0008398689072229899
1782812038344047400,1.69004736328125,-0.00821954681277275,-0.009757012912584469,-0.0006400149365887045
1782812038354118400,1.700118408203125,-0.0005862754553556442,-0.02080711610931903,0.0006175747759174555
1782812038364189400,1.710189453125,-0.021086042648553845,-0.010397648903680964,-0.0055100892079644834
1782812038374260500,1.720260498046875,0.0019599018961191177,-0.0023047424115706233,0.009792634498525877
1782812038384331300,1.730331298828125,0.005103460618853569,-0.028227703697280955,-0.0033599916521226984
1782812038394402300,1.74040234375,0.0009141922354698181,-0.021987211005669086,-0.01541854123903904
1782812038404473300,1.750473388671875,0.0031570027261972424,-0.018036564550595355,-0.0025509928071987815
1782812038414544400,1.76054443359375,-0.014800094246864319,-0.015452475474681704,0.003229659253743011
1782812038424615400,1.770615478515625,0.006748305216431617,-0.0018616930854972451,0.006021797023189719
1782812038434686500,1.7806865234375,-0.006419803914427757,-0.012231832927744836,0.0016309667692752554
1782812038444757200,1.79075732421875,-0.01734276446700096,-0.010510963951889425,0.007841694510285742
1782812038454828300,1.800828369140625,0.003307224851846695,-0.017846257009729742,-0.003024603951605968
1782812038464899300,1.8108994140625,-0.007616904744505882,-0.013947167211957275,-0.0034252320581930687
1782812038474970400,1.820970458984375,-0.012854805397987366,-0.01589415482757613,0.0039865420356509276
1782812038485041400,1.83104150390625,-0.013451602247357367,-0.005400041545787826,-0.0010513219841057433
1782812038495112400,1.841112548828125,-0.009711246675252914,-0.011694684710586442,0.00279339129490545
1782812038505183200,1.851183349609375,-0.0005827683240175247,-0.004837676688982173,-0.000777847938123159
1782812038515254300,1.861254150390625,-0.0046212300598621366,-0.0071847330054733895,0.008209486643061972
1782812038525326300,1.871326416015625,0.013034838140010833,-0.018658084849268196,0.01417384525743546
1782812038535397400,1.8813974609375,-0.00013327099084854124,-0.012686426561139523,0.005503595535096247
1782812038545468400,1.891468505859375,0.000018120178580284118,-0.013522786053735763,-0.003772426644223742
1782812038555539500,1.90153955078125,-0.0050695583492517465,-0.008778495869785546,-0.008324610055866651
1782812038565610500,1.911610595703125,-0.007016016241908073,-0.009017455724813044,0.0016067684763576835
1782812038575681300,1.921681396484375,-0.010606734210252761,-0.015345425770478323,-0.018742895322199908
1782812038585752300,1.93175244140625,-0.0064174658268690106,-0.009013491935748606,0.005815851238486357
1782812038595823400,1.9418232421875,-0.0013303718209266662,-0.010306390423653647,-0.005089619323168881
1782812038605894400,1.951894287109375,-0.011954057165980338,-0.0029999307346530255,-0.0057937124719144775
1782812038615965400,1.96196533203125,-0.0020785598397254942,-0.012102269997633993,0.009052367207990027
1782812038626036500,1.972036376953125,-0.0014800094246864319,-0.009975359237845987,0.0007761765708448365
1782812038636107500,1.982107421875,-0.014350012391805647,0.006120309511199593,-0.00344008485074155
1782812038646178300,1.99217822265625,-0.010008768317103385,-0.0053551794907543806,0.0017260840070899574
1782812038656249300,2.002249267578125,-0.006117606097459793,-0.0011829901063349097,0.0015762363407760857
1782812038666320400,2.0123203125,-0.013301964643597602,0.0011869538953993468,0.0066120134347234846
1782812038676391400,2.022391357421875,-0.010908932027220725,-0.01042498443517834,-0.0014196415565558707
1782812038686462500,2.03246240234375,0.002855389431118965,-0.01312487277733162,0.008589832296734675
1782812038696533500,2.042533447265625,-0.01614800172448158,0.0031647385080810636,0.006202834412211086
1782812038706604300,2.052604248046875,-0.0005880290210247039,0.005537915646517649,-0.0067920941258082165
1782812038716675300,2.06267529296875,-0.007173252630233764,-0.0077331241358537224,0.0188057953574229
1782812038726746400,2.072746337890625,-0.014354688566923141,-0.02619822542998008,0.009569911108957604
1782812038736817400,2.0828173828125,-0.007024199548363685,-0.009172892881697044,-0.0022603781134588642
1782812038746888400,2.092888427734375,-0.00867138223350048,-0.002464910542499274,-0.0020958420513779853
1782812038756959500,2.10295947265625,-0.007473696881532668,-0.017272092117276042,0.008234417871630284
1782812038767030300,2.1130302734375,0.00823649794757366,-0.013312431238684802,0.0031390948934596962
1782812038777101300,2.123101318359375,-0.016304653590917588,0.006634177317470312,0.004397385575575754
1782812038787172400,2.13317236328125,-0.008822773402929305,-0.011807570500532164,0.011131630300614051
1782812038797243400,2.143243408203125,0.009882511588931083,-0.014993854120140895,-0.0059223757863044735
1782812038807314400,2.153314453125,-0.003735679396986961,-0.008931887200055643,0.01328660724426154
1782812038817385500,2.163385498046875,-0.002387187397480011,-0.009189761818107217,0.00513930368379224
1782812038827456300,2.173456298828125,-0.007176759761571884,-0.0254299170717597,0.008316034023766405
1782812038837528300,2.1835283203125,-0.0008896423161029815,-0.018848355857515705,-0.01604995274406392
1782812038847599400,2.193599365234375,-0.009418985730409621,-0.018571931802621112,-0.014774325051368213
1782812038857670400,2.20367041015625,-0.008968903875350952,-0.01912276148525998,0.00002363660391420126
1782812038867741400,2.213741455078125,0.0022539164066314697,-0.0035455545192118734,0.0022627846996765583
1782812038877812500,2.2238125,-0.0026847090393304824,-0.0069462480744812635,-0.002047913539712317
1782812038887883500,2.233883544921875,0.008685410758852959,0.005808512748824432,-0.004212685791589319
1782812038897954300,2.243954345703125,-0.0059796589314937585,-0.0037142256170045584,-0.016324404037580825
1782812038908025300,2.254025390625,-0.008826280534267424,-0.016376357987103983,-0.0042905322341946885
1782812038918096400,2.264096435546875,-0.00807926155924797,-0.014369676073500886,0.0028895154630066825
1782812038928167400,2.27416748046875,-0.008828618621826172,-0.017468692401610315,0.008909725600597449
1782812038938238500,2.284238525390625,0.01526186653971672,-0.002555410970700905,-0.0030606205464806407
1782812038948309500,2.2943095703125,-0.011223989325761794,-0.012431282756291328,-0.020898529852973295
1782812038958380300,2.30438037109375,-0.000301028773188591,-0.010440766526199876,-0.001405496583483182
1782812038968451300,2.314451416015625,-0.0176589908093214,0.0009709273913875221,0.0008957432633265852
1782812038978522400,2.3245224609375,0.0034393267989158626,-0.013683830967498943,0.0038845406826119866
1782812038988593400,2.334593505859375,-0.000602057546377182,-0.006389938499126583,-0.00814020253282506
1782812038998664400,2.34466455078125,-0.015267711758613585,-0.009889790713088587,0.0034997289163758976
1782812039008735500,2.354735595703125,-0.005690905117988586,-0.009673042689869179,-0.009239405079535207
1782812039018806300,2.36480615234375,0.0011924246549606323,-0.004300099213561043,0.002120129392552189
1782812039028877300,2.374877197265625,-0.0027010756522417067,-0.009497539992490783,0.011191470729070715
1782812039038948400,2.3849482421875,-0.010483400091528892,-0.015669661889318377,-0.0014735340181272476
1782812039049019400,2.395019287109375,-0.010036240845918655,-0.009582944120466709,-0.007857682097284123
1782812039059090400,2.40509033203125,0.001485270121693611,-0.00879276185715571,0.010816591268382034
1782812039069161500,2.415161376953125,0.007021276938915252,-0.009036343088373542,-0.004754601515410468
1782812039079232300,2.425232177734375,-0.0015098200410604476,-0.014939128258218987,0.005805530773871578
1782812039089303300,2.43530322265625,0.0005845218896865845,-0.012972513493523002,-0.004886808493756689
1782812039099374300,2.445374267578125,-0.008244096732139586,0.008871398317627609,0.01442136516154278
1782812039109445400,2.4554453125,0.002828501424193382,-0.012349212229717523,0.023743772349413484
1782812039119516400,2.465516357421875,-0.014380992051959036,-0.0009062463910318911,-0.003131110233115032
1782812039129587500,2.47558740234375,-0.021117022308707236,-0.005847319522406905,0.0038043881184887138
1782812039139658200,2.485658203125,-0.0033107319831848143,-0.0064252564076799894,0.01137847206799779
1782812039149730600,2.49573046875,-0.0009165303230285644,-0.014073898864164948,0.014928031475469469
1782812039159801300,2.50580126953125,0.0031231004565954205,-0.0061224832019768655,-0.007089273274363949
1782812039169872400,2.515872314453125,-0.005557049605250358,-0.010213725437829271,0.004332681742333807
1782812039179943400,2.525943359375,-0.00480710802078247,0.003119748588884249,0.0054838108391035345
1782812039190014500,2.536014404296875,-0.005705518165230751,-0.0027991383323911576,-0.008163597108144313
1782812039200085500,2.54608544921875,-0.016178396862745283,-0.0069501844640821216,0.007398407722194678
1782812039210156500,2.556156494140625,-0.005254267266392707,-0.010139208030048757,0.004668895993335172
1782812039220227300,2.566227294921875,-0.009594342297315596,0.013825358330039306,0.005895044821384363
1782812039230298400,2.57629833984375,-0.012438625812530517,-0.01588817261136137,-0.0070729249277617775
1782812039240369400,2.586369384765625,-0.01917348702549934,-0.007119814543100074,0.001554115840513259
1782812039250440400,2.5964404296875,-0.0060071314603090285,-0.003431974609522149,-0.004468350186245516
1782812039260511500,2.606511474609375,0.004766191488504409,-0.00641057942835614,0.00790714726219885
1782812039270582500,2.61658251953125,0.0007277297526597976,-0.010064389228168874,0.00007945844437927007
1782812039280653300,2.6266533203125,0.01509410875737667,0.006489024092582985,0.009783964851591736
1782812039290724400,2.636724365234375,0.0017746084570884704,0.0025563516856171187,-0.010258441362390293
1782812039300795400,2.64679541015625,-0.007203647768497467,-0.02366679812306538,-0.006414218990434892
1782812039310866400,2.656866455078125,0.003420622098445892,0.00373067442830652,0.00034984091755468395
1782812039320937500,2.6669375,0.01180149695277214,-0.01204295015898533,-0.005273095264448784
1782812039331008500,2.677008544921875,-0.00585281768143177,-0.02348522187792696,0.0030191240588901564
1782812039341079300,2.687079345703125,-0.000315057298541069,-0.009491776971984655,-0.0009332713952753692
1782812039351150300,2.697150390625,0.007913841864466666,0.006735418335394933,-0.014504983757808804
1782812039361221400,2.707221435546875,-0.0033095629394054413,-0.0022262977473437784,0.003605828772508539
1782812039371292400,2.71729248046875,0.0023760814815759657,-0.000510022748215124,-0.012851394164771773
1782812039381363500,2.727363525390625,-0.011840075397491455,-0.012146666261786595,0.005107406141608953
1782812039391434500,2.7374345703125,0.0070148471981286995,-0.01336196946883574,0.007316337195620872
1782812039401505500,2.747505615234375,-0.002563128486275673,0.0010858590079471468,0.005025970369274727
1782812039411576300,2.757576416015625,-0.010344283881783484,-0.01816289434400387,-0.0011819260938325895
1782812039421647400,2.7676474609375,-0.007051672077178954,-0.005457005030568689,-0.0025331534731201826
1782812039431718400,2.777718505859375,-0.00016600421667099,-0.00832982965367846,0.009199214633041993
1782812039441789400,2.78778955078125,-0.011987374913692474,-0.014327919291006401,0.00488075777888298
1782812039451860500,2.797860595703125,-0.003160509857535362,-0.028124617782142012,-0.00027349231229163707
1782812039461931500,2.807931640625,-0.004509586378931999,-0.012717808080092072,-0.0010094967029523104
1782812039472002300,2.818002197265625,-0.015432546931505203,0.009132177278818562,0.001440051873633638
1782812039482074400,2.828074462890625,-0.0034592005431652068,-0.004791590791242197,-0.0009439937186893075
1782812039492145400,2.8381455078125,-0.008848492366075515,-0.022787686334131283,0.0035466002654051406
1782812039502216400,2.848216552734375,-0.009149521139264106,-0.014885270045977086,0.0001084881760412827
1782812039512287500,2.85828759765625,0.01000292309820652,-0.005657779166521504,0.008256618286995216
1782812039522358500,2.868358642578125,0.007609305959939956,-0.0007372464996762573,0.0002551392382709309
1782812039532429600,2.8784296875,-0.02082183875441551,-0.005251317257480696,-0.013929398659826255
1782812039542500400,2.888500244140625,-0.00196633163690567,-0.008630557032767683,0.009018117878516203
1782812039552571400,2.8985712890625,-0.010194061756134033,-0.018225438186200333,0.013939527328195981
1782812039562642400,2.908642333984375,0.015095277801156043,-0.0065994530639611184,0.008641014494700356
1782812039572713500,2.91871337890625,0.0035737668335437773,-0.0019654822535347194,0.011110103455395436
1782812039582784500,2.928784423828125,-0.007799860095977783,0.007531829410092904,0.01088308976648841
1782812039592855600,2.93885546875,-0.020071312648057938,-0.007014116545766592,0.006296145568718202
1782812039602926300,2.94892626953125,-0.010943418818712233,-0.0038458983058109876,0.017334457862959243
1782812039612997400,2.958997314453125,-0.013187398353219032,-0.005106556758238003,0.013139061132888308
1782812039623068400,2.969068359375,-0.008400164076685906,-0.021668756173644214,0.0016234319167910142
1782812039633139500,2.979139404296875,-0.004508417335152626,-0.001796939019905403,-0.010458932370552792
1782812039643210500,2.98921044921875,-0.007054010164737701,-0.007807120953826233,0.0076887963703600685
1782812039653281500,2.999281494140625,-0.013490180692076682,-0.004513641499541699,-0.005656870417646132
1782812039663352300,3.009352294921875,0.0023708207845687863,0.00240662275031209,0.00011783367641037329
1782812039673423400,3.01942333984375,-0.000025134441256523132,-0.01273241199417971,-0.009305241423938423
1782812039683494400,3.029494384765625,-0.022321721923351287,-0.00023404621789231895,0.0011767042127321474
1782812039693565400,3.0395654296875,-0.01903027916252613,0.01162647831258364,-0.032497834747552405
1782812039703636500,3.049636474609375,0.0007207154899835586,-0.020510672179702667,-0.010174567037797533
1782812039713707500,3.05970751953125,0.0026677579045295712,0.003308960151206702,0.005387419526232406
1782812039723778600,3.069778564453125,0.0020715455770492553,-0.004430758122215047,-0.002280651433218736
1782812039733849300,3.079849365234375,0.022424597775936125,-0.0029547398860566318,-0.002390253854112234
1782812039743920400,3.08992041015625,0.0011760580420494078,-0.013752959814108907,-0.011165897896396926
1782812039753991400,3.099991455078125,-0.007052841120958328,-0.014570788136171176,-0.006199142334493808
1782812039764062500,3.1100625,-0.003909866920113563,-0.006387810474121943,0.007994439669873099
1782812039774133500,3.120133544921875,-0.0009165303230285644,-0.02226582701765001,-0.0004913340307655744
1782812039784204500,3.13020458984375,-0.009745733466744422,-0.010084390836581587,-0.015982963338901753
1782812039794275300,3.140275390625,-0.011390578064322471,-0.006994617260852828,-0.000326729470025748
1782812039804346400,3.150346435546875,-0.010043255108594894,-0.0238123988725245,0.004828965942852664
1782812039814417400,3.16041748046875,0.004470423412322998,-0.009525478312186897,0.000004612243035808205
1782812039824488400,3.170488525390625,-0.008399579554796218,-0.022906061149947345,0.01064452948697144
1782812039834559500,3.1805595703125,-0.009445289215445518,-0.0068657941162586205,0.002886928496987093
1782812039844631600,3.190631591796875,-0.014085808497667312,-0.012165827619982883,0.004316904217889532
1782812039854702600,3.20070263671875,-0.012738485541939735,-0.008288730458309874,0.008489226033049635
1782812039864773400,3.2107734375,-0.0037631519258022306,-0.00439739470873028,0.004091367816727143
1782812039874844400,3.220844482421875,-0.017082067704200742,-0.00030417971150018273,0.0005145573594374582
1782812039884915500,3.23091552734375,0.0005745850175619125,0.003766038002632558,0.011522424283064901
1782812039894986500,3.240986572265625,-0.009900047245621681,-0.026607463817996904,-0.0037078872077632693
1782812039905057500,3.2510576171875,-0.009452303478121756,-0.018163131806021554,-0.0017868971165036782
1782812039915128600,3.261128662109375,0.00012684125006198882,-0.01696637803581543,0.003938901218352839
1782812039925199400,3.271199462890625,0.005363572859764099,-0.016980022968677802,0.00040372652926016594
1782812039935270400,3.2812705078125,-0.008254618126153945,0.003054181672539562,0.0004985012737801298
1782812039945341400,3.291341552734375,-0.010799626433849335,0.0005350749910809099,-0.014681459136144256
1782812039955412500,3.30141259765625,-0.011699790143966673,-0.016956276766909285,0.0024328897027298805
1782812039965483500,3.3114833984375,-0.004966097974777222,-0.01200253595020622,0.01182613820368424
1782812039975554600,3.321554443359375,-0.009607201778888701,-0.006628971419390291,0.01745571875560563
1782812039985625300,3.331625244140625,-0.019633505752682686,-0.012587898090109228,0.0003457172982860356
1782812039995696400,3.3416962890625,0.0010158990442752838,-0.013775664836261421,0.0018611861954210326
1782812040005767400,3.351767333984375,0.002661328163743019,-0.011797450965316966,0.0005277821671916172
1782812040015838500,3.36183837890625,0.009995324313640594,-0.007245331485755741,0.005009366294345818
1782812040025909500,3.371909423828125,0.00715162532031536,-0.016636808154731987,0.00821362396206241
1782812040035980500,3.38198046875,0.006550736817717551,-0.018120662637474014,0.008349068643688224
1782812040046051300,3.39205126953125,0.0038578444719314575,-0.0011080525734461844,-0.008538417203328572
1782812040056122400,3.402122314453125,-0.005270633879303932,0.006422598659712821,0.011055583089450373
1782812040066193400,3.412193359375,-0.006467734709382057,-0.015415568397240712,-0.0030785306625068184
1782812040076264400,3.422264404296875,-0.009162380620837211,-0.01427803400098346,-0.005087536963936872
1782812040086335500,3.43233544921875,-0.018142974933981895,-0.010826998497964814,-0.004775429674307816
1782812040096406500,3.442406494140625,-0.011858195576071739,-0.011593891217233613,0.016349762241123243
1782812040106477300,3.452477294921875,-0.013651508733630179,-0.005605637987330556,0.013350397762050851
1782812040116548400,3.46254833984375,-0.006167874979972839,-0.004097060055285692,-0.0035042269949801265
1782812040126619400,3.472619384765625,0.008499532797932625,0.0013735168429091572,-0.01188308342215605
1782812040136690400,3.4826904296875,-0.003321837899088859,-0.010564922628831118,-0.012143748218915425
1782812040146761500,3.492761474609375,-0.000779167678952217,-0.005003753970889375,0.0028056776710320263
1782812040156832500,3.50283251953125,-0.013348141872882842,-0.012783192333346231,0.004253369428426959
1782812040166903300,3.5129033203125,0.016880407652258872,-0.015884126623906196,0.007440739893424324
1782812040176974300,3.522974365234375,-0.006912555867433548,-0.008504830027557909,0.004740755653148516
1782812040187045400,3.53304541015625,-0.004073533049225807,-0.004648958317004144,-0.0031728852819185704
1782812040197116400,3.543116455078125,0.005053191736340523,-0.014169924850855022,-0.002919463076698594
1782812040207187500,3.5531875,0.0004155950635671615,-0.01007724870974198,0.003544330676505342
1782812040217258500,3.563258544921875,0.0010147300004959105,-0.0005283895219676196,-0.006701520632370375
1782812040227329300,3.573329345703125,0.011339724659919738,0.0066234001951292155,0.00635394930371549
1782812040237400300,3.583400390625,0.0016115268498659134,-0.006096873836684971,-0.011775914986943825
1782812040247472400,3.593472412109375,0.0014583821147680282,-0.013520795026049017,0.0031874389636563135
1782812040257543400,3.60354345703125,-0.005574585261940956,-0.000641786768566817,-0.008968004259630106
1782812040267614500,3.613614501953125,-0.017545593562722204,-0.005718185850558802,-0.0035795709532452746
1782812040277685500,3.623685546875,0.0005588029265403748,-0.0023136746366973966,0.014587465276336297
1782812040287756500,3.633756591796875,-0.004531213688850402,-0.022533656774135304,0.007363678902108222
1782812040297827600,3.64382763671875,-0.0030348376512527465,-0.01819883330706507,0.007375871663400903
1782812040307898400,3.6538984375,-0.0004921674311161041,0.0034332623843103646,-0.007421464370796457
1782812040317969400,3.663969482421875,-0.0021399346381425857,-0.010130074875522404,-0.006365562109695747
1782812040328040400,3.67404052734375,-0.007528057417273521,-0.01124701400832273,-0.0030083286702400074
1782812040338111500,3.684111572265625,-0.007974632140994071,-0.009793874324252829,-0.0010667250492144376
1782812040348182500,3.6941826171875,-0.0051303486257791514,-0.006137105382373556,0.019025246794382108
1782812040358253600,3.704253662109375,0.004445288971066475,-0.012045251713925972,-0.004134496855689213
1782812040368324400,3.714324462890625,-0.005731821650266647,-0.010408261629240587,-0.00044044181045610454
1782812040378395400,3.7243955078125,-0.00483282698392868,-0.007769583688722923,0.01000766777198296
1782812040388466400,3.734466552734375,-0.003336450946331024,0.000761385427089408,0.011318197814701125
1782812040398537700,3.744537841796875,0.013722235882282257,-0.012705514854099601,-0.004290618999162689
1782812040408608800,3.75460888671875,-0.000793196204304695,-0.009629687605332582,0.0047969428197946395
1782812040418679800,3.7646796875,-0.010370002844929695,-0.0072592686795629555,0.004163206926942803
1782812040428750800,3.774750732421875,-0.007676525977253913,0.004738691560225561,0.003842386607895605
1782812040438822000,3.78482177734375,-0.006032265901565552,0.01365458660670556,-0.00504325486421585
1782812040448893000,3.794892822265625,-0.003937339448928833,-0.004644547003367915,-0.00818441156730987
1782812040458963700,3.804963623046875,0.002347439908981323,-0.0034824992203619327,0.012858887918060644
1782812040469034800,3.81503466796875,-0.00917465558052063,-0.010945829971507191,0.023034715331182815
1782812040479105800,3.825105712890625,-0.0063315411090850825,0.001604658717662096,0.014105755307152867
1782812040489176800,3.8351767578125,0.004891863694787025,-0.01487075746343471,-0.0033155268893111495
1782812040499247900,3.845247802734375,0.013718728750944136,-0.015177622322365641,-0.003965017473720945
1782812040509319000,3.85531884765625,-0.0031909049957990644,-0.00464663849575445,0.006028630906064063
1782812040519389700,3.8653896484375,0.0029448212802410125,-0.011297228091908617,-0.006667992822104133
1782812040529460700,3.875460693359375,-0.005584522134065628,-0.01261403717836365,0.010509018589975312
1782812040539531800,3.88553173828125,-0.020247838258743284,-0.016610997860040513,-0.013780295345606281
1782812040549602800,3.895602783203125,0.02105097133517265,-0.004814259280776605,0.008727099042688495
1782812040559673900,3.905673828125,0.003393149569630623,-0.028266903196508063,0.0034915730093838643
1782812040569745000,3.915744873046875,-0.0037900399327278136,-0.0033696682293433695,0.007110156232188455
1782812040579815700,3.925815673828125,-0.0022930793732404706,0.0009441307160072028,0.008248681575711816
1782812040589886700,3.93588671875,-0.005135609322786331,-0.0062589873295277355,0.001508020809618756
1782812040599957800,3.945957763671875,-0.005286415970325469,-0.015016568275447935,0.0017251524253282695
1782812040610028800,3.95602880859375,0.001595160236954689,-0.01893111137067899,0.005288982386747375
1782812040620099800,3.966099853515625,-0.00020224457383155822,-0.015824277062295004,0.01281205766822677
1782812040630171000,3.9761708984375,0.0033878888726234435,-0.007256391735887154,0.011434613568871281
1782812040640242000,3.986241943359375,-0.010827098962664603,-0.00010056516448967158,0.0005145619260147214
1782812040650312700,3.996312744140625,0.002042319482564926,0.0030295038890093564,-0.005594888264453039
1782812040660383700,4.0063837890625,-0.005590367352962493,0.0029533333802595732,0.00722247119997628
1782812040670454800,4.016454833984375,-0.011129296779632567,-0.008739981357147916,0.003468502661050297
1782812040680525800,4.02652587890625,-0.007238134559988975,-0.012939478873601182,0.007940565474610774
1782812040690598000,4.036597900390625,-0.01696457880437374,-0.0068171600684057915,-0.0038879701821366323
1782812040700669000,4.0466689453125,0.002039396873116493,-0.004149182968167588,-0.0035217443853616712
1782812040710740000,4.056739990234375,-0.01352116035223007,-0.010553844112390652,-0.007008887814800254
1782812040720810800,4.066810791015625,0.00009586158990859984,-0.014902367311250417,0.006647379292338155
1782812040730881800,4.0768818359375,-0.0031949966490268707,-0.0016574392176698892,0.010769053199072369
1782812040740952800,4.086952880859375,-0.005139116454124451,-0.014062144494289532,-0.009336239350400864
1782812040751023900,4.09702392578125,-0.0034913492470979688,-0.008471183486282825,0.002285316191893071
1782812040761095000,4.107094970703125,-0.006631985360383987,-0.006913633579667657,0.007716465261997655
1782812040771166000,4.117166015625,-0.007976970228552817,-0.004199789777398109,0.0015505036778980866
1782812040781236700,4.12723681640625,-0.012616320466995238,0.0022706574788782744,0.014509413337754086
1782812040791307800,4.137307861328125,-0.004086977052688599,-0.0050762712178286165,-0.01573858980652876
1782812040801378800,4.14737890625,-0.004833996027708053,-0.012899548722011968,-0.01778582749280613
1782812040811449900,4.157449951171875,-0.010968553259968757,0.002037688973220065,-0.004692491498054005
1782812040821521000,4.16752099609375,0.0020499182671308517,-0.007994387154234573,0.0047754068414215
1782812040831592000,4.177592041015625,0.00369651643037796,-0.01118703658254817,-0.013870339116081595
1782812040841662700,4.187662841796875,-0.009023264411091804,-0.01624253900698386,-0.0136786524688825
1782812040851733800,4.197733642578125,-0.016806757894158364,-0.011890864869812503,-0.004842722756857983
1782812040861804800,4.2078046875,-0.011270166555047034,-0.010237480772752314,0.002605889915768057
1782812040871875800,4.217875732421875,-0.0028927988320589064,-0.00514505300456658,-0.004832105464721098
1782812040881947000,4.22794677734375,-0.013815174862742424,-0.007299829018814489,-0.0010510297231609
1782812040892018000,4.238017822265625,-0.004088146096467972,-0.010361015820875763,-0.0023422979429829865
1782812040902088700,4.248088623046875,-0.0018453356057405472,-0.00768544906922616,-0.015179234324139541
1782812040912159700,4.25815966796875,-0.003939677536487579,-0.0030741010825615376,0.008035751211084425
1782812040922230800,4.268230712890625,-0.0003477905243635177,-0.013395561211183666,0.006636428640061058
1782812040932301800,4.2783017578125,-0.0030436054795980453,-0.008333510314952582,0.0020070015740115193
1782812040942372900,4.288372802734375,-0.002896305963397026,-0.00023759901500307022,-0.00013867325175087898
1782812040952444000,4.29844384765625,-0.00903086319565773,-0.008038472891133278,0.00007645363654009998
1782812040962514700,4.3085146484375,-0.007984569013118743,-0.0021217870600987224,0.0076621138594113285
1782812040972585700,4.318585693359375,0.011769348248839377,0.003900541969342157,-0.005279479339462705
1782812040982656800,4.32865673828125,-0.009479776006937026,-0.0003874010155443102,0.0007431191180367023
1782812040992727800,4.338727783203125,-0.0011018237620592116,-0.012552105257520452,0.013908798829792067
1782812041002798800,4.348798828125,-0.0015513210952281952,-0.01849157830909826,0.0042485608225688335
1782812041012870000,4.358869873046875,0.0027881694138050077,-0.016578511229390278,0.010613054353184997
1782812041022940700,4.368940673828125,-0.00035363574326038356,-0.010214346492337063,0.009945831749262288
1782812041033011700,4.37901171875,-0.00663841510117054,-0.010539733388647436,0.019719467003084717
1782812041043082800,4.389082763671875,-0.010679214924573898,-0.0016411456699948757,-0.0003196284423815086
1782812041053153800,4.39915380859375,-0.008282090654969215,-0.01109899297291413,-0.002660346349631436
1782812041063224800,4.409224853515625,-0.011574702459573745,-0.009845677576726303,-0.0009437927892897277
1782812041073296000,4.4192958984375,-0.0012508768439292908,0.005492596933757886,-0.005178197222342714
1782812041083366700,4.42936669921875,-0.010080079987645148,-0.001622724097315222,-0.00652034167945385
1782812041093437700,4.439437744140625,-0.0005032733470201492,0.006141461897082626,-0.007757998282206244
1782812041103508700,4.4495087890625,-0.00948269861638546,-0.0024411917401943356,-0.0007255103961098939
1782812041113579800,4.459579833984375,0.008474982878565789,-0.0007387717364821583,0.012589112799661233
1782812041123650800,4.46965087890625,-0.00783610045313835,0.004713730648905038,-0.00326690654119011
1782812041133721900,4.479721923828125,0.01670446656346321,0.00605325389066711,-0.004558581186388619
1782812041143792600,4.489792724609375,0.007127659922838211,-0.010674767078319564,0.0067732158954022445
1782812041153863700,4.49986376953125,-0.012027706924080847,0.0021774079711642117,-0.0031928046919405457
1782812041163934700,4.509934814453125,0.0035351883888244625,-0.008338451351551339,-0.002327529632113874
1782812041174005800,4.520005859375,-0.006341477981209755,-0.0049863735778257244,0.018533782616164535
1782812041184076800,4.530076904296875,-0.01876315265893936,-0.00895167874591425,0.0017704894043970851
1782812041194147800,4.54014794921875,-0.00005786766707897186,-0.01526362010538578,-0.0066743814636953174
1782812041204220000,4.550219970703125,0.004281622841954231,0.00045991826248355206,-0.0023308130011660978
1782812041214291000,4.560291015625,-0.009634674307703971,-0.010213707171520217,0.0017786087787710128
1782812041224361700,4.57036181640625,0.0005400982260704041,-0.004497265753475949,-0.0014535552426008507
1782812041234432800,4.580432861328125,-0.005445990446209907,-0.0004201159750577062,0.010190942783863283
1782812041244503800,4.59050390625,-0.015322656816244125,-0.006375928240083158,0.018811722774710504
1782812041254574800,4.600574951171875,-0.01502396613061428,-0.013974137417273595,0.006809300988935865
1782812041264646000,4.61064599609375,-0.00799041423201561,-0.002884094935795292,0.014193205261742696
1782812041274717000,4.620717041015625,-0.011581132200360297,-0.004904184320243075,-0.009171701005031355
1782812041284787700,4.63078759765625,-0.006644260320067406,-0.001738678627181798,-0.01145003946686629
1782812041294858800,4.640858642578125,-0.0005091185659170151,-0.003960665525589138,0.0017668270094320178
1782812041304929800,4.6509296875,0.002484218031167984,-0.004257365183532238,0.0057835244380403305
1782812041315000800,4.661000732421875,-0.01577156962752342,-0.004127674389258026,0.00700406550921034
1782812041325072000,4.67107177734375,-0.0027519290566444393,-0.012269087065057829,-0.01115037610027939
1782812041335143000,4.681142822265625,-0.005893149691820144,0.0057749210064765065,0.005187768768286332
1782812041345213700,4.691213623046875,-0.000654079994559288,0.0012175316967535763,-0.0036716240177163853
1782812041355284700,4.70128466796875,-0.0034971944659948346,-0.017666744857514276,0.012180527432193047
1782812041365355800,4.711355712890625,-0.006940612918138503,-0.027867501215916125,0.012805796890798955
1782812041375426800,4.7214267578125,0.0018874211817979812,-0.008689027488045394,0.00930138266615104
1782812041385497900,4.731497802734375,0.0006903203517198563,-0.004491895458614454,0.006465355522627942
1782812041395569000,4.74156884765625,-0.019060089778900145,-0.013869480599556118,0.00518386891130358
1782812041405639400,4.751639404296875,-0.010383446848392486,0.002767391487257555,0.0003342506227781996
1782812041415710500,4.76171044921875,-0.009932780471444129,-0.0002182823931798339,0.002920531655778177
1782812041425781500,4.771781494140625,-0.017114800930023193,0.0016051610411610454,-0.0055724755032453685
1782812041435852500,4.7818525390625,-0.01516600494980812,-0.005210930448165163,0.0027526231763884425
1782812041445923600,4.791923583984375,-0.0000526069700717926,-0.01285116126933135,0.00990267759412527
1782812041455994400,4.801994384765625,-0.013369184660911559,-0.01980170192644,0.0017809879655251279
1782812041466065400,4.8120654296875,-0.00917816271185875,-0.005939527850504964,-0.006676486655813642
1782812041476136400,4.822136474609375,-0.012020108139514922,-0.002256628953525796,0.004994524918240495
1782812041486207500,4.83220751953125,-0.001995557731389999,-0.0023422705435194075,0.021263659671205096
1782812041496278500,4.842278564453125,-0.007681786674261093,0.0037649876898620273,-0.008504638231312856
1782812041506349600,4.852349609375,-0.0012479542344808578,-0.0012582472996320575,0.002453758960822597
1782812041516420400,4.86242041015625,-0.0007990414232015609,-0.008129914034251123,-0.0018419883046066387
1782812041526491400,4.872491455078125,-0.004091068705916404,-0.0042023013948928566,-0.003255229803128168
1782812041536562400,4.8825625,0.0005482815325260162,-0.001522798253642395,0.005433108131750486
1782812041546633500,4.892633544921875,0.0030897827088832855,-0.014095571839855983,0.015321837115625384
1782812041556704500,4.90270458984375,-0.002746083837747574,-0.012141021972289308,0.004258244249655399
1782812041566775600,4.912775634765625,0.0018926818788051604,-0.008259705293225124,-0.003993706995376851
1782812041576846300,4.922846435546875,0.006531447595357894,0.0005566018362995237,0.0010556647990830241
1782812041586917400,4.93291748046875,-0.005590367352962493,-0.0010302746294997632,-0.0006447185111697763
1782812041596988400,4.942988525390625,-0.014119710767269134,-0.0022504001421388238,0.005110826507979073
1782812041607059500,4.9530595703125,-0.008134791138768195,-0.0007148976705502718,0.00538002167106606
1782812041617130500,4.963130615234375,0.0051817865520715715,-0.017404385860590264,0.008531891564419492
1782812041627201500,4.973201416015625,-0.012923778980970382,-0.007239833326730877,-0.006766247298498638
1782812041637272300,4.983272216796875,0.0047357963502407075,-0.0067430536525789645,-0.011762338552740401
1782812041647343400,4.99334326171875,0.0068324763685464855,-0.009086255777860059,0.010019691569916903
1782812041657414400,5.003414306640625,-0.010074819290637969,-0.0035277540010400115,0.018668174701731186
1782812041667485400,5.0134853515625,-0.007378419813513755,-0.00656048189359717,-0.0003535124456742778
1782812041677556500,5.023556396484375,0.00040039749443531033,-0.0029556714678183197,-0.005191851288359612
1782812041687627500,5.03362744140625,-0.009025017976760863,-0.0029080694664269683,0.007625912318157497
1782812041697698300,5.0436982421875,-0.015907178705930707,-0.007898516431171447,-0.002535142217518296
1782812041707769300,5.053769287109375,0.005939326921105385,-0.0021654983376618473,0.0059557346332119775
1782812041717840400,5.06384033203125,-0.006928337958455085,-0.01255418761675246,-0.0011839079883648083
1782812041727911400,5.073911376953125,-0.004086392530798912,-0.008915073062572628,-0.010561668942531105
1782812041737982500,5.083982421875,0.0027981062859296795,-0.003880229833675548,-0.0014814341967925428
1782812041748053500,5.094053466796875,-0.012761866417527199,-0.018807685920409857,0.012108115216530858
1782812041758124300,5.104124267578125,-0.015004092386364937,-0.008012142006633803,0.0003084722941275686
1782812041768195300,5.1141953125,-0.006323942324519157,-0.0035843156270217147,-0.0026331021496793254
1782812041778266400,5.124266357421875,-0.01186111818552017,0.012609059609146787,0.0011889061071793548
1782812041788338400,5.13433837890625,-0.0010877952367067335,-0.01666868286402896,-0.0010427117026760241
1782812041798409500,5.144409423828125,0.002353285127878189,-0.00885810044463724,-0.0044305754591245205
1782812041808480500,5.15448046875,-0.00976677625477314,-0.008544203056721017,-0.0035385539562674236
1782812041818551600,5.164551513671875,-0.0016840075641870497,-0.013612683693738654,0.005639229729678482
1782812041828622300,5.174622314453125,0.004001636856794357,0.002578581783734262,0.0024615792243857866
1782812041838693400,5.184693359375,0.008042436680197716,-0.004975295061385259,0.0072475257261306976
1782812041848764400,5.194764404296875,-0.020538345637917517,-0.007092332881130278,-0.0074381300945184185
1782812041858835500,5.20483544921875,-0.015600304713845253,-0.01128002122878097,-0.0002586737690726295
1782812041868906500,5.214906494140625,-0.013356325179338454,-0.002276931956037879,-0.008910412870475556
1782812041878977500,5.2249775390625,0.00041091888844966884,0.0020264095273800193,0.011629403205320705
1782812041889048300,5.23504833984375,0.0032540333598852157,-0.002418112258706242,0.016957630757067816
1782812041899119400,5.245119384765625,-0.01111176112294197,-0.0014677161986939608,0.0061318606683867976
1782812041909190400,5.2551904296875,0.004748071309924125,0.0006026055356487632,-0.0031893957420135845
1782812041919261400,5.265261474609375,0.007292495095729827,-0.0062675907610915595,-0.012924763078370597
1782812041929332500,5.27533251953125,-0.012009586745500563,-0.0021730697227641937,-0.010445652763871476
1782812041939403500,5.285403564453125,-0.017995675417780875,-0.009041950845252722,-0.0021984416260384023
1782812041949474300,5.295474365234375,-0.0051256724506616586,0.00015209442232735454,-0.014411357507470529
1782812041960801300,5.30680126953125,-0.005123918884992599,0.000004557444108650088,-0.01434166240527993
1782812041970872300,5.316872314453125,-0.0003372691303491592,0.004402143949083984,-0.004164391953742597
1782812041980943400,5.326943359375,-0.005274141010642051,-0.0014570212747436015,0.010697538315842393
1782812041991014400,5.337014404296875,-0.000037409400939941404,-0.0005281520599499345,0.007998150013899431
1782812042001085400,5.34708544921875,0.002805120548605919,-0.004419661339465529,0.007352287575125229
1782812042011156500,5.357156494140625,-0.007818564796447753,0.0013579996133688836,-0.011775517694721929
1782812042021227300,5.367227294921875,-0.004224924218654632,-0.0008596033708658069,-0.0016630081586423329
1782812042031298300,5.37729833984375,-0.001979191118478775,-0.012920089186541736,0.001134908614330925
1782812042041369300,5.387369384765625,0.0031079028874635693,-0.010799069311423227,0.002393786101625301
1782812042051440400,5.3974404296875,-0.007066869646310806,0.011317110969312488,-0.005131588451506104
1782812042061511400,5.407511474609375,0.00310439575612545,-0.004273558266507461,0.015007802730391267
1782812042071582500,5.41758251953125,-0.013357494223117827,-0.00865092396736145,-0.0021540522117516957
1782812042081653200,5.4276533203125,-0.01799509089589119,-0.0004731522033922374,-0.00581390130999498
1782812042091724300,5.437724365234375,-0.016048633003234863,-0.005057584783667698,-0.0011240881095058283
1782812042101795300,5.44779541015625,0.0005611410140991211,-0.0047569670024327935,-0.0033526326128630896
1782812042111866400,5.457866455078125,-0.010662263789772987,-0.0017339202536735682,-0.004746210429689381
1782812042121937400,5.4679375,-0.005874444991350173,-0.005710139541421085,-0.0002883884873241186
1782812042132008400,5.478008544921875,0.013426467806100845,-0.020952470263605937,-0.009702042738778982
1782812042142079200,5.488079345703125,0.0019008651852607725,-0.022740851517720147,-0.00484592392751947
1782812042152150300,5.498150390625,-0.008872457763552666,-0.005362431215448305,0.016067940491903573
1782812042162221300,5.50822119140625,-0.012464344775676726,-0.009510189411509782,0.012814694866596255
1782812042172292400,5.518292236328125,0.009230769681930541,-0.020137838545627892,0.0037430247365147803
1782812042182363400,5.52836328125,-0.0033405425995588303,0.005239763817004859,0.008447517199616414
1782812042192434400,5.538434326171875,-0.009625906479358673,0.0009269147197250277,-0.008692612251196987
1782812042202505500,5.54850537109375,-0.004687865555286407,-0.009254123158054425,0.005703769166138954
1782812042212576500,5.558576416015625,0.0035381109982728955,0.0011659019742161034,-0.010352044779842253
1782812042222647600,5.5686474609375,-0.00020575170516967773,0.0006317676980514079,-0.008363088035886175
1782812042232718600,5.578718505859375,0.0005418517917394638,-0.013813165568746625,0.011885154364944901
1782812042242789600,5.58878955078125,-0.004694879817962646,-0.0017010865631513297,0.0060330308032571335
1782812042252860700,5.598860595703125,-0.034467502269148825,-0.0006983849271666258,-0.009663617274397983
1782812042262931500,5.608931396484375,-0.048235330858826635,-0.002460206967918202,-0.003202474419295322
1782812042273002500,5.61900244140625,0.07177110474705696,0.03077267547235824,0.031192917028290683
1782812042283073500,5.629073486328125,-0.015318565163016318,-0.016191018882300703,-0.011685722802707459
1782812042293144600,5.63914453125,0.000841126999258995,0.012151707763085141,-0.009914555261586792
1782812042303215600,5.649215576171875,-0.008138298270106314,0.0072847775801550595,-0.00429391378465807
1782812042313286700,5.65928662109375,0.0030851065337657926,-0.004895699619688093,-0.00007952465974958613
1782812042323357400,5.669357421875,-0.0012537994533777237,-0.018484043456614016,0.007663490682456176
1782812042333428500,5.679428466796875,-0.01756371374130249,0.0033082203656900674,-0.011135719670553225
1782812042343499500,5.68949951171875,-0.009334814578294753,-0.007665757988067344,-0.0030623307296657
1782812042353572400,5.699572265625,-0.004548164823651313,-0.0010065192945767193,-0.010350654257065616
