time,seconds_elapsed,z,y,x
1782811790593966800,0.077966796875,0.13928231596946716,0.2331845462322235,-0.20363755524158478
1782811790604038000,0.088037841796875,0.13539722561836243,0.18445178866386414,-0.27547577023506165
1782811790614109700,0.098109619140625,0.11696389317512512,0.13760092854499817,-0.34015730023384094
1782811790624180700,0.1081806640625,0.10297367721796036,0.1331731230020523,-0.37865379452705383
1782811790634252800,0.118252685546875,0.09127973765134811,0.10481233894824982,-0.3971118927001953
1782811790644324900,0.128324951171875,0.09230468422174454,0.07134344428777695,-0.41434311866760254
1782811790654396000,0.13839599609375,0.11337961256504059,0.04751401022076607,-0.4124174118041992
1782811790664467700,0.1484677734375,0.1509360522031784,0.059237513691186905,-0.37894973158836365
1782811790674538800,0.158538818359375,0.19034363329410553,0.08789659291505814,-0.3193468451499939
1782811790684610800,0.16861083984375,0.23505054414272308,0.10571160912513733,-0.22964678704738617
1782811790694681900,0.178681884765625,0.2530039846897125,0.1217249259352684,-0.13757385313510895
1782811790704754000,0.18875390625,0.23054520785808563,0.12298908084630966,-0.060865238308906555
1782811790714825000,0.198824951171875,0.17804445326328278,0.13066831231117249,0.003781132632866502
1782811790724897000,0.20889697265625,0.1198921725153923,0.17210686206817627,0.0825931504368782
1782811790734968000,0.218968017578125,0.06100248545408249,0.2997886538505554,0.1897350549697876
1782811790745040000,0.229039794921875,0.013074001297354698,0.5060284733772278,0.3001459538936615
1782811790755110700,0.239110595703125,-0.01423564925789833,0.7264891862869263,0.4002763032913208
1782811790765182700,0.2491826171875,-0.000031706527806818485,0.9100201725959778,0.4810723662376404
1782811790775253800,0.259253662109375,0.06507007032632828,1.0018001794815063,0.5459946990013123
1782811790785325800,0.269325927734375,0.15148234367370605,0.9538047909736633,0.5836428999900818
1782811790795397600,0.279397705078125,0.21766670048236847,0.8046150207519531,0.6051236987113953
1782811790805468700,0.28946875,0.2824668884277344,0.6805927753448486,0.6179772019386292
1782811790815540700,0.299540771484375,0.37923362851142883,0.6369659304618835,0.6192049384117126
1782811790825611800,0.30961181640625,0.4881201386451721,0.6633951663970947,0.5811139941215515
1782811790835683800,0.319683837890625,0.5634183883666992,0.6986898183822632,0.48302575945854187
1782811790845755000,0.3297548828125,0.5758031606674194,0.7027120590209961,0.31262239813804626
1782811790855827000,0.339826904296875,0.5280739665031433,0.700179398059845,0.12815216183662415
1782811790865898000,0.34989794921875,0.4759800434112549,0.7217996716499329,-0.012138422578573227
1782811790875969800,0.3599697265625,0.44766104221343994,0.7026832103729248,-0.05000750720500946
1782811790886040800,0.370040771484375,0.41311535239219666,0.6079374551773071,0.029113933444023132
1782811790896113000,0.38011279296875,0.3730033338069916,0.49267610907554626,0.22402030229568481
1782811790906184000,0.390183837890625,0.3174220323562622,0.37561124563217163,0.4881286919116974
1782811790916256000,0.400256103515625,0.25858667492866516,0.23958337306976318,0.720809280872345
1782811790926326800,0.410326904296875,0.16456183791160583,0.08780711144208908,0.8379052877426147
1782811790936398800,0.42039892578125,0.006173530127853155,-0.10358495265245438,0.7980409860610962
1782811790946470700,0.430470703125,-0.20037631690502167,-0.3731340169906616,0.5589560270309448
1782811790956541700,0.440541748046875,-0.4555897116661072,-0.6385992765426636,0.1250665932893753
1782811790966613800,0.45061376953125,-0.8222392201423645,-0.905538022518158,-0.478547066450119
1782811790976684800,0.460684814453125,-1.2487438917160034,-1.1709717512130737,-1.1747769117355347
1782811790986756900,0.4707568359375,-1.6188186407089233,-1.1893924474716187,-1.7857166528701782
1782811790996828000,0.480827880859375,-1.8244458436965942,-0.8229066133499146,-2.2340893745422363
1782811791006899700,0.490899658203125,-1.853175163269043,-0.4293612539768219,-2.535806655883789
1782811791016970800,0.500970703125,-1.722029447555542,-0.08942072093486786,-2.6709370613098145
1782811791027042800,0.511042724609375,-1.4584463834762573,0.3159651756286621,-2.573988437652588
1782811791037113900,0.52111376953125,-1.1817444562911987,0.7873454689979553,-2.2852532863616943
1782811791047186000,0.53118603515625,-0.9898435473442078,1.1232316493988037,-1.9759960174560547
1782811791057257000,0.541257080078125,-0.9428064823150635,1.034603238105774,-1.7139627933502197
1782811791067329000,0.5513291015625,-0.9770519137382507,0.6642115712165833,-1.4458304643630981
1782811791077400800,0.56140087890625,-0.9850821495056152,0.337566077709198,-1.1070648431777954
1782811791087471900,0.571471923828125,-0.9695906043052673,0.18915081024169922,-0.7221882343292236
1782811791097544000,0.5815439453125,-0.9724734425544739,0.08485715836286545,-0.3639265298843384
1782811791107614700,0.59161474609375,-0.996062159538269,-0.03936533257365227,-0.04997071996331215
1782811791117686800,0.601686767578125,-0.95369952917099,-0.1325131207704544,0.16697490215301514
1782811791127757800,0.6117578125,-0.822616696357727,-0.1516057699918747,0.2916571795940399
1782811791137830000,0.621829833984375,-0.6412290334701538,-0.058329612016677856,0.33224162459373474
1782811791147901400,0.6319013671875,-0.43093860149383545,0.1120033785700798,0.3098859488964081
1782811791157973500,0.641973388671875,-0.24872645735740662,0.3236847519874573,0.2574256658554077
1782811791168044500,0.65204443359375,-0.09406333416700363,0.47135284543037415,0.23844324052333832
1782811791178116600,0.66211669921875,0.07394590973854065,0.49087169766426086,0.2607554793357849
1782811791188187600,0.672187744140625,0.2690504491329193,0.3350154757499695,0.2980884313583374
1782811791198259700,0.682259765625,0.4471786320209503,0.1605810821056366,0.3459821939468384
1782811791208330800,0.692330810546875,0.6151590943336487,-0.012215148657560349,0.3925851583480835
1782811791218402600,0.702402587890625,0.7474348545074463,-0.22148394584655762,0.46383243799209595
1782811791228474600,0.712474609375,0.8428574800491333,-0.4574616551399231,0.5846906304359436
1782811791238545400,0.72254541015625,0.9212508201599121,-0.6218708753585815,0.760323703289032
1782811791248617500,0.732617431640625,1.0074068307876587,-0.6308925747871399,0.9691044092178345
1782811791258688500,0.7426884765625,1.103018879890442,-0.45455560088157654,1.1710819005966187
1782811791268760300,0.75276025390625,1.1852459907531738,-0.20013290643692017,1.2907912731170654
1782811791278831400,0.762831298828125,1.2412368059158325,-0.014177420176565647,1.2979387044906616
1782811791288903400,0.7729033203125,1.3154511451721191,0.05595427751541138,1.2500454187393188
1782811791298974500,0.782974365234375,1.4294261932373047,0.0634595975279808,1.259534239768982
1782811791309046500,0.793046630859375,1.5614259243011475,0.11618253588676453,1.3262391090393066
1782811791319117600,0.80311767578125,1.732043743133545,0.28454065322875977,1.4229060411453247
1782811791329189600,0.813189697265625,1.8655685186386108,0.5964977741241455,1.518779993057251
1782811791339260700,0.8232607421875,1.8519203662872314,0.9619468450546265,1.5778148174285889
1782811791349332500,0.83333251953125,1.626360297203064,1.2973536252975464,1.5618231296539307
1782811791359404500,0.843404541015625,1.3329297304153442,1.606207013130188,1.4099798202514648
1782811791369475600,0.8534755859375,1.178479790687561,1.9654282331466675,1.1418328285217285
1782811791379547600,0.863547607421875,1.1776611804962158,2.355083703994751,0.9105875492095947
1782811791389618400,0.873618408203125,1.1779797077178955,2.4072251319885254,0.795646607875824
1782811791399690800,0.883690673828125,0.9778181314468384,1.838320255279541,0.7466393709182739
1782811791409761500,0.893761474609375,0.6335557699203491,0.8464891910552979,0.6317532658576965
1782811791419833300,0.903833251953125,0.3146510124206543,-0.0749104768037796,0.4176689088344574
1782811791429904400,0.913904296875,0.06839928776025772,-0.6895158886909485,0.11951471120119095
1782811791439976400,0.9239765625,-0.17940466105937958,-1.1968872547149658,-0.21618685126304626
1782811791450047500,0.934047607421875,-0.42302024364471436,-1.547251582145691,-0.5427020788192749
1782811791460119600,0.94411962890625,-0.5585988163948059,-1.604972243309021,-0.8305749297142029
1782811791470190600,0.954190673828125,-0.6274553537368774,-1.3794307708740234,-1.0518478155136108
1782811791480262400,0.964262451171875,-0.6891162991523743,-1.0513561964035034,-1.2042030096054077
1782811791490333400,0.97433349609375,-0.73871248960495,-0.7415058016777039,-1.269360899925232
1782811791500405500,0.984405517578125,-0.7871668338775635,-0.4888276755809784,-1.1962847709655762
1782811791510476500,0.9944765625,-0.8302276134490967,-0.3031078279018402,-0.995185136795044
1782811791520548600,1.004548583984375,-0.8468534350395203,-0.19903574883937836,-0.7722452878952026
1782811791530619600,1.01461962890625,-0.8234990239143372,-0.27325278520584106,-0.6229863166809082
1782811791540691700,1.024691650390625,-0.8006171584129333,-0.5465237498283386,-0.5354833602905273
1782811791550763500,1.034763427734375,-0.7775841355323792,-0.8364223837852478,-0.4596940279006958
1782811791560834300,1.044834228515625,-0.775641918182373,-1.0099472999572754,-0.3998323082923889
1782811791570906400,1.05490625,-0.7815632224082947,-1.0878232717514038,-0.3850623667240143
1782811791580977400,1.064977294921875,-0.7849851250648499,-1.1870512962341309,-0.3861262798309326
1782811791591049500,1.075049560546875,-0.7479071021080017,-1.2894054651260376,-0.37623000144958496
1782811791601120500,1.08512060546875,-0.6508034467697144,-1.3912982940673828,-0.33866265416145325
1782811791611192600,1.095192626953125,-0.5397452116012573,-1.4647932052612305,-0.2478174865245819
1782811791621263600,1.105263671875,-0.42646878957748413,-1.4811203479766846,-0.07854856550693512
1782811791631335400,1.11533544921875,-0.33938419818878174,-1.4592344760894775,0.14253507554531097
1782811791641406500,1.125406494140625,-0.29364895820617676,-1.4978265762329102,0.3592977225780487
1782811791651478500,1.135478515625,-0.3433290719985962,-1.4789061546325684,0.5283701419830322
1782811791661549600,1.145549560546875,-0.4201796352863312,-1.4321181774139404,0.5947129726409912
1782811791671621600,1.15562158203125,-0.4231624901294708,-1.3250676393508911,0.5497055053710938
1782811791681692700,1.165692626953125,-0.32080575823783875,-1.0263959169387817,0.4673190414905548
1782811791691764500,1.175764404296875,-0.15351788699626923,-0.6320415735244751,0.3788820803165436
1782811791701836500,1.18583642578125,0.02070584148168564,-0.20673847198486328,0.32276129722595215
1782811791711907600,1.195907470703125,0.2014182060956955,0.17328572273254395,0.3090894818305969
1782811791721979600,1.205979736328125,0.3705022931098938,0.4380404055118561,0.3392958641052246
1782811791732050400,1.216050537109375,0.48852163553237915,0.6530060768127441,0.42838171124458313
1782811791742122500,1.22612255859375,0.5468501448631287,0.7885652184486389,0.5794036984443665
1782811791752193500,1.236193603515625,0.5718998312950134,0.7999318242073059,0.7569034695625305
1782811791762265300,1.246265380859375,0.5982142686843872,0.7671509981155396,0.8995718955993652
1782811791772336400,1.25633642578125,0.6188051104545593,0.7891947627067566,0.9772568941116333
1782811791782408400,1.266408447265625,0.6369446516036987,0.8340381383895874,0.9947818517684937
1782811791792479500,1.2764794921875,0.626871645450592,0.8377598524093628,0.9540548920631409
1782811791802551600,1.286551513671875,0.6040430068969727,0.7668630480766296,0.8622159957885742
1782811791812622600,1.29662255859375,0.573987603187561,0.6055748462677002,0.7441996335983276
1782811791822694700,1.306694580078125,0.495688796043396,0.37532028555870056,0.6610757112503052
1782811791832765700,1.316765625,0.4214814305305481,0.24431458115577698,0.6406905651092529
1782811791842837500,1.32683740234375,0.4242364764213562,0.28210243582725525,0.6856417655944824
1782811791852908500,1.336908447265625,0.426223486661911,0.38009175658226013,0.7908170223236084
1782811791862980600,1.346980712890625,0.32076311111450195,0.4405372440814972,0.9601024389266968
1782811791873052700,1.357052734375,0.1618402898311615,0.5029582977294922,1.1732674837112427
1782811791883123500,1.36712353515625,0.13369974493980408,0.6015282869338989,1.3895896673202515
1782811791893195500,1.377195556640625,0.26626089215278625,0.636843204498291,1.5800303220748901
1782811791903266300,1.387266357421875,0.42505985498428345,0.5749028921127319,1.6816447973251343
1782811791913338400,1.39733837890625,0.3891359269618988,0.3398039937019348,1.6113542318344116
1782811791923409400,1.407409423828125,0.18108901381492615,0.008963752537965775,1.2851721048355103
1782811791933481500,1.4174814453125,-0.0063958438113331795,-0.31620579957962036,0.862002432346344
1782811791943552500,1.427552490234375,-0.12869033217430115,-0.5925068855285645,0.5199345946311951
1782811791953624600,1.43762451171875,-0.2624647319316864,-0.8008515238761902,0.31133872270584106
1782811791963695600,1.447695556640625,-0.3966774046421051,-0.8880277276039124,0.22485603392124176
1782811791973767400,1.457767333984375,-0.5056350827217102,-0.810164749622345,0.19829024374485016
1782811791983838500,1.46783837890625,-0.6221715211868286,-0.6174978613853455,0.14030204713344574
1782811791993910500,1.47791064453125,-0.7639977931976318,-0.48532095551490784,-0.02445494756102562
1782811792003981600,1.487981689453125,-0.9049016833305359,-0.445669949054718,-0.354662150144577
1782811792014053600,1.4980537109375,-0.9767783284187317,-0.40126869082450867,-0.8332796096801758
1782811792024124700,1.508124755859375,-1.0300967693328857,-0.4802719056606293,-1.3586382865905762
1782811792034196700,1.51819677734375,-1.115796446800232,-0.8301257491111755,-1.7948334217071533
1782811792044267500,1.528267578125,-1.1587580442428589,-1.2122119665145874,-1.9955960512161255
1782811792054339300,1.53833935546875,-1.083386778831482,-1.3974899053573608,-1.9688695669174194
1782811792064411400,1.548411376953125,-0.8853023648262024,-1.3637266159057617,-1.7633558511734009
1782811792074482400,1.558482421875,-0.6281189918518066,-1.2078287601470947,-1.4196553230285645
1782811792084554500,1.568554443359375,-0.32433828711509705,-1.0500907897949219,-0.9865517020225525
1782811792094625500,1.57862548828125,-0.06128570809960365,-0.8796612620353699,-0.5489056706428528
1782811792104697300,1.588697265625,0.0905296579003334,-0.6504930257797241,-0.15687741339206696
1782811792114768400,1.598768310546875,0.12251775711774826,-0.35974475741386414,0.13950707018375397
1782811792124840400,1.60884033203125,0.048041924834251404,-0.06270108371973038,0.3171716034412384
1782811792134911500,1.618911376953125,-0.09972989559173584,0.17281854152679443,0.37235283851623535
1782811792144983600,1.628983642578125,-0.26725444197654724,0.2929827868938446,0.309315025806427
1782811792155054300,1.639054443359375,-0.4114500880241394,0.30191078782081604,0.17852988839149475
1782811792165126400,1.64912646484375,-0.506507933139801,0.2276594638824463,0.03418069705367088
1782811792175197400,1.659197509765625,-0.552814245223999,0.07877004146575928,-0.07279695570468903
1782811792185269200,1.669269287109375,-0.5622466206550598,-0.11152613162994385,-0.12669295072555542
1782811792195340000,1.679340087890625,-0.5577681064605713,-0.2666979432106018,-0.13174565136432648
1782811792205412000,1.689412109375,-0.5334172248840332,-0.3668181598186493,-0.11002650856971741
1782811792215483100,1.699483154296875,-0.4809454381465912,-0.43155837059020996,-0.08008942753076553
1782811792225555200,1.70955517578125,-0.38095173239707947,-0.4657062292098999,-0.04843456670641899
1782811792235627300,1.719627197265625,-0.24165166914463043,-0.51714688539505,-0.029411114752292633
1782811792245698300,1.7296982421875,-0.08463755995035172,-0.5600096583366394,-0.023840313777327538
1782811792255770000,1.73977001953125,0.10774346441030502,-0.5024080276489258,-0.011690682731568813
1782811792265841200,1.749841064453125,0.3583349287509918,-0.29344630241394043,0.023341070860624313
1782811792275913200,1.759913330078125,0.612984299659729,0.04181572049856186,0.10143613070249557
1782811792285984300,1.769984375,0.7952028512954712,0.3543959856033325,0.2187371850013733
1782811792296056300,1.780056396484375,0.8602509498596191,0.48224520683288574,0.35755425691604614
1782811792306127400,1.79012744140625,0.8524689078330994,0.3953414559364319,0.5095624327659607
1782811792316199400,1.800199462890625,0.8129107356071472,0.17957954108715057,0.6633093357086182
1782811792326270500,1.8102705078125,0.7496992945671082,0.08459469676017761,0.7936468124389648
1782811792336342300,1.82034228515625,0.6388761401176453,0.19772902131080627,0.864547073841095
1782811792346413300,1.830413330078125,0.512394905090332,0.21291011571884155,0.8249144554138184
1782811792356485400,1.8404853515625,0.4050915837287903,0.049521494656801224,0.6525022387504578
1782811792366556200,1.85055615234375,0.3425008952617645,-0.022973211482167244,0.34057924151420593
1782811792376628200,1.860628173828125,0.3255630433559418,0.14371821284294128,-0.02256937325000763
1782811792386699300,1.87069921875,0.32631245255470276,0.6146852374076843,-0.3607708513736725
1782811792396771000,1.88077099609375,0.34995001554489136,1.1992143392562866,-0.592013955116272
1782811792406842000,1.890842041015625,0.4461095631122589,1.6379146575927734,-0.6153874397277832
1782811792416914200,1.9009140625,0.5764567255973816,1.8034989833831787,-0.4274559020996094
1782811792426986200,1.910986328125,0.5848342180252075,1.5572057962417603,-0.11755692213773727
1782811792437057300,1.921057373046875,0.3796461522579193,1.0593175888061523,0.1675262302160263
1782811792447129300,1.93112939453125,0.10485586524009705,0.7065108418464661,0.3705776035785675
1782811792457200400,1.941200439453125,-0.06276329606771469,0.5056090950965881,0.4346607029438019
1782811792467272200,1.951272216796875,-0.1651352047920227,0.18987615406513214,0.28478625416755676
1782811792477343200,1.96134326171875,-0.27339717745780945,-0.26888731122016907,-0.11737104505300522
1782811792487415300,1.971415283203125,-0.39046812057495117,-0.5547600388526917,-0.6644719243049622
1782811792497486300,1.981486328125,-0.48109886050224304,-0.44171029329299927,-1.1661323308944702
1782811792507558400,1.991558349609375,-0.5491426587104797,-0.04414163529872894,-1.5063064098358154
1782811792517629200,2.001629150390625,-0.5967497825622559,0.3437710106372833,-1.6946622133255005
1782811792527701500,2.011701416015625,-0.6071680784225464,0.6425656676292419,-1.7426142692565918
1782811792537772300,2.021772216796875,-0.5694279074668884,0.8779417276382446,-1.6924574375152588
1782811792547844000,2.031843994140625,-0.5164783596992493,0.9457812309265137,-1.5774821043014526
1782811792557915100,2.0419150390625,-0.4615083932876587,0.8038767576217651,-1.3997310400009155
1782811792567987200,2.0519873046875,-0.4102467894554138,0.5099567174911499,-1.1652077436447144
1782811792578058200,2.062058349609375,-0.3769805431365967,0.07591022551059723,-0.9345279335975647
1782811792588130300,2.07213037109375,-0.3835154175758362,-0.3872004449367523,-0.7468320727348328
1782811792598201300,2.082201416015625,-0.4654437005519867,-0.6739245057106018,-0.6220517158508301
1782811792608273200,2.092273193359375,-0.6117473840713501,-0.7667465806007385,-0.5577403903007507
1782811792618344200,2.10234423828125,-0.7741697430610657,-0.6930831074714661,-0.5359675288200378
1782811792628416300,2.112416259765625,-0.9030382037162781,-0.49035772681236267,-0.5301740765571594
1782811792638488300,2.12248828125,-0.9450840950012207,-0.1562989205121994,-0.5185932517051697
1782811792648559400,2.132559326171875,-0.8867286443710327,0.2769177556037903,-0.4670579135417938
1782811792658631400,2.14263134765625,-0.7318483591079712,0.6933012008666992,-0.35470232367515564
1782811792668702500,2.152702392578125,-0.5061686635017395,0.9885839819908142,-0.18013663589954376
1782811792678774300,2.162774169921875,-0.24487663805484772,1.1187403202056885,0.04526718705892563
1782811792688845000,2.172844970703125,-0.0032693478278815746,1.1301889419555664,0.2789584994316101
1782811792698917000,2.182917236328125,0.16007284820079803,1.0589224100112915,0.4916830062866211
1782811792708988200,2.19298828125,0.22658662497997284,0.8876636624336243,0.6606020331382751
1782811792719060200,2.203060302734375,0.26908546686172485,0.620526909828186,0.7970445156097412
1782811792729131300,2.21313134765625,0.33842939138412476,0.3231610357761383,0.8985506296157837
1782811792739203300,2.223203369140625,0.44072461128234863,0.09362228959798813,0.9949491024017334
1782811792749274400,2.2332744140625,0.5745596289634705,-0.011330760084092617,1.1051403284072876
1782811792759346200,2.24334619140625,0.7135289311408997,-0.0033997485879808664,1.2281414270401
1782811792769417200,2.253417236328125,0.8403406739234924,0.0502094142138958,1.3316502571105957
1782811792779489300,2.2634892578125,0.9336625933647156,0.07875613868236542,1.407041072845459
1782811792789560300,2.273560302734375,0.9761024117469788,0.07404579967260361,1.4559319019317627
1782811792799632400,2.28363232421875,0.9558618664741516,-0.03700590878725052,1.4698379039764404
1782811792809703400,2.293703369140625,0.8551394939422607,-0.25444474816322327,1.4528141021728516
1782811792819775200,2.303775146484375,0.6691233515739441,-0.49248579144477844,1.4019240140914917
1782811792829847300,2.313847412109375,0.42588773369789124,-0.8350979685783386,1.2579416036605835
1782811792839918300,2.32391845703125,0.18209533393383026,-1.2444863319396973,0.9847806096076965
1782811792849990400,2.333990478515625,0.052882760763168335,-1.3885204792022705,0.7146804332733154
1782811792860061200,2.344061279296875,0.12910281121730804,-1.0229727029800415,0.5643298029899597
1782811792870133200,2.35413330078125,0.3419775068759918,-0.37881502509117126,0.5862577557563782
1782811792880204300,2.364204345703125,0.5113477110862732,0.23391558229923248,0.7409766912460327
1782811792890276000,2.374276123046875,0.5467739105224609,0.6830265522003174,0.9703478217124939
1782811792900347100,2.38434716796875,0.47603556513786316,0.9899600148200989,1.2227963209152222
1782811792910419200,2.394419189453125,0.32902854681015015,1.2981634140014648,1.420286774635315
1782811792920490200,2.404490234375,0.1748894304037094,1.6039272546768188,1.5176780223846436
1782811792930562300,2.414562255859375,0.08285804092884064,1.6717044115066528,1.4809725284576416
1782811792940633300,2.42463330078125,0.06596879661083221,1.345186471939087,1.2579325437545776
1782811792950705400,2.434705322265625,0.01158198993653059,0.6698364615440369,0.8238039612770081
1782811792960776400,2.4447763671875,-0.10897479206323624,0.1407274454832077,0.3578852117061615
1782811792970848300,2.45484814453125,-0.19020973145961761,-0.2044493854045868,-0.04102461412549019
1782811792980919300,2.464919189453125,-0.21777963638305664,-0.4896644055843353,-0.3961539566516876
1782811792990991400,2.474991455078125,-0.2686995267868042,-0.6266520619392395,-0.6714699268341064
1782811793001062100,2.485062255859375,-0.37232574820518494,-0.5339099168777466,-0.8621117472648621
1782811793011134200,2.49513427734375,-0.5213895440101624,-0.2684672772884369,-0.9947784543037415
1782811793021205200,2.505205322265625,-0.6894893050193787,0.028789307922124863,-1.0661429166793823
1782811793031277000,2.515277099609375,-0.7710339426994324,0.2700485289096832,-1.0830073356628418
1782811793041348000,2.52534814453125,-0.710694432258606,0.3300120532512665,-1.0382705926895142
1782811793051420200,2.535420166015625,-0.5337145924568176,0.15837663412094116,-0.9326269626617432
1782811793061492200,2.5454921875,-0.30089911818504333,-0.23845504224300385,-0.7827844023704529
1782811793071563300,2.555563232421875,-0.03081199713051319,-0.8275254964828491,-0.6185515522956848
1782811793081635300,2.56563525390625,0.2087048441171646,-1.4860084056854248,-0.4875836670398712
1782811793091706400,2.575706298828125,0.34069645404815674,-1.9737231731414795,-0.4145800471305847
1782811793101778200,2.585778076171875,0.37252649664878845,-2.175507068634033,-0.43116992712020874
1782811793111849200,2.59584912109375,0.3451981842517853,-2.0811564922332764,-0.54291832447052
1782811793121921300,2.60592138671875,0.2719823122024536,-1.7158758640289307,-0.6966266632080078
1782811793131992300,2.615992431640625,0.18116320669651031,-1.1767988204956055,-0.8407095670700073
1782811793142064400,2.626064453125,0.11183247715234756,-0.625370442867279,-0.9423123598098755
1782811793152135700,2.6361357421875,0.11357658356428146,-0.17323361337184906,-0.9563043117523193
1782811793162207500,2.64620751953125,0.17609617114067078,0.1332428902387619,-0.8614256978034973
1782811793172278500,2.656278564453125,0.27555301785469055,0.24985285103321075,-0.6661707162857056
1782811793182350600,2.6663505859375,0.34630951285362244,0.18849346041679382,-0.44620028138160706
1782811793192421600,2.676421630859375,0.36761853098869324,0.10520976036787033,-0.21724379062652588
1782811793202493700,2.68649365234375,0.3347717225551605,0.010571944527328014,-0.04650215059518814
1782811793212564700,2.696564697265625,0.26495641469955444,-0.09418482333421707,0.048122357577085495
1782811793222636800,2.70663671875,0.22224846482276917,-0.10866104066371918,0.09790483117103577
1782811793232708600,2.71670849609375,0.25113895535469055,-0.016764672473073006,0.12604592740535736
1782811793242779600,2.726779541015625,0.3368806540966034,0.09097650647163391,0.11549261212348938
1782811793252851700,2.736851806640625,0.44448354840278625,0.18280042707920074,0.07976843416690826
1782811793262922800,2.7469228515625,0.5220970511436462,0.26035556197166443,0.05124114826321602
1782811793272994800,2.756994873046875,0.5490543842315674,0.31892406940460205,0.044908419251441956
1782811793283065900,2.76706591796875,0.5281880497932434,0.34567388892173767,0.06730939447879791
1782811793293137700,2.7771376953125,0.49283140897750854,0.37178805470466614,0.09156813472509384
1782811793303208700,2.787208740234375,0.46148377656936646,0.4343557059764862,0.14294101297855377
1782811793313280800,2.79728076171875,0.43951666355133057,0.5131591558456421,0.21026946604251862
1782811793323351600,2.8073515625,0.4021342396736145,0.5647150278091431,0.2868824899196625
1782811793333423600,2.817423583984375,0.35086360573768616,0.5495930910110474,0.36836108565330505
1782811793343494700,2.82749462890625,0.28365686535835266,0.49397939443588257,0.4348130226135254
1782811793353566700,2.837566650390625,0.2295941561460495,0.4381752610206604,0.47550079226493835
1782811793363637800,2.8476376953125,0.24987760186195374,0.4195806682109833,0.5161321759223938
1782811793373709600,2.85770947265625,0.29367193579673767,0.5288496613502502,0.6118083596229553
1782811793383780600,2.867780517578125,0.2544008493423462,0.6999392509460449,0.7309321165084839
1782811793393852700,2.877852783203125,0.11052384227514267,0.9122714996337891,0.7808399796485901
1782811793403923700,2.887923828125,-0.10132291913032532,1.153354525566101,0.7422393560409546
1782811793413995800,2.897995849609375,-0.30283230543136597,1.3060623407363892,0.6069678068161011
1782811793424066800,2.90806689453125,-0.46286049485206604,1.3310039043426514,0.4226611256599426
1782811793434139000,2.918138916015625,-0.5788446068763733,1.0325708389282227,0.19666552543640137
1782811793444210700,2.928210693359375,-0.7407084703445435,0.3975578844547272,-0.1859615296125412
1782811793454281700,2.93828173828125,-0.9730380773544312,-0.057072728872299194,-0.588725209236145
1782811793464353800,2.948353759765625,-1.0674819946289062,-0.12395871430635452,-0.8284403085708618
1782811793474424800,2.9584248046875,-0.9829431772232056,-0.08801961690187454,-0.9035779237747192
1782811793484497000,2.968496826171875,-0.9104437232017517,-0.06516176462173462,-0.8139431476593018
1782811793494567700,2.978567626953125,-0.9486611485481262,-0.035713065415620804,-0.6512330770492554
1782811793504639700,2.9886396484375,-1.0364550352096558,0.004419950768351555,-0.5636318922042847
1782811793514710800,2.998710693359375,-1.103458046913147,0.0264674611389637,-0.6428025960922241
1782811793524782600,3.008782470703125,-1.1638649702072144,-0.033318813890218735,-0.8614962697029114
1782811793534853600,3.018853515625,-1.2337138652801514,-0.2832929790019989,-1.1985619068145752
1782811793544925700,3.02892578125,-1.2930022478103638,-0.6551950573921204,-1.5529128313064575
1782811793554996700,3.038996826171875,-1.2882606983184814,-0.966719388961792,-1.8052417039871216
1782811793565068800,3.04906884765625,-1.191081166267395,-1.1919238567352295,-1.8573083877563477
1782811793575139800,3.059139892578125,-1.0051935911178589,-1.2558847665786743,-1.6825765371322632
1782811793585211600,3.069211669921875,-0.7776081562042236,-1.2211726903915405,-1.3165570497512817
1782811793595282700,3.07928271484375,-0.5672080516815186,-1.234602689743042,-0.8444115519523621
1782811793605354800,3.089354736328125,-0.3934338390827179,-1.2706472873687744,-0.3556344211101532
1782811793615425800,3.09942578125,-0.24947747588157654,-1.270902156829834,0.04915805906057358
1782811793625497900,3.109497802734375,-0.13269349932670593,-1.2139945030212402,0.3092218339443207
1782811793635568600,3.119568603515625,-0.04949209839105606,-1.0515669584274292,0.42518359422683716
1782811793645640700,3.129640625,0.0029432279989123344,-0.8655642867088318,0.3993067443370819
1782811793655711700,3.139711669921875,0.0563659742474556,-0.7119811177253723,0.26881906390190125
1782811793665783600,3.149783447265625,0.1273956000804901,-0.5459632277488708,0.13263776898384094
1782811793675854600,3.1598544921875,0.21599045395851135,-0.394509494304657,0.03129757195711136
1782811793685926700,3.1699267578125,0.30520862340927124,-0.34022998809814453,-0.019373029470443726
1782811793695998700,3.179998779296875,0.3783089220523834,-0.3031923174858093,-0.008662061765789986
1782811793706069800,3.19006982421875,0.4317876100540161,-0.2171410471200943,0.061226170510053635
1782811793716141800,3.200141845703125,0.4774528443813324,-0.10855038464069366,0.1852184236049652
1782811793726212900,3.210212890625,0.5118879079818726,-0.04458829388022423,0.35124439001083374
1782811793736284700,3.22028466796875,0.5434479713439941,-0.057623401284217834,0.5298708081245422
1782811793746355700,3.230355712890625,0.5737231969833374,-0.10862475633621216,0.6990447640419006
1782811793756427800,3.240427734375,0.6008155345916748,-0.1371309757232666,0.8374316692352295
1782811793766498800,3.250498779296875,0.6336573362350464,-0.1290063112974167,0.925567626953125
1782811793776571000,3.26057080078125,0.6566497683525085,-0.10704268515110016,0.9430310130119324
1782811793786642000,3.270641845703125,0.6590003967285156,-0.09987509250640869,0.8783042430877686
1782811793796713700,3.280713623046875,0.634020984172821,-0.09845562279224396,0.7428273558616638
1782811793806784500,3.290784423828125,0.5736583471298218,-0.07623021304607391,0.5964168906211853
1782811793816856600,3.300856689453125,0.49148544669151306,-0.08288119733333588,0.4492570459842682
1782811793826927600,3.310927734375,0.412983775138855,-0.05594778060913086,0.3100946247577667
1782811793836999700,3.320999755859375,0.3539465665817261,-0.03507445752620697,0.15795914828777313
1782811793847070700,3.33107080078125,0.32118523120880127,-0.08841729909181595,0.000983901903964579
1782811793857142800,3.341142822265625,0.3479369580745697,-0.11781007796525955,-0.12374311685562134
1782811793867213800,3.3512138671875,0.42497262358665466,0.03053358569741249,-0.18665045499801636
1782811793877285600,3.36128564453125,0.5017134547233582,0.2862548530101776,-0.1504002958536148
1782811793887356700,3.371356689453125,0.5500353574752808,0.5571010708808899,0.05429768189787865
1782811793897428700,3.3814287109375,0.5568863153457642,0.8905831575393677,0.42543765902519226
1782811793907500800,3.391500732421875,0.48667699098587036,1.257546067237854,0.90980064868927
1782811793917571800,3.40157177734375,0.35537782311439514,1.5637375116348267,1.4346327781677246
1782811793927643600,3.4116435546875,0.2293747365474701,1.6901229619979858,1.8168061971664429
1782811793937714700,3.421714599609375,0.19185638427734375,1.5035932064056396,1.9504995346069336
1782811793947786800,3.431786865234375,0.28933286666870117,1.0106064081192017,1.81080961227417
1782811793957857500,3.441857421875,0.4140649437904358,0.39072561264038086,1.3841471672058105
1782811793967929900,3.451929931640625,0.44759097695350647,-0.17402972280979156,0.6957253813743591
1782811793978000600,3.462000732421875,0.4541410207748413,-0.5439356565475464,-0.06843435764312744
1782811793988072700,3.47207275390625,0.5135730504989624,-0.773505687713623,-0.7404787540435791
1782811793998143700,3.482143798828125,0.5454944968223572,-0.9389069080352783,-1.2130249738693237
1782811794008215600,3.492215576171875,0.4551038444042206,-1.0439257621765137,-1.4611570835113525
1782811794018286600,3.50228662109375,0.1853056401014328,-1.0939993858337402,-1.5402222871780396
1782811794028358700,3.512358642578125,-0.185962975025177,-1.1190825700759888,-1.5728005170822144
1782811794038429700,3.5224296875,-0.5145251750946045,-1.0133752822875977,-1.598402500152588
1782811794048501800,3.532501708984375,-0.6929818391799927,-0.7153888940811157,-1.5843708515167236
1782811794058572800,3.54257275390625,-0.7371231913566589,-0.4404371976852417,-1.5141267776489258
1782811794068644900,3.552644775390625,-0.7368780970573425,-0.4505802392959595,-1.3992563486099243
1782811794078716000,3.5627158203125,-0.6973522305488586,-0.7245100140571594,-1.283681869506836
1782811794088787700,3.57278759765625,-0.6187487840652466,-1.1341290473937988,-1.2028636932373047
1782811794098858800,3.582858642578125,-0.5015094876289368,-1.4946683645248413,-1.1883399486541748
1782811794108930800,3.592930908203125,-0.3760683536529541,-1.6307843923568726,-1.2645976543426514
1782811794119001600,3.603001708984375,-0.301770955324173,-1.5553516149520874,-1.4000284671783447
1782811794129073700,3.61307373046875,-0.2967391014099121,-1.3471077680587769,-1.5433390140533447
1782811794139144700,3.623144775390625,-0.33470165729522705,-1.1039611101150513,-1.5866169929504395
1782811794149216800,3.633216796875,-0.3964135944843292,-0.8213644623756409,-1.48011314868927
1782811794159287300,3.643287353515625,-0.4385235011577606,-0.5414699912071228,-1.2138628959655762
1782811794169359000,3.653359130859375,-0.45028549432754517,-0.35041573643684387,-0.8186678290367126
1782811794179431200,3.66343115234375,-0.4616287052631378,-0.20362870395183563,-0.3641378879547119
1782811794189502200,3.673502197265625,-0.5027483701705933,-0.07977260649204254,0.04717135429382324
1782811794199574300,3.68357421875,-0.554170548915863,0.0394001230597496,0.32616809010505676
1782811794209645300,3.693645263671875,-0.5807726979255676,0.1659877747297287,0.4846802055835724
1782811794219717400,3.70371728515625,-0.5703853368759155,0.24936123192310333,0.5482504367828369
1782811794229788400,3.713788330078125,-0.5008155703544617,0.2917281687259674,0.5500147938728333
1782811794239860200,3.723860107421875,-0.3561156392097473,0.3090040981769562,0.5166661143302917
1782811794249931300,3.73393115234375,-0.1609654575586319,0.35956305265426636,0.4529619812965393
1782811794260003300,3.74400341796875,0.021075719967484474,0.4740954637527466,0.3837999701499939
1782811794270074400,3.754074462890625,0.12963318824768066,0.6126847863197327,0.33146774768829346
1782811794280146400,3.764146484375,0.14552746713161469,0.7158279418945312,0.3015061318874359
1782811794290217200,3.77421728515625,0.10030815750360489,0.724981963634491,0.3424988389015198
1782811794300289300,3.784289306640625,0.06055648624897003,0.6753928661346436,0.41520845890045166
1782811794310360300,3.7943603515625,0.052151523530483246,0.588235080242157,0.5097498893737793
1782811794320432000,3.80443212890625,0.05638275295495987,0.4695182740688324,0.5860910415649414
1782811794330503200,3.814503173828125,0.06523412466049194,0.3457755744457245,0.6339195370674133
1782811794340575200,3.8245751953125,0.06994472444057465,0.15134644508361816,0.6311599612236023
1782811794350646300,3.834646240234375,0.09430738538503647,-0.06792246550321579,0.577309250831604
1782811794360718300,3.84471826171875,0.15192434191703796,-0.18118403851985931,0.5256359577178955
1782811794370789400,3.854789306640625,0.26049116253852844,-0.09564505517482758,0.5029852390289307
1782811794380861200,3.864861083984375,0.38757747411727905,0.10086214542388916,0.5104188919067383
1782811794390932200,3.87493212890625,0.5124873518943787,0.35336044430732727,0.5953425765037537
1782811794401004300,3.88500439453125,0.5707134008407593,0.6527729630470276,0.76246178150177
1782811794411075300,3.895075439453125,0.5483418703079224,0.8826106190681458,0.9889945983886719
1782811794421147400,3.9051474609375,0.5199198126792908,0.9712427258491516,1.2695149183273315
1782811794431218200,3.91521826171875,0.5613918304443359,0.9354633688926697,1.620000958442688
1782811794441290500,3.92529052734375,0.6601612567901611,0.7847481966018677,1.9678492546081543
1782811794451362300,3.9353623046875,0.7529802918434143,0.4977817237377167,2.216115713119507
1782811794461433000,3.94543310546875,0.7253620028495789,0.08305458724498749,2.25290584564209
1782811794471505200,3.955505126953125,0.49108755588531494,-0.45353350043296814,1.9566586017608643
1782811794481576200,3.965576171875,0.15643367171287537,-0.9077827334403992,1.291910171508789
1782811794491648300,3.975648193359375,-0.09423618018627167,-1.0490343570709229,0.4484044909477234
1782811794501719300,3.98571923828125,-0.1245671883225441,-0.9259114265441895,-0.33897319436073303
1782811794511791000,3.995791015625,-0.07146681845188141,-0.8104569315910339,-0.9881836175918579
1782811794521862100,4.005862060546875,-0.10718780010938644,-0.6837290525436401,-1.447821021080017
1782811794531934200,4.015934326171875,-0.18531107902526855,-0.35001108050346375,-1.6898185014724731
1782811794542005200,4.026005126953125,-0.22776025533676147,0.25796061754226685,-1.7433370351791382
1782811794552077300,4.036077392578125,-0.2268175482749939,1.01798677444458,-1.6690212488174438
1782811794562148400,4.0461484375,-0.28303608298301697,1.6239629983901978,-1.561251163482666
1782811794572220400,4.056220458984375,-0.5152924060821533,1.722202181816101,-1.51580810546875
1782811794582291500,4.06629150390625,-0.8697348833084106,1.2547649145126343,-1.5232723951339722
1782811794592363300,4.07636328125,-1.1899722814559937,0.42850619554519653,-1.508491039276123
1782811794602434000,4.08643408203125,-1.3571285009384155,-0.4301033318042755,-1.3808590173721313
1782811794612506000,4.096506103515625,-1.34652841091156,-1.1471331119537354,-1.1086010932922363
1782811794622577200,4.1065771484375,-1.1720184087753296,-1.5110080242156982,-0.7013335227966309
1782811794632649200,4.116649169921875,-0.9378652572631836,-1.4687600135803223,-0.23002587258815765
1782811794642720300,4.12672021484375,-0.7112305164337158,-1.0781259536743164,0.18006737530231476
1782811794652792300,4.136792236328125,-0.5065837502479553,-0.5002078413963318,0.46370628476142883
1782811794662863400,4.14686328125,-0.3488362431526184,0.09962256997823715,0.5687254071235657
1782811794672935200,4.15693505859375,-0.2445346564054489,0.5550147891044617,0.5317215323448181
1782811794683006200,4.167006103515625,-0.19549041986465454,0.8251767754554749,0.44578906893730164
1782811794693078300,4.177078369140625,-0.19017450511455536,0.9513193368911743,0.39193645119667053
1782811794703149300,4.1871494140625,-0.20959161221981049,0.9911072254180908,0.3937969505786896
1782811794713221400,4.197221435546875,-0.2117982804775238,0.9692432880401611,0.43929147720336914
1782811794723293200,4.207293212890625,-0.19632822275161743,0.9243645071983337,0.5146275758743286
1782811794733364200,4.2173642578125,-0.17573945224285126,0.8663923740386963,0.587084949016571
1782811794743436300,4.227436279296875,-0.1527784764766693,0.7875638604164124,0.6502420902252197
1782811794753507300,4.23750732421875,-0.12694820761680603,0.6819359660148621,0.7111310362815857
1782811794763579400,4.247579345703125,-0.0863637626171112,0.5696701407432556,0.7665018439292908
1782811794773650200,4.257650146484375,-0.026951773092150688,0.4802810549736023,0.8289414644241333
1782811794783722200,4.26772216796875,0.051037564873695374,0.421537309885025,0.9021536707878113
1782811794793793300,4.277793212890625,0.13644184172153473,0.34964606165885925,0.9638745188713074
1782811794803865000,4.287864990234375,0.21126815676689148,0.24806912243366241,0.9994458556175232
1782811794813936000,4.29793603515625,0.2722240388393402,0.19469928741455078,0.9994945526123047
1782811794824008200,4.30800830078125,0.31034985184669495,0.22990308701992035,0.9880390167236328
1782811794834079200,4.318079345703125,0.33369332551956177,0.330353319644928,0.996100127696991
1782811794844151300,4.3281513671875,0.3590596616268158,0.4146607518196106,1.0054070949554443
1782811794854222300,4.338222412109375,0.37483009696006775,0.3783934712409973,1.0177668333053589
1782811794864294400,4.34829443359375,0.400099515914917,0.2535322308540344,1.00392746925354
1782811794874365400,4.358365478515625,0.44365277886390686,0.1461661159992218,0.9438102841377258
1782811794884437200,4.368437255859375,0.5208080410957336,0.06922499090433121,0.8347242474555969
1782811794894508300,4.37850830078125,0.6516493558883667,0.0204719640314579,0.7045745253562927
1782811794904580400,4.388580322265625,0.795752763748169,-0.011196215637028217,0.6472436189651489
1782811794914651100,4.398651123046875,0.8971259593963623,-0.1390151083469391,0.8275241851806641
1782811794924723200,4.40872314453125,0.972314715385437,-0.4241243600845337,1.2675161361694336
1782811794934794200,4.418794189453125,0.9719566106796265,-0.7938921451568604,1.8622583150863647
1782811794944866300,4.4288662109375,0.8158522248268127,-1.0400313138961792,2.4594438076019287
1782811794954937300,4.438937255859375,0.5388993620872498,-0.9325063824653625,2.8611390590667725
1782811794965009200,4.449009033203125,0.2173474282026291,-0.6531999111175537,2.831350326538086
1782811794975080200,4.459080078125,-0.05129411071538925,-0.5418602824211121,2.3493058681488037
1782811794985152300,4.46915234375,-0.22621320188045502,-0.5314353108406067,1.5724691152572632
1782811794995223300,4.479223388671875,-0.37624651193618774,-0.43121206760406494,0.6634694337844849
1782811795005295400,4.48929541015625,-0.513933002948761,-0.24316947162151337,-0.2523708939552307
1782811795015366400,4.499366455078125,-0.581335723400116,-0.08365484327077866,-1.0345532894134521
1782811795025438200,4.509438232421875,-0.570722222328186,-0.10414067655801773,-1.5771992206573486
1782811795035509200,4.51950927734375,-0.4844907522201538,-0.15264776349067688,-1.8057721853256226
1782811795045581300,4.529581298828125,-0.34161216020584106,-0.09006454050540924,-1.7285405397415161
1782811795055652400,4.53965234375,-0.19342169165611267,0.06701909750699997,-1.460836410522461
1782811795065724400,4.549724365234375,-0.06256194412708282,0.19139297306537628,-1.1446161270141602
1782811795075796500,4.55979638671875,0.053097303956747055,0.22072568535804749,-0.8808243870735168
1782811795085867300,4.5698671875,0.11049721390008926,0.15680289268493652,-0.7340589165687561
1782811795095939000,4.57993896484375,0.07947512716054916,-0.05347894877195358,-0.7327196598052979
1782811795106010000,4.590010009765625,-0.011243054643273354,-0.34132352471351624,-0.9263860583305359
1782811795116082200,4.600082275390625,-0.13513091206550598,-0.5596663355827332,-1.3048137426376343
1782811795126153200,4.6101533203125,-0.24502572417259216,-0.5810078382492065,-1.753361701965332
1782811795136225300,4.620225341796875,-0.28880828619003296,-0.3877442181110382,-2.1311845779418945
1782811795146296300,4.63029638671875,-0.24077525734901428,-0.03805387392640114,-2.3413660526275635
1782811795156368400,4.640368408203125,-0.1150967925786972,0.32386845350265503,-2.3281428813934326
1782811795166439400,4.650439453125,0.05149111896753311,0.569991409778595,-2.08754563331604
1782811795176511500,4.660511474609375,0.20941367745399475,0.6263426542282104,-1.6906331777572632
1782811795186582500,4.67058251953125,0.3150508999824524,0.5502622723579407,-1.189678430557251
1782811795196654600,4.680654541015625,0.3600333631038666,0.4387753903865814,-0.6634305119514465
1782811795206725400,4.690725341796875,0.3512105941772461,0.3051776587963104,-0.22584283351898193
1782811795216797700,4.700797607421875,0.27660977840423584,0.1181110292673111,0.045944467186927795
1782811795226868500,4.710868408203125,0.19245845079421997,-0.0534609891474247,0.15774795413017273
1782811795236940300,4.720940185546875,0.12050940096378326,-0.12079042196273804,0.13989543914794922
1782811795247011300,4.73101123046875,0.06529781222343445,-0.10107077658176422,0.056963011622428894
1782811795257083400,4.74108349609375,0.03287322819232941,-0.015512796118855476,-0.050521377474069595
1782811795267154400,4.751154541015625,0.016113156452775,0.09634396433830261,-0.15320567786693573
1782811795277226500,4.7612265625,0.0007319590076804161,0.22730392217636108,-0.22635099291801453
1782811795287297500,4.771297607421875,-0.031310927122831345,0.37245604395866394,-0.24866987764835358
1782811795297369600,4.78136962890625,-0.07138115912675858,0.46310824155807495,-0.19895100593566895
1782811795307440600,4.791440673828125,-0.11299917846918106,0.4784853160381317,-0.08950281888246536
1782811795317512400,4.801512451171875,-0.1470436155796051,0.4505898356437683,0.0910850465297699
1782811795327583500,4.81158349609375,-0.19605617225170135,0.3874225914478302,0.3171173632144928
1782811795337655600,4.821655517578125,-0.24845115840435028,0.2963452935218811,0.5486811399459839
1782811795347726600,4.8317265625,-0.29982805252075195,0.2589534521102905,0.7422314286231995
1782811795357798700,4.841798583984375,-0.32838237285614014,0.32378605008125305,0.9043275713920593
1782811795367869400,4.851869384765625,-0.3279179334640503,0.442405104637146,1.0182254314422607
1782811795377941200,4.861941162109375,-0.31550613045692444,0.5372182726860046,1.0793851613998413
1782811795388013300,4.872013427734375,-0.33170029520988464,0.4937858581542969,1.065948486328125
1782811795398084400,4.88208447265625,-0.37841248512268066,0.3187788426876068,1.0067088603973389
1782811795408156400,4.892156494140625,-0.41339629888534546,0.1289292573928833,0.9395330548286438
1782811795418227500,4.9022275390625,-0.35176485776901245,0.060313113033771515,0.9281668663024902
1782811795428299500,4.912299560546875,-0.16064044833183289,0.10707023739814758,0.9799754619598389
1782811795438370600,4.92237060546875,0.06534502655267715,0.1358933001756668,1.050573468208313
1782811795448442400,4.9324423828125,0.20168103277683258,0.1620018631219864,1.0996155738830566
1782811795458513400,4.942513427734375,0.17342786490917206,0.22015877068042755,1.0752193927764893
1782811795468585500,4.95258544921875,0.02793911285698414,0.1930675059556961,0.9941243529319763
1782811795478656500,4.962656494140625,-0.10135204344987869,-0.07007192075252533,0.9195004105567932
1782811795488728600,4.972728515625,-0.11503749340772629,-0.46565890312194824,0.9262041449546814
1782811795498799600,4.982799560546875,-0.08439239114522934,-0.6460499167442322,1.0224045515060425
1782811795508871700,4.99287158203125,-0.15462234616279602,-0.5618279576301575,1.0797083377838135
1782811795518942500,5.0029423828125,-0.3110830783843994,-0.3772595524787903,0.972718358039856
1782811795529014500,5.0130146484375,-0.459428608417511,-0.21591593325138092,0.706942617893219
1782811795539085300,5.023085205078125,-0.5468245148658752,-0.12070001661777496,0.38382986187934875
1782811795549157400,5.033157470703125,-0.5975803732872009,-0.07622282952070236,0.08000419288873672
1782811795559228400,5.043228515625,-0.6484001278877258,-0.007921797223389149,-0.13381065428256989
1782811795569300500,5.053300537109375,-0.688740074634552,0.06967499107122421,-0.25998109579086304
1782811795579371500,5.06337158203125,-0.7251327037811279,-0.0023358881007879972,-0.36965885758399963
1782811795589443300,5.073443359375,-0.7263167500495911,-0.19277720153331757,-0.5339303612709045
1782811795599514400,5.083514404296875,-0.6780859231948853,-0.41358816623687744,-0.7693732380867004
1782811795609586400,5.09358642578125,-0.602728545665741,-0.6582055687904358,-1.0185284614562988
1782811795619657500,5.103657470703125,-0.4786067008972168,-0.8600834012031555,-1.194504976272583
1782811795629729500,5.1137294921875,-0.33055010437965393,-0.9967451095581055,-1.2365225553512573
1782811795639800600,5.123800537109375,-0.200860396027565,-1.102890133857727,-1.1616162061691284
1782811795649872600,5.13387255859375,-0.12122787535190582,-1.2149056196212769,-1.0302642583847046
1782811795659943700,5.143943603515625,-0.10703394562005997,-1.3413832187652588,-0.9566171765327454
1782811795670015500,5.154015380859375,-0.15139049291610718,-1.3449254035949707,-1.0156311988830566
1782811795680086300,5.164086181640625,-0.1937767118215561,-1.1688799858093262,-1.1921333074569702
1782811795690158300,5.174158447265625,-0.18836596608161926,-0.794581949710846,-1.3693885803222656
1782811795700229400,5.1842294921875,-0.13480164110660553,-0.3661211133003235,-1.4482018947601318
1782811795710301400,5.194301513671875,-0.06194235756993294,-0.0660582110285759,-1.3760501146316528
1782811795720372500,5.20437255859375,0.0005476237274706364,0.04021503031253815,-1.1500229835510254
1782811795730444500,5.214444580078125,0.03799939155578613,0.05135609954595566,-0.837027907371521
1782811795740515600,5.224515625,0.0172859039157629,0.014538031071424484,-0.5463260412216187
1782811795750587400,5.23458740234375,-0.06452560424804688,0.013324428349733353,-0.32495394349098206
1782811795760658400,5.244658447265625,-0.1505785435438156,0.0835285559296608,-0.20483823120594025
1782811795770730500,5.25473046875,-0.22317631542682648,0.19072504341602325,-0.2041255682706833
1782811795780802600,5.264802490234375,-0.29405879974365234,0.31347718834877014,-0.2921414077281952
1782811795790873600,5.27487353515625,-0.34330517053604126,0.3945712447166443,-0.4277695417404175
1782811795800945400,5.2849453125,-0.3416026532649994,0.47847315669059753,-0.5375479459762573
1782811795811016400,5.295016357421875,-0.26135867834091187,0.6307535171508789,-0.5698263049125671
1782811795821088500,5.305088623046875,-0.1243373304605484,0.7862970232963562,-0.5092434287071228
1782811795831158300,5.315158203125,0.02721545100212097,0.904289960861206,-0.32848402857780457
1782811795841230300,5.325230224609375,0.15847766399383545,0.9030907154083252,-0.039242833852767944
1782811795851301400,5.33530126953125,0.2504717707633972,0.7426121234893799,0.29770907759666443
1782811795861373400,5.34537353515625,0.28194373846054077,0.4986969828605652,0.6276243925094604
1782811795871444500,5.355444580078125,0.23814460635185242,0.2618849575519562,0.9021944403648376
1782811795881516500,5.3655166015625,0.13401930034160614,0.04702926427125931,1.0778264999389648
1782811795891587600,5.375587646484375,0.03617263585329056,-0.08409520238637924,1.142972469329834
1782811795901659400,5.385659423828125,-0.003465227549895644,-0.022970328107476234,1.1369060277938843
1782811795911730400,5.39573046875,-0.0026774643920361996,0.19879375398159027,1.135634183883667
1782811795921802500,5.405802490234375,-0.017127448692917824,0.41387107968330383,1.1179629564285278
1782811795931873500,5.41587353515625,-0.0589396096765995,0.6302973628044128,1.0739291906356812
1782811795941945600,5.425945556640625,-0.108287513256073,0.8866767883300781,1.0062309503555298
1782811795952016400,5.436016357421875,-0.147064208984375,1.1427861452102661,0.9502719640731812
1782811795962088700,5.446088623046875,-0.1793965846300125,1.3490655422210693,0.9526458978652954
1782811795972159500,5.456159423828125,-0.1870436668395996,1.581192970275879,1.0966904163360596
1782811795982231300,5.466231201171875,-0.19372354447841644,1.5382812023162842,1.3026576042175293
1782811795992302300,5.47630224609375,-0.19536273181438446,1.069016695022583,1.456589937210083
1782811796002374400,5.48637451171875,-0.17937536537647247,0.4452349543571472,1.497188687324524
1782811796012445400,5.496445556640625,-0.15235599875450134,-0.027676399797201157,1.4307478666305542
1782811796022517500,5.506517578125,-0.133714959025383,-0.3653302788734436,1.212239384651184
1782811796032588500,5.516588623046875,-0.20978708565235138,-0.6555178761482239,0.8977965116500854
1782811796042660400,5.526660400390625,-0.26088428497314453,-0.8529152870178223,0.5789724588394165
1782811796052731400,5.5367314453125,-0.1637747883796692,-0.80489581823349,0.3267087936401367
1782811796062803500,5.546803466796875,-0.055314891040325165,-0.644917905330658,0.07969687134027481
