time,seconds_elapsed,z,y,x
1782811704928147000,0.08014697265625,0.050361890345811844,0.3363286554813385,0.3630836009979248
1782811704938218000,0.090218017578125,0.06509396433830261,0.33779284358024597,0.39781254529953003
1782811704948289800,0.100289794921875,0.07453379780054092,0.2766328454017639,0.42687907814979553
1782811704958360600,0.110360595703125,0.07718565315008163,0.15766358375549316,0.44446638226509094
1782811704968432600,0.1204326171875,0.04948904737830162,-0.01557689718902111,0.467962384223938
1782811704978504700,0.130504638671875,0.0006052205571904778,-0.16145384311676025,0.5170736312866211
1782811704988575700,0.14057568359375,-0.029262397438287735,-0.1388566493988037,0.6146327257156372
1782811704998647800,0.150647705078125,-0.04422282800078392,-0.03333231434226036,0.706755518913269
1782811705008719600,0.1607197265625,-0.06462530791759491,0.035722654312849045,0.7800339460372925
1782811705018790700,0.170790771484375,-0.10311990976333618,0.11101898550987244,0.8670741319656372
1782811705028862700,0.18086279296875,-0.1792607456445694,0.26497581601142883,0.9572231769561768
1782811705038933800,0.190933837890625,-0.27661022543907166,0.4540742337703705,1.0129876136779785
1782811705049005800,0.201005859375,-0.3747868537902832,0.6047321557998657,1.001659631729126
1782811705059077600,0.21107763671875,-0.4576088488101959,0.7012035846710205,0.9441424012184143
1782811705069148700,0.221148681640625,-0.5186892151832581,0.7423020601272583,0.8681299686431885
1782811705079220700,0.231220703125,-0.5784521102905273,0.7626814246177673,0.7913652062416077
1782811705089291800,0.241291748046875,-0.6476322412490845,0.7163903713226318,0.7005963921546936
1782811705099363800,0.25136376953125,-0.7070584297180176,0.5819458365440369,0.5936896800994873
1782811705109436000,0.261435791015625,-0.7084105014801025,0.4613741934299469,0.4824978709220886
1782811705119507000,0.2715068359375,-0.679713249206543,0.3236367702484131,0.37972164154052734
1782811705129578800,0.281578857421875,-0.6159641146659851,0.14692512154579163,0.31233566999435425
1782811705139649800,0.29164990234375,-0.5335832238197327,-0.03899639844894409,0.3171692490577698
1782811705149721900,0.301721923828125,-0.4622618854045868,-0.10498633235692978,0.38871559500694275
1782811705159794000,0.3117939453125,-0.4401693642139435,0.00490078330039978,0.5007645487785339
1782811705169864700,0.32186474609375,-0.47526875138282776,0.1937202364206314,0.6160631775856018
1782811705179936800,0.331936767578125,-0.5513467192649841,0.3906007409095764,0.7115800380706787
1782811705190007800,0.3420078125,-0.6339033842086792,0.545892596244812,0.7965385913848877
1782811705200079600,0.35207958984375,-0.6696596741676331,0.6910130977630615,0.8705400824546814
1782811705210151700,0.362151611328125,-0.6667709946632385,0.8803806304931641,0.9187350869178772
1782811705220222700,0.37222265625,-0.6587966680526733,1.09028160572052,0.9230177998542786
1782811705230294800,0.382294677734375,-0.6457487940788269,1.2651442289352417,0.8746857047080994
1782811705240365800,0.39236572265625,-0.6466251611709595,1.2997252941131592,0.7598158121109009
1782811705250437600,0.402437744140625,-0.656370997428894,1.1258800029754639,0.5936614274978638
1782811705260509700,0.412509765625,-0.5798108577728271,0.7321765422821045,0.3682938814163208
1782811705270580700,0.422580810546875,-0.3673022985458374,0.27007097005844116,0.07486681640148163
1782811705280652800,0.43265283203125,-0.024520618841052055,-0.04588215425610542,-0.2481139451265335
1782811705290723800,0.442723876953125,0.3937442898750305,0.06454847753047943,-0.48486363887786865
1782811705300796000,0.4527958984375,0.8054577112197876,0.4932476580142975,-0.6328302621841431
1782811705310867700,0.46286767578125,1.123660922050476,0.9210485219955444,-0.7499603629112244
1782811705320938800,0.472938720703125,1.2483347654342651,1.1178967952728271,-0.8499547839164734
1782811705331010800,0.4830107421875,1.1521896123886108,1.0836447477340698,-0.8821989893913269
1782811705341081900,0.493081787109375,0.9395318031311035,1.0531538724899292,-0.804639995098114
1782811705351154000,0.50315380859375,0.7413638830184937,0.9874634742736816,-0.6217106580734253
1782811705361225700,0.513225830078125,0.5995361804962158,0.7851220369338989,-0.4303082227706909
1782811705371296800,0.523296875,0.4690370261669159,0.6017985343933105,-0.2962452173233032
1782811705381368800,0.533368896484375,0.25737178325653076,0.6285836696624756,-0.2452646940946579
1782811705391439600,0.543439697265625,-0.04360269010066986,0.7019686698913574,-0.31315451860427856
1782811705401511700,0.55351171875,-0.3654269576072693,0.5390241146087646,-0.5450856685638428
1782811705411583700,0.563583740234375,-0.6958383917808533,0.2921653091907501,-0.8894593119621277
1782811705421654800,0.57365478515625,-1.0760672092437744,0.022071270272135735,-1.2698806524276733
1782811705431726600,0.5837265625,-1.5431514978408813,-0.34259191155433655,-1.6706149578094482
1782811705441797600,0.593797607421875,-2.00130033493042,-0.7620205283164978,-2.0269322395324707
1782811705451869700,0.60386962890625,-2.2560226917266846,-1.0290021896362305,-2.294294834136963
1782811705461941500,0.61394140625,-2.034151315689087,-1.0123108625411987,-2.475623369216919
1782811705472012500,0.624012451171875,-1.7275593280792236,-0.8467698693275452,-2.503757953643799
1782811705482084600,0.634084716796875,-1.417132019996643,-0.5493471622467041,-2.349841594696045
1782811705492155600,0.64415576171875,-1.14126455783844,-0.5209072232246399,-1.981135368347168
1782811705502227500,0.6542275390625,-0.9122849702835083,-0.5334309339523315,-1.434264063835144
1782811705512299500,0.664299560546875,-0.7273329496383667,-0.5425645112991333,-0.7724254131317139
1782811705522370300,0.674370361328125,-0.631870448589325,-0.5389590263366699,-0.09860070049762726
1782811705532442400,0.6844423828125,-0.6169844269752502,-0.49329912662506104,0.48219823837280273
1782811705542513400,0.694513427734375,-0.595804750919342,-0.41725125908851624,0.8578500151634216
1782811705552585500,0.70458544921875,-0.5166729092597961,-0.28230783343315125,0.9985368251800537
1782811705562657300,0.7146572265625,-0.3936134874820709,-0.060075633227825165,0.9710902571678162
1782811705572728300,0.724728271484375,-0.26036888360977173,0.21838527917861938,0.8148410320281982
1782811705582800400,0.73480029296875,-0.14841191470623016,0.4333087205886841,0.5905495285987854
1782811705592871400,0.744871337890625,-0.08421377092599869,0.5449920892715454,0.3584752678871155
1782811705602943500,0.754943603515625,-0.026069793850183487,0.5336592197418213,0.15826186537742615
1782811705613015300,0.765015380859375,0.04719376936554909,0.3856572210788727,0.018707163631916046
1782811705623086300,0.77508642578125,0.13969284296035767,0.1481340229511261,-0.04343445971608162
1782811705633158400,0.785158447265625,0.2617116868495941,-0.08020701259374619,-0.012197176925837994
1782811705643229400,0.7952294921875,0.4149271249771118,-0.22884954512119293,0.11522914469242096
1782811705653301500,0.805301513671875,0.5888675451278687,-0.3219994902610779,0.28790929913520813
1782811705663373600,0.81537353515625,0.7317739129066467,-0.3852192461490631,0.4769617021083832
1782811705673444600,0.825444580078125,0.8293899297714233,-0.37939515709877014,0.6706843376159668
1782811705683516400,0.835516357421875,0.878406286239624,-0.2992047071456909,0.8452460765838623
1782811705693587500,0.84558740234375,0.8906297087669373,-0.18904756009578705,0.9828060269355774
1782811705703659500,0.855659423828125,0.9000851511955261,-0.07055329531431198,1.0853526592254639
1782811705713731600,0.865731689453125,0.9567598700523376,0.06214377284049988,1.130506992340088
1782811705723802400,0.87580224609375,1.0496973991394043,0.21238946914672852,1.1039679050445557
1782811705733874400,0.88587451171875,1.1529796123504639,0.33399498462677,1.048870325088501
1782811705743945500,0.895945556640625,1.2775297164916992,0.45490607619285583,0.9623277187347412
1782811705754017300,0.906017333984375,1.3737990856170654,0.60025954246521,0.8662387728691101
1782811705764089300,0.91608935546875,1.4420151710510254,0.8357003331184387,0.7449772953987122
1782811705774160400,0.926160400390625,1.5271940231323242,1.27554452419281,0.5899646878242493
1782811705784232400,0.936232421875,1.6193650960922241,1.8505889177322388,0.4263280928134918
1782811705794303500,0.946303466796875,1.7045692205429077,2.4098596572875977,0.28549879789352417
1782811705804375300,0.956375244140625,1.7498096227645874,2.7861173152923584,0.24138200283050537
1782811705814447400,0.966447265625,1.77839994430542,2.9801783561706543,0.33938392996788025
1782811705824518400,0.976518310546875,1.8125635385513306,2.9999606609344482,0.5412547588348389
1782811705834590500,0.986590576171875,1.7909477949142456,2.677124261856079,0.7672252655029297
1782811705844661500,0.99666162109375,1.5751736164093018,1.9055086374282837,0.9114631414413452
1782811705854733600,1.006733642578125,1.130442500114441,0.9551659226417542,0.855055034160614
1782811705864805400,1.016805419921875,0.6579081416130066,0.11021991819143295,0.5753244757652283
1782811705874876400,1.02687646484375,0.32853105664253235,-0.5238238573074341,0.13560202717781067
1782811705884948500,1.036948486328125,0.11034351587295532,-0.9510932564735413,-0.3316289782524109
1782811705895019500,1.04701953125,-0.07562076300382614,-1.1359201669692993,-0.6868451237678528
1782811705905091600,1.057091552734375,-0.3150915801525116,-1.1857690811157227,-0.8777856826782227
1782811705915163400,1.067163330078125,-0.6053710579872131,-1.2054224014282227,-0.9719217419624329
1782811705925234400,1.077234375,-0.8771058320999146,-1.2090152502059937,-1.0925695896148682
1782811705935306500,1.087306396484375,-1.084498643875122,-1.1450679302215576,-1.3334836959838867
1782811705945377300,1.097377197265625,-1.1865854263305664,-1.1601495742797852,-1.6852871179580688
1782811705955449300,1.107449462890625,-1.2267810106277466,-1.4394019842147827,-2.039053440093994
1782811705965521400,1.117521484375,-1.1393789052963257,-1.8248727321624756,-2.2095823287963867
1782811705975592400,1.127592529296875,-0.9373472929000854,-2.1999223232269287,-2.137868881225586
1782811705985664300,1.137664306640625,-0.7412400245666504,-2.3394293785095215,-1.8140869140625
1782811705995735300,1.1477353515625,-0.5997198820114136,-2.1662533283233643,-1.3196969032287598
1782811706005807400,1.157807373046875,-0.5129972100257874,-1.8646641969680786,-0.8482446670532227
1782811706015879400,1.16787939453125,-0.4790041148662567,-1.5739903450012207,-0.5392319560050964
1782811706025950500,1.177950439453125,-0.4868021011352539,-1.2637208700180054,-0.38963159918785095
1782811706036022500,1.1880224609375,-0.522659182548523,-0.9320436120033264,-0.3930194079875946
1782811706046093600,1.198093505859375,-0.5376447439193726,-0.6025415062904358,-0.5089212656021118
1782811706056165400,1.208165283203125,-0.5350468158721924,-0.3406435251235962,-0.6723467111587524
1782811706066236400,1.218236328125,-0.5431566834449768,-0.2614780068397522,-0.8294287919998169
1782811706076308500,1.22830859375,-0.5638153553009033,-0.3292493224143982,-0.9362404346466064
1782811706086380500,1.238380615234375,-0.5324710011482239,-0.33758828043937683,-0.9549993276596069
1782811706096451600,1.24845166015625,-0.43838363885879517,-0.2568396329879761,-0.8683171272277832
1782811706106523400,1.2585234375,-0.3264298737049103,-0.14207686483860016,-0.701154351234436
1782811706116595500,1.268595458984375,-0.20106424391269684,-0.04025302827358246,-0.47269007563591003
1782811706126666500,1.27866650390625,-0.05259958654642105,0.06335913389921188,-0.23556137084960938
1782811706136738600,1.288738525390625,0.12121987342834473,0.16068676114082336,-0.014317134395241737
1782811706146809300,1.298809326171875,0.2923383116722107,0.24323770403862,0.19225943088531494
1782811706156881400,1.30888134765625,0.45456451177597046,0.31264978647232056,0.36074912548065186
1782811706166952400,1.318952392578125,0.5922503471374512,0.37362128496170044,0.46765491366386414
1782811706177024300,1.329024169921875,0.7004308700561523,0.43946048617362976,0.5001885890960693
1782811706187096300,1.339096435546875,0.7884015440940857,0.4834148585796356,0.4876282215118408
1782811706197167400,1.34916748046875,0.8344411849975586,0.45585858821868896,0.4568774998188019
1782811706207239400,1.359239501953125,0.8211667537689209,0.38148948550224304,0.4364035129547119
1782811706217310500,1.369310546875,0.7975242137908936,0.34306222200393677,0.44520020484924316
1782811706227382500,1.379382568359375,0.7881342768669128,0.31830912828445435,0.46086856722831726
1782811706237454300,1.389454345703125,0.7801826000213623,0.19239062070846558,0.48852789402008057
1782811706247525400,1.399525390625,0.8049384951591492,0.019879978150129318,0.5573979616165161
1782811706257597400,1.409597412109375,0.8880919814109802,0.037550851702690125,0.714602530002594
1782811706267668500,1.41966845703125,1.0203735828399658,0.3007045090198517,0.924228310585022
1782811706277740500,1.429740478515625,1.1381911039352417,0.4866591989994049,1.1142922639846802
1782811706287812400,1.439812255859375,1.1877151727676392,0.5321598649024963,1.2843478918075562
1782811706297883400,1.44988330078125,1.177577018737793,0.7464255690574646,1.5049561262130737
1782811706307955500,1.45995556640625,1.1453226804733276,1.0539002418518066,1.7786338329315186
1782811706318026500,1.470026611328125,1.101006031036377,1.348536729812622,2.042677879333496
1782811706328098600,1.4800986328125,1.0526560544967651,1.5071241855621338,2.195402145385742
1782811706338170600,1.490170654296875,0.9906730651855469,1.4911221265792847,2.2033474445343018
1782811706348241400,1.500241455078125,0.8440457582473755,1.0679540634155273,2.0468227863311768
1782811706358313200,1.510313232421875,0.5778537392616272,0.39540523290634155,1.694716453552246
1782811706368384300,1.52038427734375,0.27772924304008484,-0.10484114289283752,1.183130145072937
1782811706378456300,1.530456298828125,0.018547728657722473,-0.36127346754074097,0.6040053367614746
1782811706388528400,1.5405283203125,-0.25621843338012695,-0.6026641130447388,0.026134444400668144
1782811706398599400,1.550599365234375,-0.5673946738243103,-0.7320431470870972,-0.4372982084751129
1782811706408671500,1.56067138671875,-0.8327736258506775,-0.5851855874061584,-0.7323177456855774
1782811706418742500,1.570742431640625,-1.040823221206665,-0.29828721284866333,-0.9388102293014526
1782811706428814300,1.580814453125,-1.2132872343063354,-0.022204233333468437,-1.1199270486831665
1782811706438886400,1.590886474609375,-1.3007115125656128,0.1251724362373352,-1.271791696548462
1782811706448957400,1.60095751953125,-1.2873319387435913,0.1567113995552063,-1.3525837659835815
1782811706459030300,1.6110302734375,-1.18538498878479,0.034755926579236984,-1.3523280620574951
1782811706469101000,1.62110107421875,-1.011338233947754,-0.2104630321264267,-1.288053035736084
1782811706479172900,1.6311728515625,-0.8031731247901917,-0.5757254362106323,-1.2039893865585327
1782811706489245200,1.6412451171875,-0.6084400415420532,-0.9983552098274231,-1.1185214519500732
1782811706499316000,1.65131591796875,-0.4533168077468872,-1.3352899551391602,-1.0214918851852417
1782811706509388000,1.661387939453125,-0.3255102336406708,-1.5129563808441162,-0.9319730997085571
1782811706519459000,1.671458984375,-0.2393934577703476,-1.5547677278518677,-0.857047438621521
1782811706529531000,1.68153076171875,-0.2052774876356125,-1.4442211389541626,-0.8105273246765137
1782811706539603000,1.69160302734375,-0.21775971353054047,-1.2114312648773193,-0.818936824798584
1782811706549674000,1.701674072265625,-0.27207523584365845,-0.9032135009765625,-0.8745205402374268
1782811706559746000,1.71174609375,-0.3474022150039673,-0.5816658735275269,-0.9459236264228821
1782811706569817000,1.721817138671875,-0.41605907678604126,-0.3724026679992676,-0.9986578822135925
1782811706579889200,1.73188916015625,-0.4590451717376709,-0.3042182922363281,-1.0116660594940186
1782811706589961000,1.7419609375,-0.42907416820526123,-0.3291010558605194,-0.9680531620979309
1782811706600032000,1.752031982421875,-0.34220585227012634,-0.42494264245033264,-0.8759347200393677
1782811706610104000,1.76210400390625,-0.2256653904914856,-0.5808201432228088,-0.7550673484802246
1782811706620175000,1.772175048828125,-0.11556711047887802,-0.7619385123252869,-0.6198573112487793
1782811706630247200,1.7822470703125,-0.02742510475218296,-0.8782528042793274,-0.48362764716148376
1782811706640318200,1.792318115234375,0.06778263300657272,-0.8716087341308594,-0.34749510884284973
1782811706650390300,1.802390380859375,0.17592354118824005,-0.7633379697799683,-0.20513035356998444
1782811706660462000,1.812462158203125,0.29596924781799316,-0.5250982046127319,-0.03443717584013939
1782811706670532900,1.822532958984375,0.4062037169933319,-0.23309025168418884,0.15419867634773254
1782811706680605200,1.832605224609375,0.4913329780101776,0.12651613354682922,0.35545670986175537
1782811706690676000,1.842676025390625,0.5163321495056152,0.39647185802459717,0.5306594967842102
1782811706700748000,1.852748046875,0.47732725739479065,0.5129929184913635,0.6488614678382874
1782811706710819800,1.86281982421875,0.39375996589660645,0.549780547618866,0.6998032927513123
1782811706720891000,1.872890869140625,0.3344804048538208,0.5914241075515747,0.6904479265213013
1782811706730963000,1.882962890625,0.34163981676101685,0.6360452175140381,0.6205888986587524
1782811706741034000,1.893033935546875,0.39081189036369324,0.6217653751373291,0.5137191414833069
1782811706751106000,1.90310595703125,0.4446011185646057,0.5396705269813538,0.4856644570827484
1782811706761178000,1.91317822265625,0.5083838701248169,0.45402514934539795,0.6358802914619446
1782811706771249200,1.923249267578125,0.5840253829956055,0.48851099610328674,0.9776387810707092
1782811706781321000,1.933321044921875,0.6531602740287781,0.6026538014411926,1.4382668733596802
1782811706791392000,1.94339208984375,0.6280078887939453,0.6866565346717834,1.8712482452392578
1782811706801464000,1.953464111328125,0.5286450982093811,0.7237274646759033,2.165562868118286
1782811706811536100,1.9635361328125,0.4683334529399872,0.8092096447944641,2.287670612335205
1782811706821607200,1.973607177734375,0.48279255628585815,0.9463714957237244,2.236475944519043
1782811706831679200,1.98367919921875,0.5160877108573914,1.0026416778564453,2.0421760082244873
1782811706841750300,1.993750244140625,0.5064401626586914,0.7967508435249329,1.7842586040496826
1782811706851822000,2.003822021484375,0.3945141136646271,0.3670378029346466,1.54160475730896
1782811706861894100,2.01389404296875,0.19670437276363373,-0.036965854465961456,1.2870739698410034
1782811706871965200,2.023965087890625,0.0648263618350029,-0.21609358489513397,1.0399447679519653
1782811706882037200,2.034037353515625,0.030015384778380394,-0.30769380927085876,0.7780106067657471
1782811706892108000,2.04410791015625,-0.04871561750769615,-0.4512884020805359,0.43405064940452576
1782811706902179800,2.054179931640625,-0.2324657291173935,-0.6289297342300415,0.03610300272703171
1782811706912251000,2.0642509765625,-0.5005894899368286,-0.8383567929267883,-0.33878883719444275
1782811706922323000,2.074322998046875,-0.7497133016586304,-0.9151397347450256,-0.5852388143539429
1782811706932395000,2.08439501953125,-0.8940063714981079,-0.8341296315193176,-0.713847815990448
1782811706942466000,2.094466064453125,-0.9742745757102966,-0.6435575485229492,-0.7489408254623413
1782811706952538000,2.1045380859375,-1.026308536529541,-0.4572547972202301,-0.7334816455841064
1782811706962609200,2.114609130859375,-1.0082643032073975,-0.329049676656723,-0.7186930775642395
1782811706972681000,2.124680908203125,-0.9117248058319092,-0.2793061435222626,-0.7569025158882141
1782811706982753000,2.1347529296875,-0.7984714508056641,-0.37420815229415894,-0.8411710858345032
1782811706992824000,2.144823974609375,-0.68495112657547,-0.5732162594795227,-0.952025830745697
1782811707002896100,2.154896240234375,-0.5647738575935364,-0.8313024044036865,-1.100188970565796
1782811707012967200,2.16496728515625,-0.4619804322719574,-1.1117478609085083,-1.2997264862060547
1782811707023039000,2.1750390625,-0.41962099075317383,-1.3582242727279663,-1.5318961143493652
1782811707033111000,2.185111083984375,-0.44355377554893494,-1.5306708812713623,-1.7638612985610962
1782811707043182000,2.19518212890625,-0.5090305209159851,-1.6686739921569824,-1.9677233695983887
1782811707053254100,2.205254150390625,-0.5589093565940857,-1.7102241516113281,-2.099433660507202
1782811707063325200,2.2153251953125,-0.5410640835762024,-1.5455981492996216,-2.111046314239502
1782811707073397200,2.225397216796875,-0.4704880714416504,-1.2104308605194092,-1.9731987714767456
1782811707083469000,2.235468994140625,-0.3878621459007263,-0.8736233115196228,-1.7159720659255981
1782811707093539800,2.245539794921875,-0.32699689269065857,-0.622603178024292,-1.378571629524231
1782811707103612000,2.25561181640625,-0.30098581314086914,-0.4153277575969696,-1.0121979713439941
1782811707113683000,2.265682861328125,-0.2985028624534607,-0.21879908442497253,-0.6613467335700989
1782811707123755000,2.275755126953125,-0.3166096806526184,-0.06126005947589874,-0.3745349049568176
1782811707133827000,2.2858271484375,-0.3139660060405731,0.08064520359039307,-0.19473756849765778
1782811707143898000,2.295898193359375,-0.2724103033542633,0.22257304191589355,-0.11404752731323242
1782811707153970000,2.305969970703125,-0.21335721015930176,0.36328500509262085,-0.10204611718654633
1782811707164041000,2.316041015625,-0.1608508676290512,0.4344303011894226,-0.108721062541008
1782811707174113000,2.326113037109375,-0.0992896631360054,0.40807127952575684,-0.09667977690696716
1782811707184184000,2.33618408203125,-0.011328381486237049,0.30325937271118164,-0.04345730319619179
1782811707194256100,2.346256103515625,0.0867580994963646,0.17788943648338318,0.04479687288403511
1782811707204328000,2.356327880859375,0.16792114078998566,0.08717311918735504,0.15081891417503357
1782811707214399000,2.36639892578125,0.23150722682476044,0.05808737501502037,0.2535383403301239
1782811707224471000,2.376470947265625,0.2909196615219116,0.0945092961192131,0.3172139823436737
1782811707234542000,2.3865419921875,0.33607807755470276,0.07035943120718002,0.3037928342819214
1782811707244614100,2.3966142578125,0.36330142617225647,0.002017923630774021,0.2432413548231125
1782811707254686200,2.406686279296875,0.4105178713798523,-0.04917934536933899,0.2086680680513382
1782811707264757200,2.41675732421875,0.5269132256507874,-0.13192670047283173,0.24653448164463043
1782811707274829000,2.4268291015625,0.6594574451446533,-0.21011178195476532,0.3802556097507477
1782811707284899800,2.43689990234375,0.7421001195907593,-0.1496095508337021,0.5888415575027466
1782811707294972000,2.446971923828125,0.7341185212135315,0.0566074512898922,0.7563720345497131
1782811707305044200,2.457044189453125,0.5769928097724915,0.24627405405044556,0.7979876399040222
1782811707315115000,2.467114990234375,0.27195093035697937,0.3901500403881073,0.7127187848091125
1782811707325187000,2.47718701171875,-0.06440205872058868,0.6345816254615784,0.6320265531539917
1782811707335258000,2.487258056640625,-0.2607229948043823,0.928027868270874,0.6514987349510193
1782811707345330000,2.497329833984375,-0.23784881830215454,1.17094886302948,0.7931331396102905
1782811707355402000,2.507402099609375,-0.08486668020486832,1.167513132095337,0.9842941761016846
1782811707365473000,2.51747314453125,0.04803570732474327,0.9113234281539917,1.1288909912109375
1782811707375545000,2.527545166015625,0.07564546912908554,0.5886408090591431,1.162675380706787
1782811707385616100,2.5376162109375,0.03936415910720825,0.32616207003593445,1.1202285289764404
1782811707395688000,2.54768798828125,0.025315437465906143,0.03142380714416504,1.027796745300293
1782811707405759000,2.557759033203125,0.01681462675333023,-0.3117181062698364,0.8662217259407043
1782811707415831000,2.5678310546875,-0.05196203663945198,-0.5374747514724731,0.6279115676879883
1782811707425903000,2.577903076171875,-0.1692417860031128,-0.5508006811141968,0.3233652710914612
1782811707435974100,2.58797412109375,-0.29026100039482117,-0.37512198090553284,-0.023455822840332985
1782811707446046200,2.598046142578125,-0.39546945691108704,-0.07124994695186615,-0.3728761374950409
1782811707456117200,2.6081171875,-0.49120306968688965,0.278818815946579,-0.680911660194397
1782811707466188800,2.618188720703125,-0.6018561124801636,0.5250504016876221,-0.9535229802131653
1782811707476260900,2.6282607421875,-0.6710266470909119,0.5732977986335754,-1.1987652778625488
1782811707486332000,2.638331787109375,-0.67722487449646,0.42245104908943176,-1.4093194007873535
1782811707496404000,2.648404052734375,-0.6102023720741272,0.17256803810596466,-1.5510462522506714
1782811707506475000,2.65847509765625,-0.4961905777454376,-0.15492193400859833,-1.6248538494110107
1782811707516547000,2.668547119140625,-0.3751490116119385,-0.4786016047000885,-1.6279935836791992
1782811707526619000,2.678618896484375,-0.29129698872566223,-0.6595838665962219,-1.5651051998138428
1782811707536690000,2.68868994140625,-0.2673180401325226,-0.6521907448768616,-1.4353623390197754
1782811707546762000,2.698761962890625,-0.28108471632003784,-0.534183144569397,-1.2701175212860107
1782811707556833000,2.7088330078125,-0.309719443321228,-0.354082852602005,-1.0825423002243042
1782811707566905000,2.718905029296875,-0.332439661026001,-0.1563095897436142,-0.8791210055351257
1782811707576977000,2.728976806640625,-0.3390500843524933,0.012211678549647331,-0.6784347891807556
1782811707587048000,2.7390478515625,-0.3359919786453247,0.07381778210401535,-0.4895634055137634
1782811707597120000,2.7491201171875,-0.3280614912509918,0.014721229672431946,-0.311521977186203
1782811707607191000,2.75919091796875,-0.31805333495140076,-0.14959794282913208,-0.14602835476398468
1782811707617263000,2.76926318359375,-0.3315828740596771,-0.33667200803756714,-0.0025279612746089697
1782811707627335200,2.779335205078125,-0.3576085865497589,-0.3960959017276764,0.13167138397693634
1782811707637406200,2.78940625,-0.34164366126060486,-0.2837652862071991,0.26612257957458496
1782811707647478000,2.79947802734375,-0.24703699350357056,-0.11452807486057281,0.38377436995506287
1782811707657548800,2.809548828125,-0.1389777511358261,0.015575416386127472,0.4544141888618469
1782811707667621000,2.81962109375,-0.05283860117197037,0.07964228093624115,0.4863617420196533
1782811707677692000,2.82969189453125,0.006994348950684071,0.10113633424043655,0.5015988349914551
1782811707687764000,2.839763916015625,0.04409777373075485,0.11402177065610886,0.5081478357315063
1782811707697836000,2.8498359375,0.08146955072879791,0.1333732008934021,0.5203557014465332
1782811707707907000,2.859906982421875,0.11661901324987411,0.17474780976772308,0.5345039963722229
1782811707717979000,2.869978759765625,0.1451043337583542,0.24257902801036835,0.5591495633125305
1782811707728050000,2.8800498046875,0.16331422328948975,0.30452975630760193,0.5938926339149475
1782811707738122000,2.8901220703125,0.1396990865468979,0.3121812045574188,0.6499717831611633
1782811707748194000,2.900194091796875,0.10292721539735794,0.25849106907844543,0.7152727246284485
1782811707758265000,2.91026513671875,0.07533107697963715,0.14492671191692352,0.7735461592674255
1782811707768337000,2.9203369140625,0.08483988791704178,0.006501195952296257,0.8231437802314758
1782811707778408000,2.930407958984375,0.12588046491146088,-0.13328896462917328,0.8834801316261292
1782811707788480000,2.94047998046875,0.20360909402370453,-0.16411824524402618,0.9991883635520935
1782811707798552000,2.950552001953125,0.2979685664176941,-0.17626111209392548,1.181817650794983
1782811707808623000,2.960623046875,0.36316779255867004,-0.3063855469226837,1.3683840036392212
1782811707818695200,2.970695068359375,0.3564283549785614,-0.3485473096370697,1.5466440916061401
1782811707828766200,2.98076611328125,0.31215089559555054,-0.20474004745483398,1.7063580751419067
1782811707838838000,2.990838134765625,0.2639363706111908,0.06700979173183441,1.824005365371704
1782811707848908800,3.00090869140625,0.25539880990982056,0.2964925169944763,1.8769500255584717
1782811707858981000,3.010981201171875,0.28361982107162476,0.32411670684814453,1.8286153078079224
1782811707869053200,3.02105322265625,0.300712525844574,0.13824138045310974,1.6227121353149414
1782811707879124000,3.0311240234375,0.27237313985824585,-0.04275801032781601,1.265230655670166
1782811707889196000,3.041196044921875,0.19216008484363556,-0.13569647073745728,0.8404098153114319
1782811707899267000,3.05126708984375,0.10971932113170624,-0.26344218850135803,0.4473710060119629
1782811707909339000,3.0613388671875,0.08295375108718872,-0.46848776936531067,0.13335475325584412
1782811707919411000,3.071410888671875,0.10114163160324097,-0.6104282736778259,-0.1377236396074295
1782811707929482000,3.08148193359375,0.1159735769033432,-0.5517910718917847,-0.41580212116241455
1782811707939554000,3.091553955078125,0.04919697344303131,-0.3445570766925812,-0.7425375580787659
1782811707949625000,3.101625,-0.09392449259757996,0.03132624924182892,-1.0626658201217651
1782811707959697000,3.11169677734375,-0.2610267102718353,0.4896627366542816,-1.3491414785385132
1782811707969769000,3.12176904296875,-0.423147976398468,0.8833666443824768,-1.5985352993011475
1782811707979840000,3.131840087890625,-0.5761711001396179,1.118406057357788,-1.7972495555877686
1782811707989912000,3.141912109375,-0.7016105055809021,1.1829376220703125,-1.9462944269180298
1782811707999983000,3.151983154296875,-0.795429527759552,1.1169849634170532,-2.0487358570098877
1782811708010055200,3.16205517578125,-0.8493478894233704,0.9394972920417786,-2.091332197189331
1782811708020127000,3.172126953125,-0.839195191860199,0.6757653951644897,-2.0633788108825684
1782811708030198000,3.182197998046875,-0.7686014771461487,0.3855144679546356,-1.9467989206314087
1782811708040270000,3.19227001953125,-0.669929027557373,0.12110015749931335,-1.7457172870635986
1782811708050341000,3.202341064453125,-0.5661097168922424,-0.08427776396274567,-1.4761748313903809
1782811708060413200,3.2124130859375,-0.4780394732952118,-0.213617742061615,-1.183889627456665
1782811708070484000,3.22248388671875,-0.400729238986969,-0.2952875792980194,-0.9086083769798279
1782811708080556000,3.23255615234375,-0.34198009967803955,-0.3409455716609955,-0.6788968443870544
1782811708090627800,3.2426279296875,-0.29035019874572754,-0.3768673539161682,-0.4940798580646515
1782811708100699000,3.252698974609375,-0.22875721752643585,-0.3911767899990082,-0.35048040747642517
1782811708110771000,3.26277099609375,-0.15979865193367004,-0.3884254992008209,-0.2412245124578476
1782811708120842000,3.272842041015625,-0.09274281561374664,-0.3694747984409332,-0.16697390377521515
1782811708130914000,3.2829140625,-0.033896274864673615,-0.3291984796524048,-0.10556301474571228
1782811708140985900,3.29298583984375,0.0030129370279610157,-0.2771531641483307,-0.051275305449962616
1782811708151057000,3.303056884765625,0.01577214151620865,-0.25919920206069946,0.002643322106450796
1782811708161129000,3.31312890625,0.014305425807833672,-0.27293187379837036,0.06530285626649857
1782811708171200000,3.323199951171875,0.004339877050369978,-0.2945181429386139,0.14209164679050446
1782811708181272000,3.33327197265625,0.004616608843207359,-0.28668415546417236,0.24142663180828094
1782811708191344000,3.34334423828125,0.021269354969263077,-0.24200932681560516,0.3663448691368103
1782811708201415200,3.353415283203125,0.06507224589586258,-0.17183813452720642,0.4943082332611084
1782811708211487000,3.363487060546875,0.14105169475078583,-0.0857892632484436,0.6127781867980957
1782811708221558000,3.37355810546875,0.22077509760856628,0.00603791419416666,0.7045826315879822
1782811708231630000,3.383630126953125,0.2799215018749237,0.01900937221944332,0.7612757682800293
1782811708241701000,3.393701171875,0.3102554380893707,-0.035174235701560974,0.7925053238868713
1782811708251773200,3.403773193359375,0.3180212378501892,-0.07674857974052429,0.8288034200668335
1782811708261845000,3.413844970703125,0.32456883788108826,-0.034761689603328705,0.8810808062553406
1782811708271916000,3.423916015625,0.35298609733581543,0.041371166706085205,0.9395188093185425
1782811708281987800,3.43398779296875,0.39853042364120483,0.05989597737789154,0.9967907071113586
1782811708292059000,3.444058837890625,0.4530583918094635,0.03618798404932022,1.0565829277038574
1782811708302131000,3.454130859375,0.49392080307006836,0.029271196573972702,1.0976277589797974
1782811708312203000,3.464203125,0.5068160891532898,0.08302737027406693,1.1163345575332642
1782811708322274000,3.474274169921875,0.4602140188217163,0.18439310789108276,1.069988489151001
1782811708332345900,3.484345947265625,0.3804968297481537,0.2873764932155609,0.9698936939239502
1782811708342417000,3.4944169921875,0.3178339898586273,0.32435208559036255,0.88913893699646
1782811708352489000,3.504489013671875,0.2986971139907837,0.17900975048542023,0.8064196705818176
1782811708362561000,3.51456103515625,0.3447030782699585,-0.18876981735229492,0.6574965715408325
1782811708372632000,3.524632080078125,0.36796659231185913,-0.5602762699127197,0.4026504158973694
1782811708382704000,3.5347041015625,0.3357692062854767,-0.7849341630935669,0.10091624408960342
1782811708392775200,3.544775146484375,0.27914267778396606,-0.8920856714248657,-0.17305485904216766
1782811708402847000,3.554846923828125,0.23487164080142975,-0.9378291368484497,-0.3969176411628723
1782811708412918000,3.56491796875,0.14986567199230194,-0.9506253600120544,-0.6081281304359436
1782811708422990000,3.574989990234375,-0.018442386761307716,-0.894465982913971,-0.8133371472358704
1782811708433062100,3.585062255859375,-0.2962236702442169,-0.6962245106697083,-1.0171968936920166
1782811708443133200,3.59513330078125,-0.6339904069900513,-0.2744155526161194,-1.220409631729126
1782811708453205000,3.605205078125,-0.966122031211853,0.2591586112976074,-1.4352601766586304
1782811708463276000,3.615276123046875,-1.2385002374649048,0.7648230195045471,-1.6880593299865723
1782811708473347800,3.625347900390625,-1.4590320587158203,1.1168310642242432,-1.9829442501068115
1782811708483420000,3.635419921875,-1.6394072771072388,1.2392939329147339,-2.3128225803375244
1782811708493491000,3.645490966796875,-1.7252260446548462,1.1867505311965942,-2.5966007709503174
1782811708503563000,3.65556298828125,-1.6613826751708984,0.9516407251358032,-2.7817821502685547
1782811708513634000,3.665634033203125,-1.4176105260849,0.602795422077179,-2.7940332889556885
1782811708523705900,3.675705810546875,-1.0274001359939575,0.2327105849981308,-2.5944809913635254
1782811708533778000,3.68577783203125,-0.6090512871742249,-0.07558228075504303,-2.1791493892669678
1782811708543849000,3.695848876953125,-0.277276873588562,-0.31033650040626526,-1.603713035583496
1782811708553921000,3.705921142578125,-0.06753935664892197,-0.4791204631328583,-0.9387624263763428
1782811708563991800,3.71599169921875,0.04073798656463623,-0.5755192041397095,-0.26152363419532776
1782811708574063900,3.72606396484375,0.07649731636047363,-0.5933881998062134,0.35188382863998413
1782811708584135000,3.736135009765625,0.07103805243968964,-0.5581608414649963,0.8305650353431702
1782811708594206700,3.746206787109375,0.03892458230257034,-0.4931477904319763,1.1325099468231201
1782811708604278800,3.75627880859375,-0.011103133670985699,-0.4078599512577057,1.2809572219848633
1782811708614349800,3.766349853515625,-0.0773114487528801,-0.3193247616291046,1.2926157712936401
1782811708624422000,3.776421875,-0.14848631620407104,-0.23146532475948334,1.202683448791504
1782811708634493000,3.786492919921875,-0.19940249621868134,-0.11114982515573502,1.0615588426589966
1782811708644565000,3.79656494140625,-0.23335140943527222,0.02942965365946293,0.9150444865226746
1782811708654636800,3.80663671875,-0.2513434588909149,0.1577490121126175,0.7871912121772766
1782811708664707800,3.816707763671875,-0.25471335649490356,0.2572982609272003,0.7042931318283081
1782811708674780000,3.82677978515625,-0.2534075975418091,0.3078106939792633,0.6653438210487366
1782811708684851000,3.836850830078125,-0.25184759497642517,0.3088993728160858,0.6621121168136597
1782811708694923000,3.846923095703125,-0.23180916905403137,0.28122618794441223,0.6893213391304016
1782811708704994800,3.856994873046875,-0.19827374815940857,0.25738683342933655,0.742406964302063
1782811708715065900,3.86706591796875,-0.1484004557132721,0.24332216382026672,0.8111905455589294
1782811708725138000,3.877137939453125,-0.08381921052932739,0.21109847724437714,0.8888785243034363
1782811708735209000,3.887208984375,0.0013316395925357938,0.15992823243141174,0.9663293957710266
1782811708745281000,3.897281005859375,0.1018844023346901,0.1521458476781845,1.0574301481246948
1782811708755351800,3.907351806640625,0.21469829976558685,0.15299619734287262,1.1318873167037964
1782811708765423900,3.917423828125,0.30048277974128723,0.11751147359609604,1.1608983278274536
1782811708775496000,3.927495849609375,0.34276577830314636,0.04229794815182686,1.1519389152526855
1782811708785566700,3.937566650390625,0.34197065234184265,-0.0001900752540677786,1.1239721775054932
1782811708795638800,3.947638671875,0.3347622752189636,0.04418671131134033,1.1037731170654297
1782811708805709800,3.957709716796875,0.3498326539993286,0.1277458369731903,1.1063151359558105
1782811708815782000,3.967781982421875,0.38032451272010803,0.29864805936813354,1.1453442573547363
1782811708825854000,3.97785400390625,0.4066435992717743,0.5035274624824524,1.2440992593765259
1782811708835924700,3.9879248046875,0.4551229774951935,0.6329437494277954,1.3996347188949585
1782811708845996800,3.997996826171875,0.5325126051902771,0.7029799222946167,1.5756897926330566
1782811708856067800,4.00806787109375,0.6225335597991943,0.6431059241294861,1.7108228206634521
1782811708866140000,4.018139892578125,0.6790117025375366,0.39085817337036133,1.7624350786209106
1782811708876212000,4.0282119140625,0.6534056663513184,0.002404967322945595,1.6833540201187134
1782811708886283000,4.038282958984375,0.5571042895317078,-0.3483693599700928,1.506635308265686
1782811708896354800,4.048354736328125,0.4550197124481201,-0.6554648280143738,1.2659034729003906
1782811708906425900,4.05842578125,0.400310218334198,-0.8960787057876587,1.0230785608291626
1782811708916498000,4.068497802734375,0.39085277915000916,-1.001995325088501,0.8174729347229004
1782811708926569000,4.07856884765625,0.37974342703819275,-0.9992488026618958,0.6136521100997925
1782811708936641000,4.08864111328125,0.3143513798713684,-0.8753566145896912,0.36988285183906555
1782811708946713000,4.098713134765625,0.17619003355503082,-0.6351363062858582,0.05025777220726013
1782811708956784000,4.1087841796875,-0.03215118870139122,-0.33692944049835205,-0.3655548691749573
1782811708966856000,4.11885595703125,-0.2607215940952301,-0.047016143798828125,-0.8653731942176819
1782811708976926700,4.1289267578125,-0.4403046667575836,0.15422722697257996,-1.4039405584335327
1782811708986998800,4.138998779296875,-0.5272042751312256,0.17345194518566132,-1.9517983198165894
1782811708997070800,4.14907080078125,-0.5304477214813232,0.011499525047838688,-2.4547996520996094
1782811709007142000,4.159141845703125,-0.49652421474456787,-0.2506997287273407,-2.8460533618927
1782811709017213700,4.169213623046875,-0.45358312129974365,-0.5222625136375427,-3.0635950565338135
1782811709027284700,4.17928466796875,-0.4042522609233856,-0.7703884243965149,-3.0863938331604004
1782811709037356800,4.189356689453125,-0.33285239338874817,-0.9847875833511353,-2.923846960067749
1782811709047427800,4.199427734375,-0.2381289005279541,-1.1846752166748047,-2.596038818359375
1782811709057500000,4.2095,-0.15267550945281982,-1.3596433401107788,-2.174288034439087
1782811709067572000,4.219572021484375,-0.11646084487438202,-1.43116295337677,-1.7378231287002563
1782811709077643000,4.22964306640625,-0.16005119681358337,-1.4235972166061401,-1.3849067687988281
1782811709087714800,4.23971484375,-0.2523646652698517,-1.3852490186691284,-1.1353591680526733
1782811709097785900,4.249785888671875,-0.3802698850631714,-1.3414874076843262,-0.983170211315155
1782811709107858000,4.25985791015625,-0.5093163251876831,-1.1762633323669434,-0.8782612681388855
1782811709117930000,4.269929931640625,-0.610343337059021,-0.7111095190048218,-0.6777292490005493
1782811709128001000,4.2800009765625,-0.6767570376396179,-0.18742994964122772,-0.42284896969795227
1782811709138073000,4.290072998046875,-0.7081722021102905,0.19791454076766968,-0.20336110889911652
1782811709148144000,4.30014404296875,-0.7070846557617188,0.42469242215156555,-0.05307232588529587
1782811709158216000,4.3102158203125,-0.6807350516319275,0.5866783857345581,0.025543121621012688
1782811709168286700,4.32028662109375,-0.6404449343681335,0.7048525214195251,0.06856437772512436
1782811709178358800,4.33035888671875,-0.4781588613986969,0.8243626952171326,0.10213272273540497
1782811709188430800,4.340430908203125,-0.28642699122428894,0.8796100616455078,0.1308964043855667
1782811709198502000,4.350501953125,-0.1301545649766922,0.879816472530365,0.1500072479248047
1782811709208573700,4.36057373046875,-0.0004110481822863221,0.7056968212127686,0.170354425907135
1782811709218644700,4.370644775390625,0.09459642320871353,0.4570576846599579,0.21110478043556213
1782811709228716800,4.380716796875,0.16643939912319183,0.13822564482688904,0.2725944221019745
1782811709238788900,4.390788818359375,0.18659234046936035,-0.06732245534658432,0.42386969923973083
1782811709248860000,4.40085986328125,0.20147712528705597,-0.00945044681429863,0.668287992477417
1782811709258932000,4.410931884765625,0.18337242305278778,0.1676684021949768,0.943474292755127
1782811709269003000,4.4210029296875,0.14098992943763733,0.32074710726737976,1.2214059829711914
1782811709279074800,4.43107470703125,0.07388705760240555,0.3792935013771057,1.4824557304382324
1782811709289147000,4.44114697265625,0.0020307349041104317,0.39453941583633423,1.705536961555481
1782811709299218000,4.451218017578125,-0.06735606491565704,0.44602686166763306,1.8864871263504028
1782811709309290000,4.4612900390625,-0.1026342436671257,0.6159386038780212,2.0114786624908447
1782811709319361000,4.471361083984375,-0.13313834369182587,0.8138559460639954,2.0729243755340576
1782811709329433000,4.48143310546875,-0.18451346457004547,0.9435492157936096,2.023916244506836
1782811709339504000,4.491504150390625,-0.2764202356338501,1.0671942234039307,1.81205153465271
1782811709349576000,4.501575927734375,-0.3679771423339844,1.3288847208023071,1.4652889966964722
1782811709359648000,4.51164794921875,-0.342525839805603,1.6586713790893555,1.0699245929718018
1782811709369718800,4.52171875,-0.14389924705028534,1.715450644493103,0.7238540053367615
1782811709379790800,4.531790771484375,0.2056073546409607,1.3294273614883423,0.4901253879070282
1782811709389862000,4.54186181640625,0.5273181796073914,0.6884983777999878,0.3394153416156769
1782811709399933700,4.55193359375,0.6411861777305603,0.042583514004945755,0.18517383933067322
1782811709410005800,4.562005859375,0.5625119805335999,-0.43210145831108093,-0.005183357745409012
1782811709420076800,4.572076904296875,0.4163838028907776,-0.7529758810997009,-0.169222891330719
1782811709430148900,4.58214892578125,0.29772159457206726,-0.9293525218963623,-0.22477643191814423
1782811709440220000,4.592219970703125,0.21070200204849243,-1.0754082202911377,-0.20925073325634003
1782811709450292000,4.6022919921875,0.10208817571401596,-1.163401484489441,-0.1971200406551361
1782811709460363300,4.61236328125,-0.04243464767932892,-1.0622663497924805,-0.23069050908088684
1782811709470435300,4.622435302734375,-0.21008731424808502,-0.7447130680084229,-0.3199847638607025
1782811709480507400,4.63250732421875,-0.3320992588996887,-0.33459019660949707,-0.48552659153938293
1782811709490578400,4.642578369140625,-0.3797226846218109,-0.04375385120511055,-0.7555662989616394
1782811709500650500,4.652650390625,-0.3980495035648346,-0.09204868227243423,-1.1346323490142822
1782811709510721500,4.662721435546875,-0.44737178087234497,-0.4984264373779297,-1.5360699892044067
1782811709520793300,4.67279345703125,-0.5266692638397217,-1.053935170173645,-1.8319284915924072
1782811709530865400,4.682865478515625,-0.5649897456169128,-1.4057960510253906,-1.9247130155563354
1782811709540936400,4.6929365234375,-0.5415728092193604,-1.4837092161178589,-1.8366141319274902
1782811709551008500,4.703008544921875,-0.47631749510765076,-1.4108586311340332,-1.6173009872436523
1782811709561079600,4.71307958984375,-0.3876797556877136,-1.2730698585510254,-1.2862539291381836
1782811709571151600,4.723151611328125,-0.2977706789970398,-1.0878918170928955,-0.8875152468681335
1782811709581222400,4.733222412109375,-0.21372796595096588,-0.8907866477966309,-0.48587509989738464
1782811709591294200,4.743294189453125,-0.1294584721326828,-0.751067578792572,-0.12814706563949585
1782811709601366300,4.7533662109375,-0.038372501730918884,-0.6578111052513123,0.18293678760528564
1782811709611437300,4.763437255859375,0.06577612459659576,-0.594773530960083,0.46248573064804077
1782811709621509400,4.77350927734375,0.150412455201149,-0.5154792070388794,0.7064536213874817
1782811709631580400,4.783580322265625,0.1578960418701172,-0.36745721101760864,0.8933631777763367
1782811709641652200,4.79365234375,0.09826068580150604,-0.1543625146150589,0.9892699718475342
1782811709651724300,4.803724365234375,0.011861206032335758,0.08696961402893066,1.0057387351989746
1782811709661795300,4.81379541015625,-0.03742937743663788,0.3124871551990509,0.9594963788986206
1782811709671867400,4.823867431640625,-0.0005844893166795373,0.508190929889679,0.8717420697212219
1782811709681938400,4.8339384765625,0.10791189223527908,0.6506577730178833,0.7509360313415527
1782811709692010500,4.844010498046875,0.24978092312812805,0.7375704050064087,0.6373814940452576
1782811709702082300,4.854082275390625,0.38617685437202454,0.8193531632423401,0.5753706097602844
1782811709712153300,4.8641533203125,0.4870934784412384,0.9146243929862976,0.5697412490844727
1782811709722225400,4.874225341796875,0.521978497505188,1.002377986907959,0.6140498518943787
1782811709732296400,4.88429638671875,0.48458436131477356,1.0672450065612793,0.6902785301208496
1782811709742368500,4.894368408203125,0.4048461318016052,1.0856047868728638,0.7752850651741028
1782811709752439600,4.904439453125,0.31777334213256836,1.0592797994613647,0.8701737523078918
1782811709762511600,4.91451171875,0.24561208486557007,1.0012774467468262,0.9799809455871582
1782811709772583400,4.92458349609375,0.18117450177669525,0.8897722959518433,1.080409288406372
1782811709782654200,4.934654296875,0.11665676534175873,0.7536455988883972,1.1554558277130127
1782811709792726300,4.944726318359375,0.04074564948678017,0.6159331798553467,1.1624658107757568
1782811709802797300,4.95479736328125,-0.015762632712721825,0.5124989151954651,1.0741517543792725
1782811709812869400,4.964869384765625,-0.010665759444236755,0.46105048060417175,0.8688386678695679
1782811709822941200,4.974941162109375,0.0761767327785492,0.3830787241458893,0.5954113602638245
1782811709833012200,4.98501220703125,0.18042390048503876,0.2695592939853668,0.3384123146533966
1782811709843084300,4.995084228515625,0.2171238511800766,0.16851204633712769,0.1447160542011261
1782811709853155300,5.0051552734375,0.14929547905921936,0.13926073908805847,0.03928830102086067
1782811709863227400,5.015227294921875,0.022881336510181427,0.05952277034521103,0.04684821516275406
1782811709873298400,5.02529833984375,-0.08104566484689713,-0.06714199483394623,0.17903365194797516
1782811709883370500,5.03537060546875,-0.0891944020986557,-0.11516544967889786,0.426528662443161
1782811709893442300,5.0454423828125,0.013241170905530453,-0.044685665518045425,0.7344379425048828
1782811709903513300,5.055513427734375,0.11016558855772018,0.03248794749379158,1.0508233308792114
1782811709913585400,5.06558544921875,0.07291319221258163,0.06845972687005997,1.2914302349090576
1782811709923656400,5.075656494140625,-0.10218965262174606,0.1340581774711609,1.3824125528335571
1782811709933728500,5.085728515625,-0.2890332043170929,0.21800002455711365,1.2742109298706055
1782811709943800600,5.095800537109375,-0.4163070023059845,0.1708841770887375,0.9576257467269897
1782811709953871600,5.10587158203125,-0.45578742027282715,0.10121113806962967,0.5070818066596985
1782811709963943400,5.115943359375,-0.3948124945163727,0.15070891380310059,0.040120240300893784
1782811709974014200,5.12601416015625,-0.3190043866634369,0.268898606300354,-0.3574427366256714
1782811709984086300,5.136086181640625,-0.3302181661128998,0.30471333861351013,-0.6844701766967773
1782811709994157300,5.1461572265625,-0.3839659094810486,0.25079959630966187,-0.9413160681724548
1782811710004229400,5.1562294921875,-0.4273512065410614,0.13942459225654602,-1.1358085870742798
1782811710014301200,5.16630126953125,-0.46342119574546814,0.0007368362275883555,-1.2807062864303589
1782811710024372200,5.176372314453125,-0.46642976999282837,-0.07581759244203568,-1.354519248008728
1782811710034444300,5.1864443359375,-0.4291989207267761,-0.09470203518867493,-1.2769827842712402
1782811710044515300,5.196515380859375,-0.370033323764801,-0.16007092595100403,-1.0368551015853882
1782811710054587400,5.20658740234375,-0.3204488754272461,-0.3783848285675049,-0.7157300710678101
1782811710064659500,5.216659423828125,-0.2698749303817749,-0.7115254998207092,-0.377534955739975
1782811710074730500,5.22673046875,-0.21236218512058258,-1.0376605987548828,-0.07574056088924408
1782811710084802300,5.23680224609375,-0.13740432262420654,-1.227044939994812,0.13497592508792877
1782811710094873300,5.246873291015625,-0.0792459025979042,-1.2170062065124512,0.21745507419109344
1782811710104945400,5.2569453125,-0.059392299503088,-1.0405337810516357,0.16479267179965973
1782811710115016400,5.267016357421875,-0.07082198560237885,-0.7051945924758911,0.0006394420051947236
1782811710125088500,5.277088623046875,-0.09651083499193192,-0.25788795948028564,-0.21232502162456512
1782811710135160300,5.287160400390625,-0.13221509754657745,0.19580790400505066,-0.4197443425655365
1782811710145231400,5.2972314453125,-0.18208038806915283,0.5341481566429138,-0.5624653100967407
1782811710155303400,5.307303466796875,-0.24415899813175201,0.7085265517234802,-0.6184582710266113
1782811710165372400,5.317372314453125,-0.2975732386112213,0.7010619640350342,-0.5835356712341309
1782811710175443500,5.327443359375,-0.30763548612594604,0.5509892702102661,-0.48641225695610046
1782811710185515500,5.337515625,-0.28971534967422485,0.34853091835975647,-0.37479066848754883
1782811710195586600,5.347586669921875,-0.2711132764816284,0.1727752983570099,-0.2693460285663605
1782811710205658400,5.357658447265625,-0.22954396903514862,0.08462654799222946,-0.18662744760513306
1782811710215729400,5.3677294921875,-0.12276845425367355,0.13090965151786804,-0.12395604699850082
1782811710225801500,5.377801513671875,0.04761340096592903,0.2537735104560852,-0.06937402486801147
1782811710235873500,5.38787353515625,0.23360008001327515,0.37466466426849365,-0.013596533797681332
1782811710245944600,5.397944580078125,0.3896466791629791,0.4398939907550812,0.04964794963598251
1782811710256016400,5.408016357421875,0.48741698265075684,0.4439183473587036,0.15607187151908875
1782811710266087200,5.418087158203125,0.5180270671844482,0.41941219568252563,0.321994811296463
1782811710276159200,5.4281591796875,0.4761976897716522,0.4048817455768585,0.5546203851699829
1782811710286231300,5.438231201171875,0.37883812189102173,0.3510875105857849,0.8223897814750671
1782811710296302300,5.44830224609375,0.23822355270385742,0.22692672908306122,1.0774587392807007
1782811710306374400,5.45837451171875,0.12689436972141266,0.07968560606241226,1.2954261302947998
1782811710316445400,5.468445556640625,0.08781943470239639,0.059477414935827255,1.441825270652771
1782811710326517200,5.478517333984375,0.15633217990398407,0.1792517602443695,1.4786698818206787
1782811710336588300,5.48858837890625,0.3185909390449524,0.41582879424095154,1.4760258197784424
1782811710346660400,5.498660400390625,0.3619477152824402,1.0429408550262451,1.8195879459381104
1782811710356732400,5.508732421875,0.17677552998065948,1.1024539470672607,2.0538923740386963
1782811710366803500,5.518803466796875,0.011892294511198997,0.7170934677124023,2.046738862991333
1782811710376875500,5.52887548828125,0.0092388316988945,0.04702644795179367,1.7596932649612427
1782811710386946600,5.538946533203125,0.06975250691175461,-0.47434139251708984,1.2998671531677246
1782811710397018400,5.549018310546875,0.13171792030334473,-0.7124800086021423,0.72475665807724
1782811710407089400,5.55908935546875,0.16947489976882935,-0.8735794425010681,0.03977268189191818
1782811710417161500,5.569161376953125,0.1570502668619156,-0.9032106995582581,-0.6045233607292175
1782811710427233500,5.579233642578125,0.15605051815509796,-0.7517053484916687,-0.9049556255340576
1782811710437304600,5.5893046875,0.245413675904274,-0.5939594507217407,-0.6552750468254089
1782811710447376400,5.59937646484375,0.1859239786863327,-0.8134403824806213,-0.06161809712648392
