time,seconds_elapsed,z,y,x
1782811036772710400,0.07071044921875,-0.686549601009488,-0.07678542577773333,-0.924456293722242
1782811036782782200,0.0807822265625,-0.703843850159645,-0.09548749589920043,-0.8767559465229511
1782811036792853200,0.090853271484375,-0.5279214660644531,-0.10156389320343732,-0.8204416463658213
1782811036802924300,0.10092431640625,-0.28674305820465085,0.004544949953258037,-0.7064478951781987
1782811036812996400,0.110996337890625,-0.07796995938718318,0.1715644811466336,-0.5225307129368185
1782811036823067400,0.1210673828125,0.08782733653485775,0.28454949368312954,-0.3660222004942596
1782811036833138200,0.13113818359375,0.10598492451608181,0.24306144512742756,-0.2173024422317743
1782811036843210200,0.141210205078125,-0.05394435615539551,0.18402546492144464,-0.09162570590451359
1782811036853281300,0.15128125,-0.30275135919749735,0.1681869675375521,-0.10873100835382937
1782811036863352300,0.161352294921875,-0.3960509896636009,0.18682517864257095,-0.11456219872534275
1782811036873424400,0.17142431640625,-0.2607902863025665,0.2965178716354072,-0.0679969930358231
1782811036883495400,0.181495361328125,-0.12506254995167254,0.4211458295620978,0.0645560588017106
1782811036893566200,0.191566162109375,-0.1907207247763872,0.5605328190729022,0.1601534448161721
1782811036903638000,0.201637939453125,-0.3502934470951557,0.7247389002807438,0.2062619927793741
1782811036913709000,0.211708984375,-0.5203934086471795,0.779296566028893,0.2573329854555428
1782811036923780000,0.221780029296875,-0.6453846469283103,0.6096764969483017,0.2136750455148518
1782811036933852200,0.23185205078125,-0.7770254062265157,0.39660876967683434,0.19471125571727751
1782811036943923200,0.241923095703125,-0.7756155394285916,0.3966450100339949,0.1754198414005339
1782811036953994200,0.251994140625,-0.586534983074665,0.5208727896619588,0.25159473406448957
1782811036964065300,0.262065185546875,-0.26580489959418774,0.616094401166588,0.3985886914476752
1782811036974137300,0.272137451171875,0.04606090942919254,0.6341399070754646,0.5109077874213457
1782811036984208100,0.2822080078125,0.20293664774894712,0.5319564206689595,0.49583954375758765
1782811036994280200,0.2922802734375,0.10058978747427463,0.3775125126060098,0.4205484481908381
1782811037004351200,0.302351318359375,-0.15897475642561912,0.25867446319237347,0.3337500163123011
1782811037014422300,0.31242236328125,-0.29322131430804727,0.1428502817071974,0.2394520224586129
1782811037024494000,0.322494140625,-0.4329939421355724,0.04117722904086113,0.21316987247169017
1782811037034565000,0.332565185546875,-0.5776420670449733,0.006674436262622476,0.23781989121213554
1782811037044636200,0.34263623046875,-0.6663286507576703,0.06610668577719479,0.352961789521575
1782811037054707200,0.352707275390625,-0.6456359913408756,0.12053407620918005,0.5353365646265447
1782811037064779300,0.362779296875,-0.6000123042851686,0.07660013233870268,0.6661712682388723
1782811037074850300,0.372850341796875,-0.7166308510184287,-0.034282281895354386,0.7384573367707431
1782811037084921000,0.382921142578125,-0.9742729024231433,-0.13731290491679682,0.7445087457641959
1782811037094993200,0.3929931640625,-1.1547779381334782,-0.08580865365620702,0.7553884516969323
1782811037105064200,0.403064208984375,-1.1664070011287926,-0.013874407936423085,0.8675605404153466
1782811037115135200,0.41313525390625,-0.9977455479472875,-0.037942754331394095,0.9554131575219332
1782811037125207300,0.423207275390625,-0.9231757523924112,-0.14574973860890603,1.0150773526288568
1782811037135278300,0.4332783203125,-0.9725485628485679,-0.2828693037775345,1.0210067426778375
1782811037145349400,0.443349365234375,-1.0557950013339519,-0.43318175632525235,1.0442983325466513
1782811037155421200,0.453421142578125,-1.324014560854435,-0.5073466243410483,1.0643521095380186
1782811037165492200,0.4634921875,-1.496788710051775,-0.5445841758454218,1.0890195908699185
1782811037175563300,0.473563232421875,-1.4579355400443077,-0.565533440371789,1.1034905992928892
1782811037185635300,0.48363525390625,-1.312593003129959,-0.5450119362708181,1.1215545176412909
1782811037195706000,0.4937060546875,-1.1521826609432697,-0.5433989846488461,1.1207961004894227
1782811037205777200,0.503777099609375,-1.0232359630346297,-0.6352841086745262,1.0998427443098275
1782811037215849200,0.51384912109375,-1.0118880550682545,-0.7224628451075404,1.0976126471702008
1782811037225920300,0.523920166015625,-0.997917981904745,-0.7926250533532351,1.0421928847000002
1782811037235991300,0.5339912109375,-0.8598246854662894,-0.8213592726673931,0.9971896676301956
1782811037246063400,0.5440634765625,-0.7365116095304489,-0.8757145477112382,0.939160599444434
1782811037256134100,0.554134033203125,-0.7748422169685363,-0.8452145608335733,0.860593550946936
1782811037266205200,0.564205078125,-0.8957184211462735,-0.747694828454405,0.7540703548356891
1782811037276277200,0.57427734375,-0.9864110839843749,-0.6743549400206655,0.6316149186424911
1782811037286348000,0.58434814453125,-1.0494710590094327,-0.6890097075127065,0.5255873970936984
1782811037296419000,0.594419189453125,-1.0457897401481866,-0.7122198296431451,0.4205743863496929
1782811037306491100,0.6044912109375,-0.770383483994007,-0.6224756266362965,0.39212709421813485
1782811037316562200,0.614562255859375,-0.40531741518080233,-0.5188705829940736,0.408376473957859
1782811037326633200,0.62463330078125,-0.1333954940110445,-0.4094722698379308,0.40963407280351966
1782811037336705300,0.634705322265625,0.04913257195949554,-0.2857344656839967,0.35995464408360417
1782811037346776300,0.6447763671875,0.11061609144806861,-0.2145626420043409,0.30668636055886744
1782811037356847400,0.654847412109375,0.018671967244148255,-0.18594963791705668,0.22923037857580927
1782811037366919200,0.664919189453125,0.0889969648361206,-0.3077763477526605,0.04848123191129416
1782811037376990200,0.674990234375,0.27782150060236455,-0.4508296046860516,-0.2409386077545583
1782811037387061000,0.68506103515625,0.3276017228156328,-0.5501718032520264,-0.5243862411430106
1782811037397133000,0.695133056640625,0.09300327786803245,-0.6871884834349155,-0.8770635511673986
1782811037407204000,0.7052041015625,-0.3747960201889276,-0.8114908626690507,-1.2569434504918753
1782811037417275100,0.715275146484375,-0.7244383098989725,-0.7402949274614453,-1.420925659815967
1782811037427347200,0.72534716796875,-0.6876566854685544,-0.5364812046170234,-1.3770108225047588
1782811037437418200,0.735418212890625,-0.37612756105363365,-0.25682079814970493,-1.1126215618621558
1782811037447489300,0.7454892578125,-0.03221124777495861,-0.020591537129878996,-0.728957102497667
1782811037457561300,0.755561279296875,0.16057342379391193,0.034543782375752924,-0.3970548694765195
1782811037467632400,0.76563232421875,0.17968319793343543,0.030652839351817965,-0.13325122670214623
1782811037477703400,0.775703369140625,0.06473638380467892,0.013378683141618965,0.06807734652934595
1782811037487775200,0.785775146484375,-0.07073357839286327,0.015849311038851736,0.174067897068616
1782811037497846000,0.795845947265625,-0.03715454939603805,0.011936959900707006,0.2687909114013426
1782811037507917000,0.8059169921875,-0.01738718813061714,-0.006161152978241443,0.36329591733552513
1782811037517989000,0.815989013671875,-0.03143441818356514,0.0046031829465180635,0.4189679010011256
1782811037528060200,0.82606005859375,0.002565466573834419,0.040961102072149515,0.4817047084864229
1782811037538131200,0.836131103515625,0.15730653095245362,0.0706716921377927,0.5338623273555189
1782811037548203300,0.846203369140625,0.290317994081974,0.1327191291194409,0.5322909133203327
1782811037558274300,0.8562744140625,0.1788081686645746,0.16303418788425622,0.5276101350929587
1782811037568345300,0.866345458984375,-0.15970482426583765,0.18320669588446617,0.4225885757163167
1782811037578417400,0.87641748046875,-0.4539408685743809,0.14902999325543642,0.27650778765529394
1782811037588488200,0.88648828125,-0.5710229411661625,0.0485989765394479,0.09806856190096587
1782811037598559200,0.896559326171875,-0.5092839856117963,-0.0918059578422457,-0.11357534311246126
1782811037608631000,0.906631103515625,-0.4275993896156549,-0.19254852472543715,-0.2826367553969845
1782811037618702000,0.9167021484375,-0.3746130648374557,-0.24370544211938977,-0.4014316232560202
1782811037628773000,0.926773193359375,-0.29795009639561176,-0.162782843471691,-0.49052170973569154
1782811037638844200,0.93684423828125,-0.20220015016794204,-0.05719670901484787,-0.46657698972038925
1782811037648916200,0.946916259765625,-0.12094926941394805,0.029711686044186354,-0.40656774403546003
1782811037658987300,0.9569873046875,-0.03768704883754253,0.13907909260541199,-0.3029170346206054
1782811037669058300,0.967058349609375,0.021370120286941525,0.19107289921492338,-0.1913525564065203
1782811037679130400,0.97713037109375,0.07900164052248,0.20159027464129028,-0.1271752677893266
1782811037689201200,0.987201171875,0.16978256616592408,0.22798121876493094,-0.05019406371116638
1782811037699272200,0.997272216796875,0.3326403015047312,0.21995734065473077,0.001112673949636519
1782811037709344300,1.00734423828125,0.41487493259906766,0.23479641520511357,0.09179083333835006
1782811037719415300,1.017415283203125,0.3893699044644832,0.287982098480314,0.18690288352128118
1782811037729486300,1.027486328125,0.39984336768388745,0.27542156332116574,0.23061083661615847
1782811037739558100,1.03755810546875,0.4284311642646789,0.23352431291006503,0.18585753918681291
1782811037749629200,1.047629150390625,0.45594402509033677,0.1818073504805565,0.12879574513062833
1782811037759700200,1.0577001953125,0.4196101444274187,0.0785128706248477,0.07885346422344446
1782811037769772300,1.067772216796875,0.22948329389095304,-0.012803732797876,0.008741561392880976
1782811037779843300,1.07784326171875,0.043106151276826855,-0.03752696290500462,-0.06368099300023168
1782811037789914000,1.0879140625,-0.027558453533053397,-0.0941465661516413,-0.14847831418942659
1782811037799986200,1.097986083984375,-0.028467969593405723,-0.12286891236491501,-0.19440986161790788
1782811037810057200,1.10805712890625,0.02261690547764301,-0.1879819839948788,-0.268435138499923
1782811037820128300,1.118128173828125,0.07050444581210613,-0.23404413553308695,-0.302831986685656
1782811037830200300,1.128200439453125,-0.005514379507303237,-0.18524251256100832,-0.2824922323597595
1782811037840271400,1.138271240234375,-0.22675649927556513,-0.19026706272475422,-0.3139376468613744
1782811037850342400,1.14834228515625,-0.44949850221276283,-0.2769963748898357,-0.39228451326955105
1782811037860414500,1.15841455078125,-0.6339671808570623,-0.3477109928539023,-0.4363428507046774
1782811037870485500,1.168485595703125,-0.6213309866458178,-0.4256770797835663,-0.4858148472189903
1782811037880556500,1.178556640625,-0.3868412627696991,-0.4946039375480264,-0.48725200388263906
1782811037890628600,1.188628662109375,-0.11738368588685989,-0.5381707651391625,-0.4568299045467749
1782811037900699600,1.19869970703125,0.06919628582298755,-0.5135422275781631,-0.34688462503235784
1782811037910770700,1.208770751953125,0.12170914787054062,-0.4912279217762872,-0.17259641801025719
1782811037920842800,1.2188427734375,0.11395254239439964,-0.43257100401576604,-0.01989325266741216
1782811037930913500,1.22891357421875,0.0802653768479824,-0.36539109951648857,0.14838365817591548
1782811037940984600,1.238984619140625,0.06142448277771473,-0.3164808650707826,0.23347042729835957
1782811037951056400,1.249056396484375,0.06508358980715274,-0.2865550613518804,0.2640346385186538
1782811037961127400,1.25912744140625,0.09374094449281692,-0.23137396647576242,0.3238664087448269
1782811037971198500,1.269198486328125,0.044531800165772434,-0.15618077832553534,0.339499592814967
1782811037981270500,1.2792705078125,-0.00807400086224079,-0.16902495273165405,0.31876134069077666
1782811037991341600,1.289341552734375,-0.05188859266936779,-0.2302255636256188,0.24313765216879546
1782811038001412600,1.29941259765625,-0.045271220356225966,-0.2854518493503332,0.12309241892248392
1782811038011484700,1.309484619140625,-0.0028618191719055174,-0.29596600990630684,0.05848711415156722
1782811038021555700,1.3195556640625,0.16734744797348974,-0.2829864090848714,0.07588460448049009
1782811038031626500,1.32962646484375,0.32079321184456344,-0.2120364845275879,0.13718582620471714
1782811038041698600,1.339698486328125,0.35033553267121315,-0.1455153727306053,0.17009850024729967
1782811038051769600,1.34976953125,0.44279929683506486,-0.1485633255917579,0.18929193408228456
1782811038061840600,1.359840576171875,0.5088590381979942,-0.19524357249569146,0.16303506466709075
1782811038071912400,1.369912353515625,0.4076853133559227,-0.21469591299518942,0.11188947238475083
1782811038081983500,1.3799833984375,0.15286884076595306,-0.23644122327007353,0.08030424755364655
1782811038092054500,1.390054443359375,-0.11863748534023762,-0.24493838144782928,0.056697308125346894
1782811038102126600,1.400126708984375,-0.2910328643530607,-0.22302925891336053,0.06292736162133515
1782811038112197600,1.41019775390625,-0.37218612995147704,-0.1777084272617474,0.08224142616130412
1782811038122268400,1.420268310546875,-0.37439036199748515,-0.13335107034742832,0.11622406752295791
1782811038132339500,1.43033935546875,-0.3774123401671648,-0.12147307409234344,0.13572079515345395
1782811038142411500,1.44041162109375,-0.4193640607118606,-0.10728972350433469,0.10907098089791833
1782811038152482600,1.450482666015625,-0.40237025581300256,-0.07707012447062879,0.08497757312692701
1782811038162553600,1.4605537109375,-0.36922260397076606,-0.05457830667737871,0.05556845022588968
1782811038172625700,1.470625732421875,-0.32020635186731816,-0.05041746067088097,0.037260201727598904
1782811038182696700,1.48069677734375,-0.24303894103467463,-0.046545733804069456,0.022917495859414338
1782811038192767700,1.490767822265625,-0.2111824980467558,-0.05245674794614315,-0.008896350095793605
1782811038202839600,1.500839599609375,-0.13066168513298035,-0.027800701323710382,0.006058277125656604
1782811038212910600,1.51091064453125,0.06429740786552429,-0.01195427636168897,0.029874329259991644
1782811038222981400,1.5209814453125,0.20653905615508555,-0.012531857053935527,0.05263122773021459
1782811038233053400,1.531053466796875,0.20777473542988298,-0.04102689731735736,0.01564377852939069
1782811038243124500,1.54112451171875,0.14891162757277487,-0.10733515181494876,-0.049464726523309945
1782811038253195500,1.551195556640625,0.09870821151137352,-0.12067154845111071,-0.0899130567677319
1782811038263267600,1.561267578125,0.11079027897119521,-0.15095681486586107,-0.12824490631483496
1782811038273338600,1.571338623046875,0.166944127869606,-0.1609471524771303,-0.12185783562622964
1782811038283409700,1.58140966796875,0.213830382207036,-0.13984689864013344,-0.10667677923776209
1782811038293481500,1.5914814453125,0.16304244425594805,-0.11807893814202397,-0.10852503745295107
1782811038303552500,1.601552490234375,0.08158698084056377,-0.10199755364665761,-0.17354929828830062
1782811038313623600,1.61162353515625,0.012514613658189773,-0.09865058130631223,-0.2220091586180031
1782811038323695600,1.621695556640625,0.030932898402214047,-0.11963363850442692,-0.25432985811680553
1782811038333766400,1.631766357421875,0.10697276650965214,-0.1419270476487465,-0.24489063331596553
1782811038343837400,1.64183740234375,0.1478261704236269,-0.11194885615548118,-0.2366619533486664
1782811038353909500,1.651909423828125,0.1544569867402315,-0.08309391480479389,-0.19339798116162418
1782811038363980500,1.66198046875,0.10130699583292006,-0.04712773494310677,-0.1693433710310608
1782811038374051600,1.672051513671875,0.010661679267883301,-0.04766087370542809,-0.14764679526872931
1782811038384123600,1.68212353515625,-0.03388414942324161,-0.06106322998357936,-0.17634360518194733
1782811038394194700,1.692194580078125,-0.12322715121805668,-0.09980271048350259,-0.18675956606045363
1782811038404265700,1.702265625,-0.20369360359609126,-0.12237236101962626,-0.20653649887181819
1782811038414337500,1.712337646484375,-0.11646540199816226,-0.1607226778051816,-0.2418579145565629
1782811038424408300,1.722408203125,-0.026681086176633832,-0.18030094623928888,-0.22792612757682798
1782811038434479400,1.732479248046875,-0.07027940488457679,-0.16563076198240742,-0.21655454647392033
1782811038444551400,1.742551513671875,-0.013259879067540168,-0.16522335022529586,-0.20766440692320465
1782811038454622500,1.75262255859375,0.11580489226281643,-0.21811405087560415,-0.17874840130135417
1782811038464693500,1.762693603515625,0.13482523455321788,-0.23562298395605757,-0.14809336999244987
1782811038474764500,1.7727646484375,0.12465864532589911,-0.22682477873880416,-0.15020846245028077
1782811038484836600,1.782836669921875,0.10832768824994564,-0.2241045599946752,-0.131381743035838
1782811038494907600,1.79290771484375,0.078522332572937,-0.20845095419101417,-0.10788695874512196
1782811038504978700,1.802978759765625,0.054796004548668856,-0.19237430066969244,-0.04377433286197483
1782811038515050800,1.81305078125,0.09888064546883106,-0.17166052539963275,-0.0023428367991000414
1782811038525121500,1.82312158203125,0.1596943028718233,-0.1455605635792017,0.04645049326866865
1782811038535192600,1.833192626953125,0.15296528687775135,-0.12968135059243066,0.0743320412762463
1782811038545264400,1.843264404296875,0.11833704108893871,-0.08424253685064613,0.09073745182789862
1782811038555335400,1.85333544921875,0.010963877084851264,-0.06949733286248519,0.07803703327402473
1782811038565406500,1.863406494140625,-0.05567512547075748,-0.10940764724006875,0.03493212410621345
1782811038575478500,1.873478515625,-0.0881862329751253,-0.16435917114401236,0.015254633081331848
1782811038585549600,1.883549560546875,-0.08772562972605227,-0.19607184001337735,-0.045641441908106206
1782811038595620600,1.89362060546875,-0.06370762527883052,-0.19769023499544708,-0.07491773220971226
1782811038605692700,1.903692626953125,-0.004175239858031273,-0.17862210804056375,-0.07185556816011666
1782811038615763700,1.913763671875,0.0918511852234602,-0.13895284501039423,-0.02947268965654075
1782811038625834500,1.92383447265625,0.12689268798828124,-0.10216653527170419,0.020883725009486077
1782811038635906600,1.933906494140625,0.11762743151485919,-0.04347914017452858,0.07771364653855561
1782811038645977600,1.9439775390625,0.003114332628250122,-0.024310178627097046,0.08794467930421232
1782811038656048600,1.954048583984375,-0.11249591384530067,0.01947850698721595,0.0778195180658251
1782811038666120400,1.964120361328125,-0.1032446858972311,0.010697024575900285,0.05282105121389031
1782811038676191500,1.97419140625,-0.05417290421426296,-0.02300726563525386,0.041102702499926085
1782811038686262500,1.984262451171875,-0.07466215001344681,-0.058161658756597893,0.02452098553329706
1782811038696334600,1.99433447265625,-0.06920213104188441,-0.05528241809243336,-0.0198219409968704
1782811038706405600,2.004405517578125,-0.029851532906293866,-0.06729180390853434,-0.05120251010134816
1782811038716476400,2.014476318359375,0.02389583937227726,-0.06641428128848784,-0.06558883591555059
1782811038726548500,2.024548583984375,0.0662532181084156,-0.051619566469639534,-0.0623160978551954
1782811038736619500,2.03461962890625,0.10438742619156836,-0.0764275157181546,-0.09955891005657613
1782811038746690600,2.044690673828125,0.14381459669470786,-0.10090457077817991,-0.10663206331320106
1782811038756762600,2.0547626953125,0.14050035758018492,-0.11392240298446267,-0.14262575223632157
1782811038766833700,2.064833740234375,0.03299041545391083,-0.09333029959900305,-0.15445654834881423
1782811038776904700,2.07490478515625,-0.09932079045176505,-0.092943336974876,-0.1938928520064801
1782811038786976500,2.0849765625,-0.13120587501227854,-0.07111794263452757,-0.18890096200332043
1782811038797047600,2.095047607421875,-0.13854220924973487,-0.0859187538340222,-0.17664478008560835
1782811038807118600,2.10511865234375,-0.13267244043350218,-0.11238810608927159,-0.20802776034288106
1782811038817190700,2.115190673828125,-0.15453706623911856,-0.13756518091112374,-0.22850100485533476
1782811038827261400,2.125261474609375,-0.10880582715570926,-0.12537484903754667,-0.2232707760516554
1782811038837332200,2.135332275390625,0.038543957927823065,-0.09967473672227933,-0.17801365728601812
1782811038847404300,2.145404296875,0.15153320824801922,-0.10055265206797048,-0.1349373166255653
1782811038857475300,2.155475341796875,0.18650106125473975,-0.0855330515852198,-0.05965878827944398
1782811038867546400,2.16554638671875,0.23276421525776386,-0.036027600325876846,-0.005976370995864272
1782811038877617400,2.175617431640625,0.17010580677092074,-0.03897758183842524,-0.00226991769336164
1782811038887689500,2.185689453125,0.034904140120744706,-0.006620103126345202,-0.033473011339083314
1782811038897760500,2.195760498046875,-0.04553367068469524,-0.0314624250019202,-0.058229559193924064
1782811038907831300,2.205831298828125,0.01610416258275509,-0.07962888730904087,-0.06401647203229367
1782811038917903000,2.215903076171875,0.058117842447757716,-0.09112469757981598,-0.03979454251080751
1782811038927974100,2.22597412109375,0.06960077497065068,-0.07459896685043349,-0.025991788738220927
1782811038938045200,2.236045166015625,0.03976736224293709,-0.05108705332840327,0.0005639905583113431
1782811038948117200,2.2461171875,-0.0051508068919181825,-0.05200921424119733,0.014825228688120841
1782811038958188300,2.256188232421875,0.003850830209255218,-0.07788626315910369,0.036294644631072875
1782811038968259300,2.26625927734375,0.04203589169681072,-0.06926400359722319,0.03438844568356871
1782811038978331400,2.276331298828125,0.11645371156036853,-0.05491760793460999,0.023168474945798514
1782811038988402400,2.28640234375,0.13160802607238292,-0.08460377137847244,0.040359263721480965
1782811038998473500,2.296473388671875,0.13361176711022854,-0.06739852938575204,-0.012030483403056859
1782811039008545300,2.306545166015625,0.06140519355535507,-0.03407626989528071,0.017200798713043332
1782811039018616300,2.3166162109375,0.007322305712103843,-0.003033081802295055,0.037413419527933
1782811039028687400,2.326687255859375,0.002297171026468277,0.009056541059608571,0.05099310513436794
1782811039038759200,2.33675927734375,-0.013255787414312362,-0.006995736072282307,0.027007906978204845
1782811039048830200,2.346830322265625,-0.03440437390506267,-0.024710626353882253,0.0017387334261089562
1782811039058901200,2.3569013671875,-0.06313888548016548,-0.03256122797311982,-0.04062704781219363
1782811039068973300,2.366973388671875,-0.13482523455321788,-0.04962455672752112,-0.0632126083035022
1782811039079044400,2.37704443359375,-0.16666940258145332,-0.10349110753950662,-0.08491524848043919
1782811039089115400,2.387115478515625,-0.12476502830982207,-0.12758855216479859,-0.09322525005564093
1782811039099187500,2.3971875,-0.07319616911411285,-0.15497262637848033,-0.05863806692957878
1782811039109258500,2.407258544921875,-0.06987257764935494,-0.1452312950922176,-0.03114244949966669
1782811039119329300,2.417329345703125,-0.046126375880837435,-0.10254688549195416,-0.013856822047382592
1782811039129401000,2.427401123046875,-0.07887363022863865,-0.08578183871451765,0.029604645473137497
1782811039139472100,2.43747216796875,-0.15881693551540374,-0.05311651332939509,0.09088285164795816
1782811039149543200,2.447543212890625,-0.197435127723217,-0.021267194202006793,0.0843084416937083
1782811039159615200,2.457615234375,-0.17242811223864554,-0.052288081414927724,0.07893617407083511
1782811039169686300,2.467686279296875,-0.1367810447961092,-0.06216810421925038,0.05336904048547148
1782811039179757300,2.47775732421875,-0.10083353310227393,-0.0635439454499865,0.06372063089087605
1782811039189828400,2.487828369140625,-0.07085223633646964,-0.08135382967181504,0.07209639117866753
1782811039199900400,2.497900390625,0.02048106249272823,-0.08833607150828465,0.02471709262728691
1782811039209971200,2.50797119140625,0.1034141972452402,-0.10668419535923748,0.00268361306078732
1782811039220042200,2.518042236328125,0.12555471738278864,-0.1097063379256986,-0.037157398940250275
1782811039230114300,2.5281142578125,0.07550210796892642,-0.12006614817017688,-0.0698291038338095
1782811039240185300,2.538185302734375,0.07248071432113647,-0.14216864698543213,-0.07844992492385208
1782811039250256400,2.54825634765625,0.11819558679163455,-0.12760163084208034,-0.05147343599721789
1782811039260328200,2.558328125,0.053210196661949156,-0.07948374321730807,-0.005363499794527888
1782811039270399200,2.568399169921875,0.011988543957471847,-0.0420453810443636,0.0040865386612713335
1782811039280470300,2.57847021484375,0.06431611256599426,-0.03768684790814295,0.013752850216254591
1782811039290542300,2.588542236328125,0.12470599159896373,-0.04849979048129171,0.05801014428958296
1782811039300613400,2.59861328125,0.0722568424373865,-0.06562753309127874,0.04724624675624072
1782811039310684200,2.60868408203125,-0.0030196400821208952,-0.06005221717697568,0.025255291157215833
1782811039320756200,2.618756103515625,0.04155483018159866,-0.050282518312754106,0.033042876293510194
1782811039330827300,2.6288271484375,0.11237024163901806,-0.046168479723203926,0.06997245782725513
1782811039340898300,2.638898193359375,0.037167993399500845,-0.06419280584673397,0.053060997449606656
1782811039350970400,2.648970458984375,-0.16500000806450843,-0.04211356917605735,0.022831351945921778
1782811039361041400,2.65904150390625,-0.23530922356545925,-0.03677044544927776,-0.025507731548324225
1782811039371112400,2.669112548828125,-0.10474573810994625,-0.06435586005449295,-0.005696238880231976
1782811039381184300,2.679184326171875,0.01665653576850891,-0.058591323444712906,0.031075887069478628
1782811039391255300,2.68925537109375,0.059011576417088506,-0.057183630337566134,0.06136003923937678
1782811039401326300,2.699326416015625,0.08021627700924873,-0.015998747713211924,0.09025200639851391
1782811039411398400,2.7093984375,0.0983516531586647,-0.01781140489205718,0.09464154659435152
1782811039421469200,2.71946923828125,0.05772679730355739,0.018147358848154545,0.13958843036703764
1782811039431540200,2.729540283203125,-0.006318097105622291,0.02885612866077572,0.13446882233098148
1782811039441612300,2.7396123046875,-0.13678513644933699,0.013934344263002276,0.0779356187261641
1782811039451683300,2.749683349609375,-0.19791092854142187,-0.019116514407563952,0.011310498565435409
1782811039461754400,2.75975439453125,-0.18746435332894323,-0.03254709213320166,-0.014692542219161987
1782811039471826400,2.769826416015625,-0.12323942617774009,-0.010447360663767903,-0.03393909448087215
1782811039481897500,2.7798974609375,-0.02460954059958458,0.008432495443709194,-0.03940510480180383
1782811039491968500,2.789968505859375,0.0662006111383438,-0.00836887388927862,-0.03362264894284308
1782811039502039300,2.800039306640625,0.09982464832067489,-0.00383700261330232,-0.06713321581333875
1782811039512111000,2.810111083984375,0.0850011731982231,-0.005299933039024472,-0.07740012360997497
1782811039522182100,2.82018212890625,0.1067214220970869,-0.007306998545117676,-0.07586699575856327
1782811039532253200,2.830253173828125,0.09419336443543433,-0.016977566150110215,-0.05640811592042446
1782811039542325200,2.8403251953125,0.06599661299884318,0.019988456670194863,-0.02518580611757934
1782811039552396300,2.850396240234375,0.08466331954598426,0.03103431295007467,0.016367781955003737
1782811039562467300,2.86046728515625,0.12950374726951122,0.03125838576322421,0.0171782946202904
1782811039572539400,2.870539306640625,0.1240448973417282,-0.019992383926641193,-0.012784808901697397
1782811039582610400,2.8806103515625,0.06299801570475101,-0.01870859119379893,-0.049712636869773265
1782811039592681500,2.890681396484375,0.03164367702007294,-0.009309808001201599,-0.05434782238975167
1782811039602753300,2.900753173828125,0.03771393684446812,-0.025197039897646753,-0.02947181287370622
1782811039612824300,2.91082421875,-0.026699206355214118,-0.006813150613568723,-0.01694499732106924
1782811039622895400,2.920895263671875,-0.01074701946377754,-0.013164748129993676,-0.004293386344984174
1782811039632967200,2.93096728515625,0.03999298769235611,-0.034310265880823136,0.0054533700350672
1782811039643038200,2.9410380859375,0.05244096585512161,-0.0507697264409624,0.01844181175008416
1782811039653109200,2.951109130859375,-0.07208908465504646,-0.03962771631022915,-0.00023439327776432036
1782811039663181300,2.961181396484375,-0.14174422016143798,-0.03146125139156356,-0.026267683070152998
1782811039673252400,2.97125244140625,-0.19468729031980037,-0.03107252606861293,-0.03561674536950886
1782811039683323400,2.981323486328125,-0.18347265334427357,-0.01828294966025278,-0.05662058962732553
1782811039693395500,2.9913955078125,-0.1323451081752777,-0.045564065822958945,-0.07865005060583352
1782811039703466500,3.001466552734375,-0.078570847889781,-0.08208437243606895,-0.14024134131781757
1782811039713537300,3.011537353515625,-0.035297523352503773,-0.09594808088196441,-0.18485804328806696
1782811039723609000,3.021609130859375,0.007861234894394874,-0.11358001928757876,-0.21392931253686545
1782811039733680000,3.03168017578125,0.12388123121261596,-0.13820441039642317,-0.20262217497229576
1782811039743751200,3.041751220703125,0.18194646669030187,-0.14412771776448935,-0.18414982195347546
1782811039753823200,3.0518232421875,0.09724866035282612,-0.10253752400856464,-0.16751798223480582
1782811039763894300,3.061894287109375,-0.020122750574350357,-0.06798561312528327,-0.15606398354545234
1782811039773965300,3.07196533203125,0.007542085942625999,-0.020842662346735596,-0.11415902475193142
1782811039784036400,3.082036376953125,0.024725860455632208,0.0066337571923621,-0.049153249421343206
1782811039794108400,3.0921083984375,0.014564531925320624,-0.004273329937644303,-0.017430223554745314
1782811039804179200,3.10217919921875,0.007626257094740867,-0.07078932716809212,-0.054470645051822066
1782811039814250200,3.112250244140625,0.04863163670003414,-0.11390464813206344,-0.09247260505743324
1782811039824322300,3.122322265625,0.01678279249668121,-0.09126699212733656,-0.09459091238565742
1782811039834393600,3.1323935546875,-0.03277531139850616,-0.11943174099046737,-0.10000811512880027
1782811039844464600,3.142464599609375,-0.010942834296822548,-0.11284173160828649,-0.08723806540481746
1782811039854536400,3.152536376953125,0.009582651859521864,-0.12384941130224615,-0.08504479314424097
1782811039864607500,3.162607421875,0.02853694317638874,-0.13137688419762997,-0.05991020575724542
1782811039874678500,3.172678466796875,0.10861994919478893,-0.13773929536901414,-0.053423327955976124
1782811039884750600,3.18275048828125,0.15923954484164715,-0.1346815517662093,-0.028301088593900202
1782811039894821600,3.192821533203125,0.1551671808362007,-0.10058449024464934,0.05142258259281516
1782811039904892400,3.202892333984375,0.0247480722874403,-0.024059322838298976,0.09068367581404745
1782811039914964500,3.212964599609375,-0.1139367603033781,-0.0005721007995307445,0.08197247302681207
1782811039925035500,3.223035400390625,-0.16660978134870527,-0.03474595388434827,0.0008003565974533558
1782811039935106600,3.2331064453125,-0.17366788316667078,-0.07136994006764143,-0.05263100853450596
1782811039945178600,3.2431787109375,-0.18822247821986673,-0.0844859536850825,-0.1065438735730946
1782811039955249700,3.253249755859375,-0.1249772097557783,-0.10642992833722383,-0.14407500119656325
1782811039965320700,3.26332080078125,-0.05118541283607483,-0.11635295459963381,-0.1742100272193551
1782811039975392500,3.273392578125,-0.022957097217440603,-0.10350669783428311,-0.16200272594466805
1782811039985463600,3.283463623046875,-0.03199731276333332,-0.10407901782952249,-0.15836590381227433
1782811039995534600,3.29353466796875,0.022527473628520964,-0.10051741635780781,-0.12894092575497926
1782811040005606700,3.303606689453125,0.11799509578347206,-0.07190660422760993,-0.10196582506783305
1782811040015677400,3.313677490234375,0.15369652376174925,-0.06476663281247019,-0.053858796763792634
1782811040025748500,3.32374853515625,0.136619132232666,-0.06110613754354417,0.005984335106611251
1782811040035820500,3.333820556640625,0.0624538258254528,-0.032080132208578284,0.037959289907664055
1782811040045891600,3.3438916015625,-0.06131342361867428,-0.02591233029384166,0.04984532333873212
1782811040055962600,3.353962646484375,-0.1708914041906595,-0.03558218551278114,0.07538834539614617
1782811040066033700,3.36403369140625,-0.21338848365843294,-0.0664078241482377,0.049656815029308195
1782811040076105500,3.37410546875,-0.17792729417681694,-0.09689524380527437,0.05645524299778044
1782811040086176500,3.384176513671875,-0.09390928679704666,-0.06025558512881398,0.08642470319531857
1782811040096247600,3.39424755859375,-0.044379824474453926,-0.08466043346915393,0.07735957240387797
1782811040106319600,3.404319580078125,0.00021101240217685698,-0.09553232142161577,0.07964812173247336
1782811040116390400,3.414390380859375,0.08834171579778194,-0.09228617910724132,0.08820281878374517
1782811040126461400,3.42446142578125,0.1725695665359497,-0.09614910161308944,0.07505531404949724
1782811040136533500,3.434533447265625,0.19692659367918966,-0.1021631742708385,0.08284969425275922
1782811040146604500,3.4446044921875,0.12194997088909149,-0.05114226781409233,0.11061652983948587
1782811040156675600,3.454675537109375,0.02559679807126522,-0.06688804541323333,0.06883987360075115
1782811040166747600,3.46474755859375,-0.07729717469215393,-0.08818897292148321,0.01757423513531685
1782811040176818700,3.474818603515625,-0.17098843482434747,-0.09146116299256682,-0.026908611322194336
1782811040186889700,3.4848896484375,-0.14073650442361832,-0.09107676678486168,-0.06489705425910651
1782811040196961500,3.49496142578125,-0.06445055260062217,-0.06202982825972139,-0.06855543063618243
1782811040207032300,3.5050322265625,-0.00820610280930996,-0.06361760890781878,-0.02876680640950799
1782811040217103400,3.515103271484375,-0.0915852277636528,0.00006985036581754684,0.00893865486755967
1782811040227175400,3.525175537109375,-0.12015958034098148,0.008877499264851213,-0.03779693895280361
1782811040237246500,3.53524658203125,-0.061301148658990855,-0.024741642546653748,-0.09438844861611724
1782811040247317500,3.5453173828125,-0.06848726077079773,-0.024376973952725527,-0.17620375831983984
1782811040257389600,3.5553896484375,-0.09495441193580627,-0.03469225093573332,-0.2022120598014444
1782811040267460600,3.565460693359375,-0.11441431468725204,0.008087079539522528,-0.19182094110324976
1782811040277531600,3.57553173828125,-0.048909284597635265,0.03284180076345801,-0.19245996965914963
1782811040287603700,3.585603759765625,0.0739870272308588,0.030532793168723583,-0.09862024096697568
1782811040297674800,3.5956748046875,0.15476678334176538,0.0474959106683731,-0.04411050601378083
1782811040307745500,3.60574560546875,0.20633096636235712,0.035496260794997216,-0.0753986475944519
1782811040317817300,3.6158173828125,0.2582540458232164,-0.01913417792841792,-0.11273432571105658
1782811040327888400,3.625888427734375,0.2505681674957275,-0.05073679228574037,-0.14492358084991575
1782811040337959400,3.63595947265625,0.2527916887640953,-0.08978891893140971,-0.11841982400156557
1782811040348030500,3.646030517578125,0.23482173230946063,-0.10362323688603937,-0.11798961589075624
1782811040358102500,3.6561025390625,0.20426409696042536,-0.11236425028964876,-0.10095467526391148
1782811040368173600,3.666173583984375,0.1680944669485092,-0.10620908866077661,-0.07022540967501699
1782811040378244600,3.67624462890625,0.10118190814852714,-0.07651508440375328,-0.03411277054734528
1782811040388316700,3.686316650390625,0.02441781741976738,-0.037765374770760536,0.011227423391863703
1782811040398387500,3.696387451171875,-0.025974399212002754,-0.038392128366976974,0.04518997181355953
1782811040408458500,3.70645849609375,-0.026372458618879317,-0.0320471432544291,0.09837671453468501
1782811040418530600,3.716530517578125,-0.015050854137539862,-0.04505633549652993,0.1393445386085659
1782811040428601600,3.7266015625,-0.10499883608818053,-0.048973362809792156,0.13737798777595162
1782811040438672600,3.736672607421875,-0.15764555364847183,-0.06522124471217393,0.14143873440884053
1782811040448744400,3.746744384765625,-0.0941857656508684,-0.07097593578137457,0.1657795410696417
1782811040458815500,3.7568154296875,-0.06514379556179047,-0.059729880754277105,0.16420966140441595
1782811040468886500,3.766886474609375,-0.07567395740449429,-0.05205598512552678,0.16468305106982586
1782811040478958600,3.77695849609375,-0.020767478218674657,-0.01897986414954066,0.17829400859735905
1782811040489029600,3.787029541015625,-0.03408347138762474,-0.03068900664374232,0.1550835211407393
1782811040499100400,3.797100341796875,-0.1473281577736139,-0.02760755337178707,0.12021671735569835
1782811040509172500,3.80717236328125,-0.1529150179952383,-0.02530132225602865,0.09540748946554958
1782811040519243500,3.817243408203125,-0.021593407648801802,-0.029723741808161137,0.07700111435502767
1782811040529314600,3.827314453125,0.10862696345746517,-0.0519919799786061,0.07152355972677468
1782811040539386600,3.83738671875,0.166875154286623,-0.05967749297991395,0.04794591945819556
1782811040549457700,3.847457763671875,0.23173662577569484,-0.0495285855397582,0.04990472537577152
1782811040559528700,3.85752880859375,0.2772907547265291,-0.06312931393422186,0.012837269741296767
1782811040569599700,3.867599853515625,0.31562545381784435,-0.05761025825180113,-0.009714096219465135
1782811040579671600,3.877671630859375,0.3209925338089466,-0.05700535116121173,-0.024910423242300746
1782811040589742600,3.88774267578125,0.2842185081630945,-0.047668052364885805,-0.012713351100683211
1782811040599813400,3.8978134765625,0.09713058693110942,0.02142901086732745,0.007443594004213809
1782811040609885400,3.907885498046875,-0.07674421698451042,0.08205065282955765,0.0157680624961853
1782811040619956500,3.91795654296875,-0.18347674499750136,0.0856761498503387,0.04583250750079751
1782811040630027500,3.928027587890625,-0.2305523844271898,0.05654606308639049,0.033213045228645204
1782811040640099600,3.938099609375,-0.130397481238842,-0.005071896436810493,-0.011461305212974547
1782811040650170600,3.948170654296875,0.0538619385689497,-0.04932495272643864,-0.04487571823261678
1782811040660241700,3.95824169921875,0.1893044282376766,-0.08558269941322505,-0.030260625163838265
1782811040670313500,3.9683134765625,0.29593641848564145,-0.07833250908926129,-0.01737557075805962
1782811040680384500,3.978384521484375,0.25604806021153925,-0.08153013608679174,-0.04606324751675129
1782811040690455600,3.98845556640625,0.0394487978130579,-0.08140409855432808,-0.08370682253874838
1782811040700527600,3.998527587890625,-0.1504664557993412,-0.029255832035467028,-0.06654971683695912
1782811040710598400,4.008598388671875,-0.20289690026044843,-0.006615764877945184,-0.02256247187666595
1782811040720669400,4.01866943359375,-0.237454418900609,0.00861987124197185,0.028503552363440394
1782811040730741500,4.028741455078125,-0.31409283742308614,0.02168546984642744,0.02902976819463074
1782811040740812500,4.0388125,-0.43973289500176904,0.02196253322213888,-0.016364201758429408
1782811040750883600,4.048883544921875,-0.43743221684396266,0.03734875679388642,-0.054984732053801416
1782811040760955600,4.05895556640625,-0.33040976597368715,0.0009193068020045756,-0.04742613336779177
1782811040771026700,4.069026611328125,-0.10966390528976917,-0.004253931117430329,-0.05018310392573475
1782811040781097700,4.07909765625,0.004520692294836044,-0.002510156190022826,-0.04529774303697049
1782811040791169500,4.08916943359375,0.07198913141191006,-0.04294657680094242,-0.06991795116104185
1782811040801240300,4.099240234375,0.21039923871457575,-0.04430142547599971,-0.08330788634903728
1782811040811311400,4.109311279296875,0.26821605238914487,-0.07395049461275338,-0.0922070859890431
1782811040821382400,4.11938232421875,0.23325638268887997,-0.09265293006040155,-0.08103818785138428
1782811040831454500,4.129454345703125,0.2181096669614315,-0.06343026964217424,-0.067649348641932
1782811040841525000,4.13952490234375,0.16169395225644112,-0.05352335426434874,-0.038188787814602256
1782811040851596000,4.149595947265625,0.0230617266356945,-0.02196443291828036,0.01976085845939815
1782811040861668000,4.159668212890625,-0.03174596835076809,-0.027335385366901752,0.014930881019681692
1782811040871739100,4.1697392578125,0.05151683674752712,-0.04548011386655271,0.04495791662335395
1782811040881810000,4.179809814453125,0.1499555836677551,-0.04264562109299004,0.09587181904166936
1782811040891882000,4.189882080078125,0.1789876168847084,-0.00892521086409688,0.10714220479242503
1782811040901953000,4.199953125,0.13316168525516986,0.0019075141217559574,0.09059022537693381
1782811040912024000,4.210024169921875,0.008240589600801467,-0.013783245354518293,0.10004939698725938
1782811040922096000,4.22009619140625,-0.17111761416196822,-0.004894201782345771,0.05334682865366339
1782811040932167200,4.230167236328125,-0.21169337017834186,-0.020213205336779356,-0.021084142952412364
1782811040942238200,4.24023828125,-0.17480360919833182,-0.0495879875767976,-0.03740874335281551
1782811040952310000,4.25031005859375,-0.15011457362174987,-0.061499666905775664,-0.017448928255215285
1782811040962381000,4.260381103515625,-0.16959551916122437,-0.05565269444324076,-0.019891133775562047
1782811040972452000,4.2704521484375,-0.20521920572817323,-0.038353696052730084,-0.01515270707681775
1782811040982524200,4.280524169921875,-0.17627543531656265,-0.060380526682734484,-0.05448211629390716
1782811040992595000,4.290594970703125,-0.035759295645356175,-0.09209113145917654,-0.04536386707574129
1782811041002666000,4.300666015625,0.13413316063582897,-0.11813494264557957,-0.0018657208066433667
1782811041012738000,4.310738037109375,0.2870195370584726,-0.15925174673609435,0.04697743975222111
1782811041022809000,4.32080908203125,0.30637773300111293,-0.16749686638154088,0.005177621833607554
1782811041032880000,4.330880126953125,0.25118542261123655,-0.1339099463392049,-0.008549436354264616
1782811041042951200,4.340951171875,0.06389934845864773,-0.08743694897778331,0.00438983245678246
1782811041053023000,4.35102294921875,-0.09443652554154396,-0.0724364367879927,-0.012965133904665707
1782811041063094000,4.361093994140625,-0.11365618979632854,-0.06943140975311399,-0.03351714274175465
1782811041073165000,4.3711650390625,-0.07799334026277065,-0.09551547988466919,-0.022357596954330802
1782811041083236900,4.38123681640625,-0.06132452953457832,-0.1348212890304625,-0.043707405105605716
1782811041093308000,4.391307861328125,0.012250409764051437,-0.16282587889581918,-0.07867584263421594
1782811041103379000,4.40137890625,0.05861000987887382,-0.16150873188264667,-0.08576375506855546
1782811041113451000,4.411450927734375,0.056930093967914576,-0.14184936103634535,-0.10104812570102512
1782811041123522000,4.42152197265625,0.0350654681622982,-0.13374218855686484,-0.0765098237067461
1782811041133593000,4.431593017578125,-0.008974749094247817,-0.061092182083427905,-0.021402634317055344
1782811041143665200,4.4416650390625,-0.006408697998523712,-0.047091056194528934,-0.02069572815671563
1782811041153736200,4.451736083984375,0.009105681997537612,-0.05667495016306638,-0.007638166728243231
1782811041163807200,4.46180712890625,0.007566635861992835,-0.05477050478123128,-0.04129778668060899
1782811041173879000,4.471879150390625,-0.0389127912402153,-0.05376731908805668,-0.07797741204127669
1782811041183949800,4.48194970703125,0.005632452929019927,-0.07889737643040716,-0.11094093948826193
1782811041194020900,4.492020751953125,0.02169979063272476,-0.06843494606167078,-0.09030234834626316
1782811041204093000,4.502093017578125,-0.028138883769512176,-0.01637231199964881,-0.06467208639681339
1782811041214164000,4.5121640625,-0.11036591607928276,0.005685206029564142,-0.056302317458391184
1782811041224235000,4.522235107421875,-0.13274316758215426,-0.0335660964500159,-0.039968949229642746
1782811041234307000,4.53230712890625,-0.039512510699033734,-0.05114164675958454,-0.015386369702219961
1782811041244378000,4.542378173828125,0.0064805941909551615,-0.05868029863610864,-0.02847578757368028
1782811041254449200,4.55244921875,-0.001294131463766098,-0.0547996578104794,-0.034647461945936084
1782811041264520200,4.562520263671875,0.024442367339134213,-0.027359716090559958,-0.007684563153237104
1782811041274592300,4.57259228515625,0.08318973986208439,-0.05043459446877241,-0.0014888503182679414
1782811041284663000,4.5826630859375,0.09852993233501911,-0.04463964445441961,-0.01380436120778322
1782811041294734000,4.592734130859375,0.10405191062688827,-0.06707227940633892,-0.009171294579654932
1782811041304806000,4.602805908203125,0.08526070091724396,-0.07761318183876574,-0.002402311901375651
1782811041314877000,4.612876953125,0.09311024537384509,-0.06296330971755087,0.011854615379497408
1782811041324948000,4.622947998046875,0.009780804780125617,-0.06324665670357645,0.0457480440877378
1782811041335020000,4.63302001953125,-0.1944330232977867,-0.03550948560275137,0.0680509882453829
1782811041345091000,4.643091064453125,-0.37303193312585353,-0.011398834436014294,0.026672391413524746
1782811041355162000,4.653162109375,-0.40642742224931716,0.010136559415236114,-0.019252689741551875
1782811041365234200,4.663234130859375,-0.32283845393657684,-0.022761793841049073,0.013590060869976878
1782811041375305000,4.673304931640625,-0.19745383242368697,-0.07434680045396089,0.009732800919935107
1782811041385376000,4.6833759765625,-0.05743921253383159,-0.12989026236906648,-0.012811477712914347
1782811041395448000,4.693447998046875,0.017664836028218268,-0.17162001072615385,-0.0035700405064970253
1782811041405519000,4.70351904296875,0.018576105654239655,-0.17674005715362726,-0.06636719987690448
1782811041415590100,4.713590087890625,0.0774982502222061,-0.1490109962940216,-0.09718567811921239
1782811041425662000,4.723661865234375,0.18332827643752098,-0.13881868810355663,-0.10656257827356456
1782811041435733000,4.73373291015625,0.26443594932854175,-0.09271138224937021,-0.07367423495464026
1782811041445804000,4.743803955078125,0.32715514809191226,-0.05378982318080961,-0.07017470240108668
1782811041455875000,4.753875,0.36433366288542746,-0.030983240349963307,-0.05671908156573772
1782811041465947100,4.763947021484375,0.35173253998756404,-0.04265950348787009,-0.047392377228662366
1782811041476018000,4.774017822265625,0.3002601269036531,-0.07997377349026501,-0.06733787153996527
1782811041486089000,4.7840888671875,0.16474574104249476,-0.0886222132395953,-0.13470906082764267
1782811041496161000,4.7941611328125,0.06232347744405269,-0.06627784109301865,-0.16980075940974057
1782811041506232000,4.804232177734375,0.1336000766724348,-0.07260952833257615,-0.17809746311195193
1782811041516303000,4.81430322265625,0.2721341026157141,-0.08180646881014109,-0.06500014930739999
1782811041526375200,4.824375244140625,0.36674715376794337,-0.08263057160936295,0.027814766381680962
1782811041536446200,4.8344462890625,0.38661271471083164,-0.08778254754506051,0.0779133338291198
1782811041546517200,4.844517333984375,0.282315304890275,-0.1447796423345804,-0.006052724167704582
1782811041556589000,4.854589111328125,0.039132571470737454,-0.12582432810440658,-0.07937054690010845
1782811041566660000,4.86466015625,-0.19362872117757796,-0.11301672284901142,-0.16792480947002766
1782811041576731000,4.87473095703125,-0.23300328471064566,-0.03721658178158104,-0.17300255112573504
1782811041586803000,4.884802978515625,-0.1310807873278856,0.012262538593262434,-0.02299940198920667
1782811041596874000,4.8948740234375,-0.021146248403191566,-0.04453771844990551,0.1221904285814613
1782811041606945000,4.904945068359375,0.16910744338333605,-0.028970877614244817,0.19749606413021684
1782811041617017000,4.91501708984375,0.4785428103893995,-0.06668671415485442,0.15032178663164375
1782811041627088100,4.925088134765625,0.6335434024870396,-0.15015249447934328,0.05252762122526765
1782811041637159200,4.9351591796875,0.4945768303453922,-0.20367343759089707,-0.05230754873380065
1782811041647230200,4.945230224609375,0.28504034593999383,-0.19725754266660658,-0.07301701315492391
1782811041657302000,4.955302001953125,-0.023735095852613446,-0.17252251252382994,-0.08433803311437368
1782811041667373000,4.965373046875,-0.30506665040254594,-0.12122731917034833,-0.03135229285806417
1782811041677444000,4.975444091796875,-0.45491234395503993,-0.07303842126913368,0.0461976875513792
1782811041687516000,4.985515869140625,-0.4879442604631185,-0.053987318514287466,0.1023988827228546
1782811041697587000,4.9955869140625,-0.5254425087302923,-0.04138444205075502,0.135522569167614
1782811041707658000,5.005657958984375,-0.6639671823233365,0.007482537775114179,0.11240648199617861
1782811041717730000,5.01572998046875,-0.6504536207556724,0.009237345553189516,0.09575272270664573
1782811041727801000,5.025801025390625,-0.5145896908044815,-0.032636670112796126,0.06868029912486671
1782811041737872100,5.0358720703125,-0.2892629320710897,-0.05583700150158256,0.012012070963531732
1782811041747944200,5.045944091796875,-0.05640285522341728,-0.1112950866881758,-0.00943579073473811
1782811041758015200,5.05601513671875,0.11783026061058044,-0.1598995065877214,0.023008827404677867
1782811041768086000,5.0660859375,0.2576011348724365,-0.1401611887536943,0.025332155785709617
1782811041778157800,5.07615771484375,0.3563923484921455,-0.12596114275921136,0.06890490166097879
1782811041788228900,5.086228759765625,0.32593934256136414,-0.11782090826034546,0.08679682444334029
1782811041798300000,5.0962998046875,0.22785715399384499,-0.11882964691147208,0.07294190209209919
1782811041808372000,5.1063720703125,0.10720715978741645,-0.12209303262159228,0.025027181489765644
1782811041818443000,5.116443115234375,-0.020728315252065657,-0.11772190486527978,-0.048582536861300464
1782811041828514000,5.12651416015625,-0.11798340534567832,-0.11056216930374503,-0.13384864460602403
1782811041838586000,5.136586181640625,-0.1547930868268013,-0.08631762609165161,-0.17593582809865474
1782811041848657200,5.1466572265625,-0.14241583581268785,-0.07873995737899095,-0.1657848748318851
1782811041858728200,5.156728271484375,-0.04401391377151012,-0.06382653895076364,-0.12074161801263689
1782811041868799200,5.16679931640625,0.06286532923579216,-0.05340725360400975,-0.05706774887293577
1782811041878871300,5.176871337890625,0.16333996589779853,-0.08933602406475692,-0.014981149902194738
1782811041888942000,5.186942138671875,0.18402093487679957,-0.09444408779349177,-0.017245733833312987
1782811041899013000,5.19701318359375,0.13219430152773856,-0.07526957785468548,-0.008958820872753858
1782811041909085000,5.2070849609375,0.09674129535257815,-0.0795787828233093,-0.035980829441547395
1782811041919156000,5.217156005859375,0.017478958067297934,-0.06776603382416069,-0.05419935382977128
1782811041929227000,5.22722705078125,-0.11329320170283316,-0.05932864300962537,-0.09219459183365106
1782811041939299000,5.237299072265625,-0.14012451000511644,-0.09464081594198942,-0.10732011864259838
1782811041949370000,5.2473701171875,-0.10653671317994594,-0.10056848895791917,-0.10534998761340975
1782811041959441200,5.257441162109375,-0.03282967193424702,-0.12115973382685333,-0.11084010946229099
1782811041969513200,5.26751318359375,0.05994505787491798,-0.0955405777933076,-0.0744420775219798
1782811041979584000,5.277583984375,0.03372282138168812,-0.06058185794111341,-0.04754413372427225
1782811041989655000,5.287655029296875,-0.03478489765524864,-0.019180866614356636,0.01328413672596216
1782811041999727000,5.29772705078125,-0.004615384840965271,-0.0006141133103519678,0.02155658276975155
1782811042009795000,5.307795166015625,0.0658265171289444,-0.017258337586559355,0.024455226820707318
1782811042019866000,5.3178662109375,0.11433189710080623,0.011816292663104832,0.03278758635818958
1782811042029938000,5.32793798828125,0.13524141413867471,-0.004357866415940225,0.05440174453407526
1782811042040009000,5.338009033203125,0.07104980473518371,0.003831906313076615,0.07308057991042732
1782811042050080000,5.348080078125,-0.0014098667979240416,-0.02629997790455818,0.02778524802625179
1782811042060152000,5.358152099609375,0.04811959552466869,-0.043481231666915116,-0.024185908360034227
1782811042070223000,5.36822314453125,0.09723054017424583,-0.05883837527465075,-0.07516060105487704
1782811042080294100,5.378294189453125,0.13150281213223933,-0.1025398620961234,-0.08991320289820433
1782811042090366200,5.3883662109375,0.1159235502064228,-0.09812726981826125,-0.08255173421949148
1782811042100437200,5.398437255859375,-0.02579670455753803,-0.07689480443634092,-0.058795887839794156
1782811042110508300,5.40850830078125,-0.24341654217541217,-0.01551942149735987,-0.06746595489904283
1782811042120580000,5.418580078125,-0.28373160142898557,0.030249336584843693,-0.03789674606546759
1782811042130651000,5.42865087890625,-0.22955811269283294,0.01979932730626315,-0.021369974156469105
1782811042140722000,5.438721923828125,-0.15234510915279387,-0.0058455111578106875,0.0028267478585243225
1782811042150793000,5.44879296875,0.02652911048531532,-0.03489270541127771,0.008945376869291066
1782811042160865000,5.458864990234375,0.20881284630596636,-0.06958214333541692,0.026123744554817675
1782811042170936000,5.46893603515625,0.23706103566884992,-0.056885451108589766,0.04161255171820521
1782811042181007000,5.479007080078125,0.15348668040335178,-0.04020505954045802,0.02196238709166646
1782811042191079200,5.4890791015625,0.07380056474804877,-0.030817564926855265,-0.004693710774183273
1782811042201150200,5.499150146484375,-0.008448679393529892,-0.035609913769923146,-0.02105097133517265
1782811042211221000,5.509220947265625,-0.10923428170084952,-0.06587777239214629,-0.0869075913414359
1782811042221293300,5.519293212890625,-0.0771849464893341,-0.10170995061062275,-0.15806348679959772
1782811042231364000,5.529364013671875,-0.06936170551776885,-0.12453516507670283,-0.13797989919185638
1782811042241435100,5.53943505859375,-0.17058453019857406,-0.034617651329562064,-0.07106880169659853
1782811042251507000,5.5495068359375,-0.21069208418130875,0.05554298699107021,0.05252762122526765
1782811042261578000,5.559577880859375,-0.35246845304667945,0.08031739929616451,0.08171221465542912
1782811042271649000,5.56964892578125,-0.5263894341915846,0.03882387084774673,-0.05579042241349816
1782811042281721000,5.57972119140625,-0.05554536161124706,0.05671111745499074,0.021218290726095438
1782811042291792100,5.589792236328125,-0.02632686591148376,0.01091996487788856,-0.07231675593107938
1782811042301863200,5.59986328125,-0.006940028396248817,-0.08405271336697041,-0.22612726146131754
1782811042311935200,5.609935302734375,0.07990764945149421,-0.18910287778358906,-0.3417266942799091
1782811042322006000,5.620006103515625,0.24602058719396588,-0.23912344809137284,-0.3524905187480151
1782811042332077000,5.6300771484375,0.22835165951251982,-0.17500508658718317,-0.32597572904899713
1782811042342148000,5.640148193359375,0.12392390131056308,-0.10823317836690693,-0.23629765008091924
1782811042352220200,5.65022021484375,0.14724983184039592,-0.06565492342170327,-0.013462269771844148
1782811042362291200,5.660291259765625,0.4016711676329374,0.010356156982667744,0.22326178902760146
1782811042372362200,5.6703623046875,0.4806780688524246,-0.01878408584911376,0.24276319283321499
1782811042382434000,5.68043408203125,0.4714052135944366,-0.04316756260786205,0.16933160752803086
