time,seconds_elapsed,z,y,x
1782811036772710400,0.07071044921875,-0.1087321862578392,-0.4541661739349365,-0.568752646446228
1782811036782782200,0.0807822265625,-0.14011093974113464,-0.37257546186447144,-0.6273148655891418
1782811036792853200,0.090853271484375,-0.15570613741874695,-0.292667031288147,-0.728544294834137
1782811036802924300,0.10092431640625,-0.14663179218769073,-0.2144913375377655,-0.8426967859268188
1782811036812996400,0.110996337890625,-0.11439794301986694,-0.16525748372077942,-0.9488362669944763
1782811036823067400,0.1210673828125,-0.07218130677938461,-0.15351255238056183,-1.0371145009994507
1782811036833138200,0.13113818359375,-0.037000156939029694,-0.1684851050376892,-1.098963737487793
1782811036843210200,0.141210205078125,-0.011949019506573677,-0.15851947665214539,-1.1308927536010742
1782811036853281300,0.15128125,-0.004672997165471315,-0.1063031405210495,-1.150400996208191
1782811036863352300,0.161352294921875,-0.004695682320743799,-0.052756763994693756,-1.1683536767959595
1782811036873424400,0.17142431640625,-0.002630933653563261,-0.05074341595172882,-1.174139142036438
1782811036883495400,0.181495361328125,0.001689086901023984,-0.09041628986597061,-1.1250827312469482
1782811036893566200,0.191566162109375,0.016832351684570312,-0.127735435962677,-1.0310331583023071
1782811036903638000,0.201637939453125,0.04264407977461815,-0.16793465614318848,-0.902997612953186
1782811036913709000,0.211708984375,0.06239088624715805,-0.1973564624786377,-0.7855761647224426
1782811036923780000,0.221780029296875,0.05181696638464928,-0.2014719694852829,-0.6950024962425232
1782811036933852200,0.23185205078125,0.02589455619454384,-0.16318051517009735,-0.6379160284996033
1782811036943923200,0.241923095703125,0.011622193269431591,-0.09111116826534271,-0.6047219038009644
1782811036953994200,0.251994140625,0.017316298559308052,-0.01942206732928753,-0.6073965430259705
1782811036964065300,0.262065185546875,0.041012249886989594,0.04380998760461807,-0.6338376998901367
1782811036974137300,0.272137451171875,0.06908303499221802,0.08985338360071182,-0.6736506223678589
1782811036984208100,0.2822080078125,0.07200410217046738,0.09934458881616592,-0.7182793021202087
1782811036994280200,0.2922802734375,0.04639380797743797,0.12331783026456833,-0.7461380958557129
1782811037004351200,0.302351318359375,0.0019607292488217354,0.16131874918937683,-0.7617101073265076
1782811037014422300,0.31242236328125,-0.037798669189214706,0.18601742386817932,-0.7713688611984253
1782811037024494000,0.322494140625,-0.0876457542181015,0.2061457484960556,-0.7851238250732422
1782811037034565000,0.332565185546875,-0.12410868704319,0.23640379309654236,-0.8039142489433289
1782811037044636200,0.34263623046875,-0.14229300618171692,0.2844623625278473,-0.8353333473205566
1782811037054707200,0.352707275390625,-0.13643458485603333,0.29878005385398865,-0.8648949861526489
1782811037064779300,0.362779296875,-0.12703177332878113,0.2887507379055023,-0.8773326277732849
1782811037074850300,0.372850341796875,-0.13160814344882965,0.28420180082321167,-0.8655582666397095
1782811037084921000,0.382921142578125,-0.1374545395374298,0.3024989664554596,-0.8338223099708557
1782811037094993200,0.3929931640625,-0.12146145850419998,0.3565709888935089,-0.791508138179779
1782811037105064200,0.403064208984375,-0.09191334992647171,0.41331470012664795,-0.7756600975990295
1782811037115135200,0.41313525390625,-0.05599743127822876,0.45452579855918884,-0.7772233486175537
1782811037125207300,0.423207275390625,-0.02925790660083294,0.48361116647720337,-0.786670446395874
1782811037135278300,0.4332783203125,-0.016061145812273026,0.48125824332237244,-0.787265956401825
1782811037145349400,0.443349365234375,-0.020320774987339973,0.47182175517082214,-0.7600909471511841
1782811037155421200,0.453421142578125,-0.02566014602780342,0.4871426522731781,-0.7107707858085632
1782811037165492200,0.4634921875,-0.0219116248190403,0.5025796890258789,-0.6439558863639832
1782811037175563300,0.473563232421875,-0.007789148483425379,0.5119633674621582,-0.5730084776878357
1782811037185635300,0.48363525390625,0.012620031833648682,0.5135473608970642,-0.5103521943092346
1782811037195706000,0.4937060546875,0.027485528960824013,0.4953837990760803,-0.4625958502292633
1782811037205777200,0.503777099609375,0.04559032991528511,0.47043824195861816,-0.43121376633644104
1782811037215849200,0.51384912109375,0.059393495321273804,0.4630431830883026,-0.4155069589614868
1782811037225920300,0.523920166015625,0.07271015644073486,0.4613455832004547,-0.41195783019065857
1782811037235991300,0.5339912109375,0.08309329301118851,0.43170246481895447,-0.4219502806663513
1782811037246063400,0.5440634765625,0.08661191165447235,0.3910742700099945,-0.4128156900405884
1782811037256134100,0.554134033203125,0.08630937337875366,0.35442915558815,-0.37594130635261536
1782811037266205200,0.564205078125,0.08897829055786133,0.3197281062602997,-0.30256950855255127
1782811037276277200,0.57427734375,0.08592098206281662,0.298297643661499,-0.218405082821846
1782811037286348000,0.58434814453125,0.07868069410324097,0.3200059235095978,-0.13671018183231354
1782811037296419000,0.594419189453125,0.07041344046592712,0.356789767742157,-0.07388541102409363
1782811037306491100,0.6044912109375,0.0667601227760315,0.3456141948699951,-0.03138653188943863
1782811037316562200,0.614562255859375,0.06906988471746445,0.30077534914016724,0.004566144663840532
1782811037326633200,0.62463330078125,0.08612066507339478,0.24768058955669403,0.036853689700365067
1782811037336705300,0.634705322265625,0.09966683387756348,0.18346405029296875,0.049230996519327164
1782811037346776300,0.6447763671875,0.12134198099374771,0.16394701600074768,0.03940602019429207
1782811037356847400,0.654847412109375,0.16856169700622559,0.19761043787002563,-0.0021930914372205734
1782811037366919200,0.664919189453125,0.21729038655757904,0.21329735219478607,-0.06568817794322968
1782811037376990200,0.674990234375,0.2443036288022995,0.1985037624835968,-0.1279377043247223
1782811037387061000,0.68506103515625,0.24751435220241547,0.15805375576019287,-0.16236646473407745
1782811037397133000,0.695133056640625,0.20654907822608948,0.14040233194828033,-0.16030144691467285
1782811037407204000,0.7052041015625,0.15214325487613678,0.2013767659664154,-0.12369149178266525
1782811037417275100,0.715275146484375,0.10769535601139069,0.29594695568084717,-0.07525472342967987
1782811037427347200,0.72534716796875,0.07509902119636536,0.33634182810783386,-0.030058100819587708
1782811037437418200,0.735418212890625,0.06234806776046753,0.30568113923072815,0.011553790420293808
1782811037447489300,0.7454892578125,0.05953618884086609,0.22918322682380676,0.03935530409216881
1782811037457561300,0.755561279296875,0.05544237792491913,0.11308324337005615,0.053478579968214035
1782811037467632400,0.76563232421875,0.05641229823231697,0.02070952206850052,0.05987906828522682
1782811037477703400,0.775703369140625,0.06336714327335358,-0.024621473625302315,0.06594787538051605
1782811037487775200,0.785775146484375,0.06969237327575684,-0.04102637246251106,0.06916950643062592
1782811037497846000,0.795845947265625,0.06978292018175125,-0.05408358573913574,0.06919879466295242
1782811037507917000,0.8059169921875,0.07541082054376602,-0.06871862709522247,0.0705166608095169
1782811037517989000,0.815989013671875,0.08719770610332489,-0.07611582428216934,0.07736870646476746
1782811037528060200,0.82606005859375,0.10944430530071259,-0.08073129504919052,0.07683126628398895
1782811037538131200,0.836131103515625,0.13271421194076538,-0.12235543876886368,0.0621441975235939
1782811037548203300,0.846203369140625,0.1585662066936493,-0.19044950604438782,0.04483740031719208
1782811037558274300,0.8562744140625,0.1872662901878357,-0.23174980282783508,0.04476629197597504
1782811037568345300,0.866345458984375,0.21664895117282867,-0.24157674610614777,0.07204680144786835
1782811037578417400,0.87641748046875,0.2299112230539322,-0.23162931203842163,0.12187401205301285
1782811037588488200,0.88648828125,0.2309717983007431,-0.21442365646362305,0.16614869236946106
1782811037598559200,0.896559326171875,0.21837185323238373,-0.20394225418567657,0.1946791261434555
1782811037608631000,0.906631103515625,0.19545866549015045,-0.1942066252231598,0.21990972757339478
1782811037618702000,0.9167021484375,0.1652677357196808,-0.17497088015079498,0.24349281191825867
1782811037628773000,0.926773193359375,0.13961751759052277,-0.16354487836360931,0.2687537372112274
1782811037638844200,0.93684423828125,0.12120281159877777,-0.16886506974697113,0.2868712246417999
1782811037648916200,0.946916259765625,0.10365725308656693,-0.17237770557403564,0.3021302819252014
1782811037658987300,0.9569873046875,0.09783878177404404,-0.17479293048381805,0.30354201793670654
1782811037669058300,0.967058349609375,0.09564870595932007,-0.16057434678077698,0.29329389333724976
1782811037679130400,0.97713037109375,0.09559757262468338,-0.12632529437541962,0.270188570022583
1782811037689201200,0.987201171875,0.09920983016490936,-0.09766774624586105,0.23954927921295166
1782811037699272200,0.997272216796875,0.1012980192899704,-0.0939563661813736,0.20010334253311157
1782811037709344300,1.00734423828125,0.11540472507476807,-0.09172535687685013,0.166696697473526
1782811037719415300,1.017415283203125,0.1325773298740387,-0.07402971386909485,0.13704612851142883
1782811037729486300,1.027486328125,0.15092186629772186,-0.0585644394159317,0.10512977093458176
1782811037739558100,1.03755810546875,0.1653687208890915,-0.047633763402700424,0.0671570897102356
1782811037749629200,1.047629150390625,0.17189309000968933,-0.04066865146160126,0.018131399527192116
1782811037759700200,1.0577001953125,0.1716238409280777,-0.039146918803453445,-0.02282295748591423
1782811037769772300,1.067772216796875,0.17227716743946075,-0.027399733662605286,-0.04170413315296173
1782811037779843300,1.07784326171875,0.16747921705245972,-0.01144393626600504,-0.05062252655625343
1782811037789914000,1.0879140625,0.15898588299751282,0.004659063182771206,-0.06119091808795929
1782811037799986200,1.097986083984375,0.15204115211963654,0.016606803983449936,-0.073503777384758
1782811037810057200,1.10805712890625,0.13314595818519592,0.008470282889902592,-0.09024263173341751
1782811037820128300,1.118128173828125,0.1186802014708519,-0.01923990808427334,-0.10022789239883423
1782811037830200300,1.128200439453125,0.10460752248764038,-0.03652595728635788,-0.09006180614233017
1782811037840271400,1.138271240234375,0.07868484407663345,-0.04078488051891327,-0.05189471319317818
1782811037850342400,1.14834228515625,0.04391925409436226,-0.028623053804039955,0.004433785565197468
1782811037860414500,1.15841455078125,0.0011456914944574237,0.018094917759299278,0.07014621794223785
1782811037870485500,1.168485595703125,-0.04919220134615898,0.059579987078905106,0.11686421185731888
1782811037880556500,1.178556640625,-0.10395930707454681,0.07305958122015,0.14816273748874664
1782811037890628600,1.188628662109375,-0.15306970477104187,0.0640096366405487,0.1576433926820755
1782811037900699600,1.19869970703125,-0.19212709367275238,0.035114869475364685,0.15350377559661865
1782811037910770700,1.208770751953125,-0.22030946612358093,-0.005725753493607044,0.1466655433177948
1782811037920842800,1.2188427734375,-0.23213788866996765,-0.036078598350286484,0.1393469125032425
1782811037930913500,1.22891357421875,-0.23219488561153412,-0.050101347267627716,0.1302425116300583
1782811037940984600,1.238984619140625,-0.22424055635929108,-0.05233467370271683,0.11966975778341293
1782811037951056400,1.249056396484375,-0.21303382515907288,-0.05885495990514755,0.10917592793703079
1782811037961127400,1.25912744140625,-0.18907149136066437,-0.07107647508382797,0.09826762229204178
1782811037971198500,1.269198486328125,-0.1565576046705246,-0.06407202035188675,0.09457938373088837
1782811037981270500,1.2792705078125,-0.125013530254364,-0.05036207288503647,0.09937227517366409
1782811037991341600,1.289341552734375,-0.10975921154022217,-0.03116467595100403,0.09991369396448135
1782811038001412600,1.29941259765625,-0.09931711107492447,0.001482414547353983,0.09964527934789658
1782811038011484700,1.309484619140625,-0.08917056769132614,0.03183620795607567,0.08926072716712952
1782811038021555700,1.3195556640625,-0.0794801190495491,0.027771424502134323,0.06604195386171341
1782811038031626500,1.32962646484375,-0.06273341923952103,0.022292591631412506,0.03653952106833458
1782811038041698600,1.339698486328125,-0.039128225296735764,0.015372367575764656,0.007717197295278311
1782811038051769600,1.34976953125,-0.01491706445813179,-0.005066854879260063,-0.03401061147451401
1782811038061840600,1.359840576171875,0.007646300829946995,-0.04203739017248154,-0.07425417006015778
1782811038071912400,1.369912353515625,0.023573612794280052,-0.08038602769374847,-0.09767939895391464
1782811038081983500,1.3799833984375,0.037786900997161865,-0.10696543753147125,-0.09549268335103989
1782811038092054500,1.390054443359375,0.044532958418130875,-0.11573989689350128,-0.07838144898414612
1782811038102126600,1.400126708984375,0.05744503065943718,-0.11565520614385605,-0.05300871282815933
1782811038112197600,1.41019775390625,0.07362842559814453,-0.11618328839540482,-0.02092798613011837
1782811038122268400,1.420268310546875,0.08601558208465576,-0.12335944175720215,0.006647981237620115
1782811038132339500,1.43033935546875,0.09950773417949677,-0.12477615475654602,0.03786182776093483
1782811038142411500,1.44041162109375,0.10847912728786469,-0.12295162677764893,0.0695348009467125
1782811038152482600,1.450482666015625,0.1172529086470604,-0.12073176354169846,0.09893971681594849
1782811038162553600,1.4605537109375,0.12607969343662262,-0.11006580293178558,0.12438248842954636
1782811038172625700,1.470625732421875,0.13452501595020294,-0.09328442811965942,0.1417921781539917
1782811038182696700,1.48069677734375,0.14450281858444214,-0.07674486190080643,0.16112352907657623
1782811038192767700,1.490767822265625,0.1570218950510025,-0.05482488498091698,0.17626748979091644
1782811038202839600,1.500839599609375,0.1688617765903473,-0.03999986872076988,0.18259036540985107
1782811038212910600,1.51091064453125,0.19008269906044006,-0.050841595977544785,0.17041105031967163
1782811038222981400,1.5209814453125,0.20609600841999054,-0.06958385556936264,0.15454420447349548
1782811038233053400,1.531053466796875,0.2207864373922348,-0.0785880982875824,0.14087913930416107
1782811038243124500,1.54112451171875,0.227420374751091,-0.08010903000831604,0.13140574097633362
1782811038253195500,1.551195556640625,0.23208165168762207,-0.07100572437047958,0.12377691268920898
1782811038263267600,1.561267578125,0.23616693913936615,-0.06643041223287582,0.11782874166965485
1782811038273338600,1.571338623046875,0.2342042475938797,-0.07662975043058395,0.10892428457736969
1782811038283409700,1.58140966796875,0.23270727694034576,-0.086983323097229,0.09099961072206497
1782811038293481500,1.5914814453125,0.2348480373620987,-0.08954453468322754,0.08440351486206055
1782811038303552500,1.601552490234375,0.2304985672235489,-0.08122988045215607,0.0831608846783638
1782811038313623600,1.61162353515625,0.221888929605484,-0.06235562637448311,0.08590128272771835
1782811038323695600,1.621695556640625,0.2094636857509613,-0.05633528530597687,0.08424133062362671
1782811038333766400,1.631766357421875,0.1920483261346817,-0.05264325439929962,0.07920222729444504
1782811038343837400,1.64183740234375,0.18094614148139954,-0.056927748024463654,0.06724916398525238
1782811038353909500,1.651909423828125,0.16687250137329102,-0.0700712725520134,0.059776317328214645
1782811038363980500,1.66198046875,0.15604035556316376,-0.0665668249130249,0.061818160116672516
1782811038374051600,1.672051513671875,0.14696963131427765,-0.06061093136668205,0.06201257184147835
1782811038384123600,1.68212353515625,0.13029079139232635,-0.06017816811800003,0.06515935808420181
1782811038394194700,1.692194580078125,0.11427043378353119,-0.040392566472291946,0.07813654839992523
1782811038404265700,1.702265625,0.10281883925199509,-0.024435970932245255,0.09502870589494705
1782811038414337500,1.712337646484375,0.08439850807189941,-0.024351609870791435,0.10206872969865799
1782811038424408300,1.722408203125,0.06628288328647614,-0.01721220649778843,0.10507970303297043
1782811038434479400,1.732479248046875,0.05662023648619652,-0.003950610291212797,0.11025884002447128
1782811038444551400,1.742551513671875,0.04500832408666611,-0.005267276894301176,0.11150573194026947
1782811038454622500,1.75262255859375,0.036171797662973404,-0.013273568823933601,0.10387521982192993
1782811038464693500,1.762693603515625,0.02592608332633972,-0.01308288611471653,0.0926947370171547
1782811038474764500,1.7727646484375,0.018132716417312622,-0.011242938227951527,0.08375342190265656
1782811038484836600,1.782836669921875,0.0089741051197052,-0.015670176595449448,0.07424113899469376
1782811038494907600,1.79290771484375,0.005708170589059591,-0.006313426420092583,0.06719261407852173
1782811038504978700,1.802978759765625,0.008086106739938259,0.0016555504407733679,0.06392491608858109
1782811038515050800,1.81305078125,0.008718020282685757,0.004065532237291336,0.053387660533189774
1782811038525121500,1.82312158203125,0.008147836662828922,-0.0011508010793477297,0.04272542893886566
1782811038535192600,1.833192626953125,0.010930151678621769,-0.006752136163413525,0.03528761863708496
1782811038545264400,1.843264404296875,0.01801549270749092,-0.012106954120099545,0.03160339966416359
1782811038555335400,1.85333544921875,0.02280997857451439,-0.010807985439896584,0.0348975770175457
1782811038565406500,1.863406494140625,0.026564767584204674,-0.009872416965663433,0.04248039424419403
1782811038575478500,1.873478515625,0.029673153534531593,-0.006029120646417141,0.050364479422569275
1782811038585549600,1.883549560546875,0.0262129083275795,0.0005062767304480076,0.05619174242019653
1782811038595620600,1.89362060546875,0.025369005277752876,0.006686734035611153,0.05686609819531441
1782811038605692700,1.903692626953125,0.027170367538928986,0.010172812268137932,0.053735554218292236
1782811038615763700,1.913763671875,0.03446817398071289,0.007599872536957264,0.04358726739883423
1782811038625834500,1.92383447265625,0.040401965379714966,-0.006628331728279591,0.029249075800180435
1782811038635906600,1.933906494140625,0.051467083394527435,-0.024535365402698517,0.02077500708401203
1782811038645977600,1.9439775390625,0.06450405716896057,-0.018377870321273804,0.024279726669192314
1782811038656048600,1.954048583984375,0.07107178121805191,-0.005566905252635479,0.03403794765472412
1782811038666120400,1.964120361328125,0.08007273823022842,-0.004055560566484928,0.0360286608338356
1782811038676191500,1.97419140625,0.08838663250207901,-0.0019190595485270023,0.03775034844875336
1782811038686262500,1.984262451171875,0.0932205393910408,0.0010956386104226112,0.04022336006164551
1782811038696334600,1.99433447265625,0.09269073605537415,0.011213399469852448,0.04062860831618309
1782811038706405600,2.004405517578125,0.08882062882184982,0.017686743289232254,0.037699662148952484
1782811038716476400,2.014476318359375,0.09114781022071838,0.019613217562437057,0.03261305019259453
1782811038726548500,2.024548583984375,0.08612561970949173,0.01402750238776207,0.024771103635430336
1782811038736619500,2.03461962890625,0.08287213742733002,0.009833022952079773,0.016541602090001106
1782811038746690600,2.044690673828125,0.07580410689115524,0.003889113198965788,0.0017735756700858474
1782811038756762600,2.0547626953125,0.06493905186653137,-0.007694069296121597,-0.00498368451371789
1782811038766833700,2.064833740234375,0.04604259505867958,-0.004404532723128796,0.003369319951161742
1782811038776904700,2.07490478515625,0.03356850519776344,-0.0012995235156267881,0.018951762467622757
1782811038786976500,2.0849765625,0.016629735007882118,-0.0021301633678376675,0.026882922276854515
1782811038797047600,2.095047607421875,0.005450376309454441,0.0004038646584376693,0.03822275251150131
1782811038807118600,2.10511865234375,-0.011582668870687485,0.006213284097611904,0.05111032351851463
1782811038817190700,2.115190673828125,-0.0296355951577425,0.019199751317501068,0.06553759425878525
1782811038827261400,2.125261474609375,-0.04348376765847206,0.030566386878490448,0.07298246026039124
1782811038837332200,2.135332275390625,-0.05632634088397026,0.023952219635248184,0.068372443318367
1782811038847404300,2.145404296875,-0.06488334387540817,0.013609565794467926,0.05610112473368645
1782811038857475300,2.155475341796875,-0.07068635523319244,0.008693579584360123,0.03942529857158661
1782811038867546400,2.16554638671875,-0.07045519351959229,-0.003032850567251444,0.023386413231492043
1782811038877617400,2.175617431640625,-0.07002223283052444,-0.013947820290923119,0.014301972463726997
1782811038887689500,2.185689453125,-0.07162731885910034,-0.00022108922712504864,0.019633352756500244
1782811038897760500,2.195760498046875,-0.07390767335891724,0.014219840988516808,0.026482228189706802
1782811038907831300,2.205831298828125,-0.07735460251569748,0.016775144264101982,0.02376873418688774
1782811038917903000,2.215903076171875,-0.07787055522203445,0.012916107662022114,0.02125515230000019
1782811038927974100,2.22597412109375,-0.07571925222873688,0.011255626566708088,0.01478287298232317
1782811038938045200,2.236045166015625,-0.06988000869750977,0.01103950198739767,0.01646294817328453
1782811038948117200,2.2461171875,-0.06414435803890228,0.01863829977810383,0.016421934589743614
1782811038958188300,2.256188232421875,-0.05696820840239525,0.02142306976020336,0.015017986297607422
1782811038968259300,2.26625927734375,-0.053330063819885254,0.021681129932403564,0.009773422963917255
1782811038978331400,2.276331298828125,-0.04214436188340187,0.02069070190191269,-0.003459491301327944
1782811038988402400,2.28640234375,-0.04029319807887077,0.02202228270471096,-0.012570698745548725
1782811038998473500,2.296473388671875,-0.04151815548539162,0.022612474858760834,-0.024307362735271454
1782811039008545300,2.306545166015625,-0.03773726522922516,0.025689490139484406,-0.032027602195739746
1782811039018616300,2.3166162109375,-0.030465859919786453,0.024040143936872482,-0.03461151197552681
1782811039028687400,2.326687255859375,-0.02507988177239895,0.021402282640337944,-0.03371642157435417
1782811039038759200,2.33675927734375,-0.018937889486551285,0.015266976319253445,-0.03524527698755264
1782811039048830200,2.346830322265625,-0.014571902342140675,0.004623918794095516,-0.03565460443496704
1782811039058901200,2.3569013671875,-0.016074569895863533,-0.003893619868904352,-0.02792852558195591
1782811039068973300,2.366973388671875,-0.017409879714250565,0.003475080244243145,-0.018435422331094742
1782811039079044400,2.37704443359375,-0.02038058452308178,0.0025321138091385365,-0.0024561448954045773
1782811039089115400,2.387115478515625,-0.022164102643728256,-0.0009848566260188818,0.005320551805198193
1782811039099187500,2.3971875,-0.024315616115927696,-0.01049642451107502,0.008321867324411869
1782811039109258500,2.407258544921875,-0.02523573860526085,-0.01615377701818943,0.011972527951002121
1782811039119329300,2.417329345703125,-0.02632279135286808,-0.02767067775130272,0.015691787004470825
1782811039129401000,2.427401123046875,-0.028933221474289894,-0.035695046186447144,0.022745436057448387
1782811039139472100,2.43747216796875,-0.026240013539791107,-0.034478865563869476,0.04233591631054878
1782811039149543200,2.447543212890625,-0.02433132566511631,-0.030328862369060516,0.059564970433712006
1782811039159615200,2.457615234375,-0.027422884479165077,-0.0266336128115654,0.07386143505573273
1782811039169686300,2.467686279296875,-0.030014939606189728,-0.027249600738286972,0.08117314428091049
1782811039179757300,2.47775732421875,-0.027247749269008636,-0.02105441875755787,0.087264284491539
1782811039189828400,2.487828369140625,-0.03015086054801941,-0.02161208540201187,0.08825550973415375
1782811039199900400,2.497900390625,-0.029260573908686638,-0.02031390182673931,0.08394365757703781
1782811039209971200,2.50797119140625,-0.031771667301654816,-0.02716967649757862,0.07204651832580566
1782811039220042200,2.518042236328125,-0.03701282665133476,-0.023186150938272476,0.06549425423145294
1782811039230114300,2.5281142578125,-0.0410136952996254,-0.012823523953557014,0.0625205710530281
1782811039240185300,2.538185302734375,-0.04842286929488182,-0.01395365223288536,0.05301936715841293
1782811039250256400,2.54825634765625,-0.048512086272239685,-0.022901607677340508,0.044426675885915756
1782811039260328200,2.558328125,-0.048674002289772034,-0.007497906684875488,0.0428575798869133
1782811039270399200,2.568399169921875,-0.0442102774977684,0.0009792015189304948,0.041276197880506516
1782811039280470300,2.57847021484375,-0.04301931709051132,-0.0013718139380216599,0.034129831939935684
1782811039290542300,2.588542236328125,-0.040271200239658356,-0.00552341528236866,0.02326573058962822
1782811039300613400,2.59861328125,-0.035090554505586624,-0.00005860929377377033,0.02597150206565857
1782811039310684200,2.60868408203125,-0.03554808348417282,0.004984086379408836,0.024927807971835136
1782811039320756200,2.618756103515625,-0.03371816873550415,-0.00173929613083601,0.015411622822284698
1782811039330827300,2.6288271484375,-0.031464334577322006,-0.02126559428870678,0.0071739330887794495
1782811039340898300,2.638898193359375,-0.02875739522278309,-0.025838924571871758,0.009860619902610779
1782811039350970400,2.648970458984375,-0.025431372225284576,-0.0008363693486899137,0.032100144773721695
1782811039361041400,2.65904150390625,-0.026185840368270874,0.017287220805883408,0.04972498491406441
1782811039371112400,2.669112548828125,-0.022290168330073357,0.016301851719617844,0.052839551120996475
1782811039381184300,2.679184326171875,-0.01845676824450493,0.011341791599988937,0.047918569296598434
1782811039391255300,2.68925537109375,-0.01467934064567089,0.005986707750707865,0.03808404877781868
1782811039401326300,2.699326416015625,-0.009931720793247223,-0.003437565639615059,0.03149527683854103
1782811039411398400,2.7093984375,-0.0012636638712137938,-0.013687274418771267,0.02702302671968937
1782811039421469200,2.71946923828125,0.003823129693046212,-0.025830848142504692,0.021085111424326897
1782811039431540200,2.729540283203125,0.013392133638262749,-0.028373368084430695,0.028655413538217545
1782811039441612300,2.7396123046875,0.016657380387187004,-0.02078593336045742,0.045837659388780594
1782811039451683300,2.749683349609375,0.019255029037594795,-0.010738092474639416,0.059324439615011215
1782811039461754400,2.75975439453125,0.015351962298154831,-0.0014998370315879583,0.07448434829711914
1782811039471826400,2.769826416015625,0.01715279184281826,0.004855796694755554,0.07756322622299194
1782811039481897500,2.7798974609375,0.020261546596884727,0.00009067682549357414,0.07872090488672256
1782811039491968500,2.789968505859375,0.018148595467209816,-0.0033946020994335413,0.06998467445373535
1782811039502039300,2.800039306640625,0.01633642241358757,-0.0076675498858094215,0.06339454650878906
1782811039512111000,2.810111083984375,0.013797898776829243,-0.0013659780379384756,0.05641653388738632
1782811039522182100,2.82018212890625,0.013191227801144123,-0.0016159054357558489,0.04639410972595215
1782811039532253200,2.830253173828125,0.011812775395810604,-0.0005602284800261259,0.03935350850224495
1782811039542325200,2.8403251953125,0.014245899394154549,0.00338541017845273,0.034565381705760956
1782811039552396300,2.850396240234375,0.01314521487802267,0.0030000507831573486,0.02568107657134533
1782811039562467300,2.86046728515625,0.01633189618587494,-0.004203309770673513,0.015073888935148716
1782811039572539400,2.870539306640625,0.010299303568899632,-0.0037670843303203583,0.0050066071562469006
1782811039582610400,2.8806103515625,0.00903945229947567,0.005662283860146999,0.0017948322929441929
1782811039592681500,2.890681396484375,0.00422685407102108,0.009943314827978611,-0.0014371799770742655
1782811039602753300,2.900753173828125,0.0030365942511707544,0.008533667773008347,0.0006465926999226213
1782811039612824300,2.91082421875,0.007661439944058657,0.012567024677991867,0.0072664120234549046
1782811039622895400,2.920895263671875,0.008565797470510006,0.009034816175699234,0.004572846461087465
1782811039632967200,2.93096728515625,0.0074765644967556,-0.007069318555295467,-0.0040219733491539955
1782811039643038200,2.9410380859375,0.010165291838347912,-0.01932571828365326,-0.00341716967523098
1782811039653109200,2.951109130859375,0.008929052390158176,-0.019719600677490234,0.0034343446604907513
1782811039663181300,2.961181396484375,0.006879911758005619,-0.02256796509027481,0.020586077123880386
1782811039673252400,2.97125244140625,0.006484432145953178,-0.020557278767228127,0.038385577499866486
1782811039683323400,2.981323486328125,0.005723405629396439,-0.020033851265907288,0.057392653077840805
1782811039693395500,2.9913955078125,0.0005094687221571803,-0.021591536700725555,0.0663113072514534
1782811039703466500,3.001466552734375,-0.0036182194016873837,-0.024213064461946487,0.07128936052322388
1782811039713537300,3.011537353515625,-0.0136253135278821,-0.022740336135029793,0.07591740041971207
1782811039723609000,3.021609130859375,-0.025324571877717972,-0.018941227346658707,0.07125333696603775
1782811039733680000,3.03168017578125,-0.03488718345761299,-0.025920841842889786,0.05994341894984245
1782811039743751200,3.041751220703125,-0.044536203145980835,-0.03885148838162422,0.04136195033788681
1782811039753823200,3.0518232421875,-0.05443543940782547,-0.030375441536307335,0.0443609394133091
1782811039763894300,3.061894287109375,-0.06405327469110489,-0.017420757561922073,0.04479110613465309
1782811039773965300,3.07196533203125,-0.0688118115067482,-0.018533427268266678,0.04863671213388443
1782811039784036400,3.082036376953125,-0.06971830129623413,-0.01708102598786354,0.04682542383670807
1782811039794108400,3.0921083984375,-0.06736885756254196,-0.00988276768475771,0.042951591312885284
1782811039804179200,3.10217919921875,-0.0726691409945488,-0.0065410686656832695,0.032167837023735046
1782811039814250200,3.112250244140625,-0.07610754668712616,-0.005490451585501432,0.026369333267211914
1782811039824322300,3.122322265625,-0.08121852576732635,0.003122627967968583,0.028740255162119865
1782811039834393600,3.1323935546875,-0.08284864574670792,0.010110762901604176,0.030618583783507347
1782811039844464600,3.142464599609375,-0.08777394145727158,0.010066483169794083,0.028618277981877327
1782811039854536400,3.152536376953125,-0.08725728839635849,0.016349678859114647,0.028860358521342278
1782811039864607500,3.162607421875,-0.08992589265108109,0.02364080399274826,0.022503221407532692
1782811039874678500,3.172678466796875,-0.09223564714193344,0.025947634130716324,0.008574623614549637
1782811039884750600,3.18275048828125,-0.09512581676244736,0.016703540459275246,-0.00580984354019165
1782811039894821600,3.192821533203125,-0.0933002158999443,0.002750441897660494,-0.013522092252969742
1782811039904892400,3.202892333984375,-0.08697989583015442,0.00238410453312099,-0.00886493269354105
1782811039914964500,3.212964599609375,-0.0843910351395607,0.005299999378621578,0.008907939307391644
1782811039925035500,3.223035400390625,-0.08409154415130615,0.009161079302430153,0.027845699340105057
1782811039935106600,3.2331064453125,-0.08746656775474548,0.011620508506894112,0.04281160235404968
1782811039945178600,3.2431787109375,-0.09466380625963211,0.017033983021974564,0.05430298298597336
1782811039955249700,3.253249755859375,-0.10332014411687851,0.013995849527418613,0.06224080175161362
1782811039965320700,3.26332080078125,-0.11358258873224258,0.008973592892289162,0.06631932407617569
1782811039975392500,3.273392578125,-0.11873820424079895,0.005187110044062138,0.06869512796401978
1782811039985463600,3.283463623046875,-0.12380971014499664,0.00888059101998806,0.07051055878400803
1782811039995534600,3.29353466796875,-0.1216869056224823,-0.00016883015632629395,0.06771903485059738
1782811040005606700,3.303606689453125,-0.12311328947544098,-0.00835286546498537,0.05756055936217308
1782811040015677400,3.313677490234375,-0.11810814589262009,-0.025318799540400505,0.0470794253051281
1782811040025748500,3.32374853515625,-0.11209046840667725,-0.03840703144669533,0.03709854558110237
1782811040035820500,3.333820556640625,-0.10537877678871155,-0.045609816908836365,0.03767644986510277
1782811040045891600,3.3438916015625,-0.09622878581285477,-0.047827668488025665,0.042954590171575546
1782811040055962600,3.353962646484375,-0.09264763444662094,-0.03737476095557213,0.06242762878537178
1782811040066033700,3.36403369140625,-0.08571106940507889,-0.022606616839766502,0.08610081672668457
1782811040076105500,3.37410546875,-0.07782810926437378,-0.02060205489397049,0.09580031782388687
1782811040086176500,3.384176513671875,-0.06519971042871475,-0.026260942220687866,0.10680806636810303
1782811040096247600,3.39424755859375,-0.05474521219730377,-0.024911783635616302,0.10740115493535995
1782811040106319600,3.404319580078125,-0.04726812243461609,-0.025838540866971016,0.10559894889593124
1782811040116390400,3.414390380859375,-0.036411747336387634,-0.030723044648766518,0.0956038385629654
1782811040126461400,3.42446142578125,-0.03398726135492325,-0.04241503030061722,0.07676257938146591
1782811040136533500,3.434533447265625,-0.021157750859856606,-0.04735679179430008,0.060501579195261
1782811040146604500,3.4446044921875,-0.010994483716785908,-0.04897084832191467,0.05354021489620209
1782811040156675600,3.454675537109375,-0.0055448575876653194,-0.04029080644249916,0.058528315275907516
1782811040166747600,3.46474755859375,-0.003388548269867897,-0.028176940977573395,0.07718770205974579
1782811040176818700,3.474818603515625,-0.001893982058390975,-0.008874084800481796,0.09073706716299057
1782811040186889700,3.4848896484375,-0.004178071394562721,-0.002006474882364273,0.1032838448882103
1782811040196961500,3.49496142578125,-0.007724869064986706,-0.00950833410024643,0.10566817224025726
1782811040207032300,3.5050322265625,-0.00594070740044117,-0.024734865874052048,0.10902361571788788
1782811040217103400,3.515103271484375,-0.0019600805826485157,-0.03220290318131447,0.11970528960227966
1782811040227175400,3.525175537109375,-0.0034555038437247276,-0.033153682947158813,0.12951309978961945
1782811040237246500,3.53524658203125,-0.01414942741394043,-0.04006165638566017,0.13396164774894714
1782811040247317500,3.5453173828125,-0.029503975063562393,-0.03725176677107811,0.13567179441452026
1782811040257389600,3.5553896484375,-0.05125587433576584,-0.023013710975646973,0.13993418216705322
1782811040267460600,3.565460693359375,-0.06994328647851944,-0.003997778985649347,0.14890003204345703
1782811040277531600,3.57553173828125,-0.08046357333660126,0.009025078266859055,0.14568452537059784
1782811040287603700,3.585603759765625,-0.0900535061955452,0.00832425244152546,0.13235390186309814
1782811040297674800,3.5956748046875,-0.08869476616382599,0.014083604328334332,0.1217838004231453
1782811040307745500,3.60574560546875,-0.09286079555749893,0.007747989613562822,0.1059834212064743
1782811040317817300,3.6158173828125,-0.0959404706954956,0.003902651369571686,0.08353164047002792
1782811040327888400,3.625888427734375,-0.10153988003730774,0.00237443158403039,0.06043098121881485
1782811040337959400,3.63595947265625,-0.10805503278970718,0.004744911566376686,0.040614932775497437
1782811040348030500,3.646030517578125,-0.11338823288679123,0.007626508828252554,0.022848233580589294
1782811040358102500,3.6561025390625,-0.11539598554372787,0.006287471391260624,0.005743016488850117
1782811040368173600,3.666173583984375,-0.11867151409387589,0.008755043148994446,-0.003304897341877222
1782811040378244600,3.67624462890625,-0.11176460981369019,0.010350009426474571,-0.008122555911540985
1782811040388316700,3.686316650390625,-0.10781172662973404,0.014711678959429264,-0.004951308947056532
1782811040398387500,3.696387451171875,-0.10183266550302505,0.021005528047680855,-0.0016370051307603717
1782811040408458500,3.70645849609375,-0.08605935424566269,0.01846231520175934,0.00015239912318065763
1782811040418530600,3.716530517578125,-0.07382506132125854,0.004856225103139877,0.003913048654794693
1782811040428601600,3.7266015625,-0.061177536845207214,0.005229860544204712,0.014566062018275261
1782811040438672600,3.736672607421875,-0.04695945233106613,-0.0015364326536655426,0.02514333836734295
1782811040448744400,3.746744384765625,-0.03401825204491615,-0.01642511785030365,0.027924684807658195
1782811040458815500,3.7568154296875,-0.02341194823384285,-0.021886995062232018,0.034116532653570175
1782811040468886500,3.766886474609375,-0.009313870221376419,-0.028613612055778503,0.03217129781842232
1782811040478958600,3.77695849609375,0.005893046036362648,-0.04406420886516571,0.03650745749473572
1782811040489029600,3.787029541015625,0.018670417368412018,-0.046723872423172,0.04062798246741295
1782811040499100400,3.797100341796875,0.032434698194265366,-0.026178382337093353,0.052835915237665176
1782811040509172500,3.80717236328125,0.04218996316194534,-0.011854066513478756,0.06353780627250671
1782811040519243500,3.817243408203125,0.053099337965250015,-0.01955326646566391,0.06036411598324776
1782811040529314600,3.827314453125,0.06252207607030869,-0.03077639453113079,0.05236975476145744
1782811040539386600,3.83738671875,0.0732511505484581,-0.04203517735004425,0.03586135059595108
1782811040549457700,3.847457763671875,0.08554644137620926,-0.05628497153520584,0.012229299172759056
1782811040559528700,3.85752880859375,0.09343259781599045,-0.07844913005828857,-0.011111710220575333
1782811040569599700,3.867599853515625,0.10199145972728729,-0.10316646099090576,-0.040907155722379684
1782811040579671600,3.877671630859375,0.09933251142501831,-0.13141505420207977,-0.06949878484010696
1782811040589742600,3.88774267578125,0.10187599062919617,-0.14799468219280243,-0.0872778370976448
1782811040599813400,3.8978134765625,0.10067251324653625,-0.15297293663024902,-0.08329534530639648
1782811040609885400,3.907885498046875,0.09783506393432617,-0.1480296552181244,-0.0681953877210617
1782811040619956500,3.91795654296875,0.09860099107027054,-0.1298474669456482,-0.04906989634037018
1782811040630027500,3.928027587890625,0.09556695073843002,-0.10384770482778549,-0.031141674146056175
1782811040640099600,3.938099609375,0.09047019481658936,-0.09168904274702072,-0.03503761067986488
1782811040650170600,3.948170654296875,0.0839141309261322,-0.08671588450670242,-0.05052018538117409
1782811040660241700,3.95824169921875,0.07464925944805145,-0.09511709213256836,-0.07748576253652573
1782811040670313500,3.9683134765625,0.06817293912172318,-0.11077495664358139,-0.10689638555049896
1782811040680384500,3.978384521484375,0.059691306203603745,-0.11956685036420822,-0.12023109942674637
1782811040690455600,3.98845556640625,0.04959120973944664,-0.10794579982757568,-0.11173181980848312
1782811040700527600,3.998527587890625,0.03907625004649162,-0.09322331100702286,-0.09502927213907242
1782811040710598400,4.008598388671875,0.032866235822439194,-0.08664678782224655,-0.07218917459249496
1782811040720669400,4.01866943359375,0.029319699853658676,-0.08016199618577957,-0.05398114025592804
1782811040730741500,4.028741455078125,0.024368520826101303,-0.06187168136239052,-0.020125338807702065
1782811040740812500,4.0388125,0.014401908032596111,-0.027977893128991127,0.01787290908396244
1782811040750883600,4.048883544921875,0.002733584027737379,0.0011450317688286304,0.05047522112727165
1782811040760955600,4.05895556640625,-0.0064710997976362705,0.01785876415669918,0.0647210031747818
1782811040771026700,4.069026611328125,-0.015129574574530125,0.013904256746172905,0.06945393234491348
1782811040781097700,4.07909765625,-0.016377532854676247,0.017888611182570457,0.06770556420087814
1782811040791169500,4.08916943359375,-0.02099107950925827,0.023356033489108086,0.05821967124938965
1782811040801240300,4.099240234375,-0.025778111070394516,0.01056380569934845,0.040800467133522034
1782811040811311400,4.109311279296875,-0.03215552493929863,0.012158285826444626,0.018869416788220406
1782811040821382400,4.11938232421875,-0.03869837895035744,0.011093554086983204,0.005833243951201439
1782811040831454500,4.129454345703125,-0.047474462538957596,0.0030312242452055216,-0.01327914372086525
1782811040841525000,4.13952490234375,-0.04805263504385948,0.003921785391867161,-0.017841672524809837
1782811040851596000,4.149595947265625,-0.042953211814165115,0.019617125391960144,-0.010408522561192513
1782811040861668000,4.159668212890625,-0.04158994182944298,0.03704964369535446,-0.00490403501316905
1782811040871739100,4.1697392578125,-0.033268362283706665,0.039107467979192734,-0.015546026639640331
1782811040881810000,4.179809814453125,-0.021425018087029457,0.03566426783800125,-0.030581967905163765
1782811040891882000,4.189882080078125,-0.011546499095857143,0.02888990007340908,-0.04133561626076698
1782811040901953000,4.199953125,-0.00710621103644371,0.015479818917810917,-0.04866782948374748
1782811040912024000,4.210024169921875,0.0034859294537454844,0.017550231888890266,-0.03703876584768295
1782811040922096000,4.22009619140625,0.009794425219297409,0.03857455775141716,-0.015125474892556667
1782811040932167200,4.230167236328125,0.007351398468017578,0.04806410148739815,0.00017159312847070396
1782811040942238200,4.24023828125,0.008003606460988522,0.04721721634268761,0.009646055288612843
1782811040952310000,4.25031005859375,0.013193253427743912,0.05011029168963432,0.02155977487564087
1782811040962381000,4.260381103515625,0.017012491822242737,0.057762350887060165,0.037824228405952454
1782811040972452000,4.2704521484375,0.021746691316366196,0.07676801085472107,0.0530431903898716
1782811040982524200,4.280524169921875,0.02304605022072792,0.0832219198346138,0.06439012289047241
1782811040992595000,4.290594970703125,0.02783627063035965,0.07603193819522858,0.0627911239862442
1782811041002666000,4.300666015625,0.03405368700623512,0.05413968116044998,0.045598819851875305
1782811041012738000,4.310738037109375,0.03696579858660698,0.028566621243953705,0.01274815108627081
1782811041022809000,4.32080908203125,0.03294842317700386,0.004486584570258856,-0.019314177334308624
1782811041032880000,4.330880126953125,0.03267737105488777,-0.007634079083800316,-0.035616520792245865
1782811041042951200,4.340951171875,0.03309308737516403,0.005018599331378937,-0.030446525663137436
1782811041053023000,4.35102294921875,0.030968472361564636,0.016167573630809784,-0.013672142289578915
1782811041063094000,4.361093994140625,0.02683764323592186,0.018050961196422577,-0.002255969448015094
1782811041073165000,4.3711650390625,0.025169648230075836,0.02146349474787712,0.0049952007830142975
1782811041083236900,4.38123681640625,0.020094994455575943,0.02463638409972191,0.006118255667388439
1782811041093308000,4.391307861328125,0.00955953449010849,0.023751402273774147,-0.004397463519126177
1782811041103379000,4.40137890625,0.004584216978400946,0.01769803650677204,-0.007591126020997763
1782811041113451000,4.411450927734375,-0.004744354169815779,0.01998443715274334,-0.009823283180594444
1782811041123522000,4.42152197265625,-0.010516488924622536,0.020263269543647766,-0.007737229112535715
1782811041133593000,4.431593017578125,-0.012799090705811977,0.017914775758981705,-0.005263074301183224
1782811041143665200,4.4416650390625,-0.013722674921154976,0.010176428593695164,-0.005815946497023106
1782811041153736200,4.451736083984375,-0.012721003964543343,0.003239202778786421,-0.004216368310153484
1782811041163807200,4.46180712890625,-0.01642492786049843,0.012632438912987709,-0.0052222441881895065
1782811041173879000,4.471879150390625,-0.019344713538885117,0.021959206089377403,-0.00027746136765927076
1782811041183949800,4.48194970703125,-0.023310957476496696,0.02121778205037117,0.0019097928889095783
1782811041194020900,4.492020751953125,-0.026507388800382614,0.019243333488702774,0.0017013264587149024
1782811041204093000,4.502093017578125,-0.026025887578725815,0.017129315063357353,0.013972107321023941
1782811041214164000,4.5121640625,-0.020456910133361816,0.024297567084431648,0.025453761219978333
1782811041224235000,4.522235107421875,-0.01596149429678917,0.02521289512515068,0.03397800773382187
1782811041234307000,4.53230712890625,-0.013641872443258762,0.01589513197541237,0.03234701603651047
1782811041244378000,4.542378173828125,-0.013197391293942928,0.006311746779829264,0.027374358847737312
1782811041254449200,4.55244921875,-0.007550956681370735,0.004138074815273285,0.028538960963487625
1782811041264520200,4.562520263671875,-0.000540984096005559,-0.0006052814424037933,0.026208961382508278
1782811041274592300,4.57259228515625,0.004211160354316235,-0.008161468431353569,0.022595584392547607
1782811041284663000,4.5826630859375,0.011935392394661903,-0.007140944711863995,0.019739875569939613
1782811041294734000,4.592734130859375,0.018710898235440254,-0.0026048808358609676,0.013836584985256195
1782811041304806000,4.602805908203125,0.024485696107149124,-0.0028291186317801476,0.005389037076383829
1782811041314877000,4.612876953125,0.028730135411024094,-0.005118876229971647,0.003920326475054026
1782811041324948000,4.622947998046875,0.040058691054582596,-0.005173737648874521,0.01190714631229639
1782811041335020000,4.63302001953125,0.04956357181072235,0.015437568537890911,0.03647306188941002
1782811041345091000,4.643091064453125,0.048560090363025665,0.0380731076002121,0.0708608627319336
1782811041355162000,4.653162109375,0.052201803773641586,0.047684166580438614,0.10703185945749283
1782811041365234200,4.663234130859375,0.06172872707247734,0.046672429889440536,0.1335127353668213
1782811041375305000,4.673304931640625,0.06184031441807747,0.026560643687844276,0.13867752254009247
1782811041385376000,4.6833759765625,0.06372423470020294,-0.006202363409101963,0.13885489106178284
1782811041395448000,4.693447998046875,0.06564369052648544,-0.021562712267041206,0.136447936296463
1782811041405519000,4.70351904296875,0.06122256815433502,-0.028647519648075104,0.1362287551164627
1782811041415590100,4.713590087890625,0.058388542383909225,-0.03016887605190277,0.12438683956861496
1782811041425662000,4.723661865234375,0.05219829082489014,-0.036939963698387146,0.10614977777004242
1782811041435733000,4.73373291015625,0.04939653351902962,-0.04136490821838379,0.08120168745517731
1782811041445804000,4.743803955078125,0.042528774589300156,-0.04540838301181793,0.05184859037399292
1782811041455875000,4.753875,0.038689665496349335,-0.050076525658369064,0.017757290974259377
1782811041465947100,4.763947021484375,0.0343356616795063,-0.05486701801419258,-0.010026137344539165
1782811041476018000,4.774017822265625,0.027874622493982315,-0.05496697127819061,-0.03217332065105438
1782811041486089000,4.7840888671875,0.019260628148913383,-0.03472615033388138,-0.03466710448265076
1782811041496161000,4.7941611328125,0.007894526235759258,-0.00563977612182498,-0.040346410125494
1782811041506232000,4.804232177734375,-0.00001612736377865076,-0.004233893472701311,-0.056542158126831055
1782811041516303000,4.81430322265625,0.0014188885688781738,-0.020879603922367096,-0.08169535547494888
1782811041526375200,4.824375244140625,0.00783550925552845,-0.05964191257953644,-0.11488979309797287
1782811041536446200,4.8344462890625,0.003418068867176771,-0.10804345458745956,-0.14815101027488708
1782811041546517200,4.844517333984375,0.0020105880685150623,-0.1451473981142044,-0.17952969670295715
1782811041556589000,4.854589111328125,-0.008546764962375164,-0.15957900881767273,-0.1686479151248932
1782811041566660000,4.86466015625,-0.02156216651201248,-0.15395626425743103,-0.14397665858268738
1782811041576731000,4.87473095703125,-0.03376765549182892,-0.16186712682247162,-0.12108945101499557
1782811041586803000,4.884802978515625,-0.03646437078714371,-0.17009548842906952,-0.11370770633220673
1782811041596874000,4.8948740234375,-0.02799108996987343,-0.1698434203863144,-0.12608905136585236
1782811041606945000,4.904945068359375,-0.011409714818000793,-0.17411991953849792,-0.16178366541862488
1782811041617017000,4.91501708984375,0.0010733193485066295,-0.2007286250591278,-0.21713320910930634
1782811041627088100,4.925088134765625,0.007859853096306324,-0.2362285703420639,-0.26167619228363037
1782811041637159200,4.9351591796875,0.009260037913918495,-0.25735658407211304,-0.2918411195278168
1782811041647230200,4.945230224609375,0.013422559015452862,-0.2662622034549713,-0.28832173347473145
1782811041657302000,4.955302001953125,0.010346552357077599,-0.24676059186458588,-0.2689346373081207
1782811041667373000,4.965373046875,0.013071233406662941,-0.21646900475025177,-0.2311776876449585
1782811041677444000,4.975444091796875,0.01998804695904255,-0.1889057606458664,-0.1877683848142624
1782811041687516000,4.985515869140625,0.028875282034277916,-0.18354880809783936,-0.14575062692165375
1782811041697587000,4.9955869140625,0.03710386902093887,-0.15735362470149994,-0.09398132562637329
1782811041707658000,5.005657958984375,0.04289704188704491,-0.10700257122516632,-0.031848445534706116
1782811041717730000,5.01572998046875,0.049589719623327255,-0.05486982688307762,0.02542947791516781
1782811041727801000,5.025801025390625,0.05726521462202072,-0.021496420726180077,0.05810859426856041
1782811041737872100,5.0358720703125,0.057496219873428345,-0.01959788054227829,0.07054047286510468
1782811041747944200,5.045944091796875,0.0642678365111351,-0.03275948762893677,0.06928106397390366
1782811041758015200,5.05601513671875,0.06906083971261978,-0.04023514688014984,0.05470997467637062
1782811041768086000,5.0660859375,0.0728214904665947,-0.05520903691649437,0.026069005951285362
1782811041778157800,5.07615771484375,0.08424171060323715,-0.07432994991540909,-0.0069442568346858025
1782811041788228900,5.086228759765625,0.0862492024898529,-0.08723988384008408,-0.026479609310626984
1782811041798300000,5.0962998046875,0.0896160751581192,-0.10431143641471863,-0.04208274185657501
1782811041808372000,5.1063720703125,0.084830641746521,-0.10839805752038956,-0.048650629818439484
1782811041818443000,5.116443115234375,0.07687844336032867,-0.09754354506731033,-0.044451624155044556
1782811041828514000,5.12651416015625,0.06319964677095413,-0.07787370681762695,-0.02654133550822735
1782811041838586000,5.136586181640625,0.04990503937005997,-0.04535834491252899,-0.005756405647844076
1782811041848657200,5.1466572265625,0.035695210099220276,-0.019113689661026,0.007552475202828646
1782811041858728200,5.156728271484375,0.025872403755784035,-0.0032008960843086243,0.01076995488256216
1782811041868799200,5.16679931640625,0.02409634180366993,0.006878902204334736,-0.006276939995586872
1782811041878871300,5.176871337890625,0.021854016929864883,-0.005652293097227812,-0.018987057730555534
1782811041888942000,5.186942138671875,0.02014853060245514,-0.007432084064930677,-0.036567386239767075
1782811041899013000,5.19701318359375,0.018527990207076073,-0.004331883508712053,-0.04343464598059654
1782811041909085000,5.2070849609375,0.015391852706670761,-0.02187412604689598,-0.050741031765937805
1782811041919156000,5.217156005859375,0.010824007913470268,-0.015649134293198586,-0.04512713477015495
1782811041929227000,5.22722705078125,0.00563217606395483,-0.004695020616054535,-0.03357141464948654
1782811041939299000,5.237299072265625,0.0034917863085865974,0.0023945870343595743,-0.02156541682779789
1782811041949370000,5.2473701171875,0.002199087757617235,0.01762360706925392,-0.015628430992364883
1782811041959441200,5.257441162109375,-0.005071869120001793,0.019524695351719856,-0.01400185376405716
1782811041969513200,5.26751318359375,-0.005975745618343353,0.01295814011245966,-0.018619241192936897
1782811041979584000,5.277583984375,-0.010049588978290558,0.010493259876966476,-0.020882315933704376
1782811041989655000,5.287655029296875,-0.007178967352956533,0.0212220698595047,-0.015089407563209534
1782811041999727000,5.29772705078125,-0.00197872007265687,0.019515011459589005,-0.01819782704114914
1782811042009795000,5.307795166015625,0.001537185162305832,0.0219587292522192,-0.025403276085853577
1782811042019866000,5.3178662109375,0.0072578731924295425,0.004903515335172415,-0.034926481544971466
1782811042029938000,5.32793798828125,0.012330396100878716,-0.009923367761075497,-0.03981604799628258
1782811042040009000,5.338009033203125,0.017516257241368294,-0.008580832742154598,-0.04274154081940651
1782811042050080000,5.348080078125,0.021495020017027855,-0.0012257141061127186,-0.043861933052539825
1782811042060152000,5.358152099609375,0.025046247988939285,-0.0035659433342516422,-0.047233521938323975
1782811042070223000,5.36822314453125,0.02218201756477356,-0.003398696891963482,-0.05581555888056755
1782811042080294100,5.378294189453125,0.01739167794585228,-0.012580451555550098,-0.06522002071142197
1782811042090366200,5.3883662109375,0.012420887127518654,-0.028230518102645874,-0.07278819382190704
1782811042100437200,5.398437255859375,0.006544200237840414,-0.02515805885195732,-0.06233580783009529
1782811042110508300,5.40850830078125,0.003366516437381506,-0.00719157699495554,-0.03332572802901268
1782811042120580000,5.418580078125,0.004883021581918001,0.005809558555483818,-0.004758207127451897
1782811042130651000,5.42865087890625,0.00725216930732131,0.019281690940260887,0.0156748965382576
1782811042140722000,5.438721923828125,0.011597121134400368,0.030799854546785355,0.027157684788107872
1782811042150793000,5.44879296875,0.017483770847320557,0.02541867084801197,0.012731340713799
1782811042160865000,5.458864990234375,0.02049628645181656,-0.00019566621631383896,-0.011209724470973015
1782811042170936000,5.46893603515625,0.024428976699709892,-0.011448054574429989,-0.030156517401337624
1782811042181007000,5.479007080078125,0.027054373174905777,-0.0154414102435112,-0.04073641449213028
1782811042191079200,5.4890791015625,0.02730391174554825,-0.013156152330338955,-0.04320809245109558
1782811042201150200,5.499150146484375,0.02890053018927574,0.0026090166065841913,-0.033427320420742035
1782811042211221000,5.509220947265625,0.019730733707547188,0.010335112921893597,-0.02533397264778614
1782811042221293300,5.519293212890625,0.009428825229406357,-0.005412553437054157,-0.03274703398346901
1782811042231364000,5.529364013671875,0.0028939610347151756,-0.021439190953969955,-0.022624891251325607
1782811042241435100,5.53943505859375,-0.0000781770795583725,-0.004203669726848602,0.008303036913275719
1782811042251507000,5.5495068359375,0.0046998001635074615,0.009782186709344387,0.0316629521548748
1782811042261578000,5.559577880859375,-0.006833814084529877,0.14538782835006714,0.1284511834383011
1782811042271649000,5.56964892578125,-0.018797531723976135,0.09922005981206894,0.1267470270395279
1782811042281721000,5.57972119140625,-0.015700116753578186,0.03550103306770325,0.11919380724430084
1782811042291792100,5.589792236328125,-0.014315539039671421,0.000044504180550575256,0.118948794901371
1782811042301863200,5.59986328125,-0.0204012393951416,-0.0035767073277384043,0.11640531569719315
1782811042311935200,5.609935302734375,-0.036916036158800125,-0.03114122524857521,0.09139476716518402
1782811042322006000,5.620006103515625,-0.0564269982278347,-0.08009674400091171,0.056861016899347305
1782811042332077000,5.6300771484375,-0.059699755162000656,-0.1086178719997406,0.02450680546462536
1782811042342148000,5.640148193359375,-0.0762803703546524,-0.10700845718383789,0.017366480082273483
1782811042352220200,5.65022021484375,-0.06723441183567047,-0.10426779836416245,0.0051566846668720245
1782811042362291200,5.660291259765625,-0.04730859398841858,-0.10347118973731995,-0.01756882108747959
1782811042372362200,5.6703623046875,-0.030728552490472794,-0.04380279779434204,-0.03662267327308655
1782811042382434000,5.68043408203125,-0.021792633458971977,-0.06277401000261307,-0.09331411123275757
