time,seconds_elapsed,z,y,x
1782661700590418400,0.06841845703125,0.014643442380428313,-0.03040808907682076,0.011186415528040379
1782661700600489500,0.078489501953125,-0.004664484679698944,-0.04555208312422037,-0.0016636086635524407
1782661700610561300,0.088561279296875,-0.009305003961920738,-0.04530835576253012,0.029264065574272535
1782661700620632300,0.09863232421875,-0.018434066835045813,-0.05097005305234342,0.017198191197426056
1782661700630703400,0.108703369140625,-0.0015267711758613586,-0.055521085686516015,0.008124881666107102
1782661700640774400,0.1187744140625,0.007298340314626693,-0.07276649072626605,0.009768808381655253
1782661700650846500,0.128846435546875,0.013726912057399749,-0.05911162099177018,-0.010815431357757187
1782661700660917500,0.13891748046875,0.006388824254274368,-0.05897056855326518,0.006210567910806275
1782661700670988300,0.14898828125,-0.0006546645164489745,-0.042426224454957986,-0.00448957563736476
1782661700681060400,0.159060302734375,0.021322189491987227,-0.04986077663619071,-0.004478921812609769
1782661700691131400,0.16913134765625,-0.0057756607919931405,-0.044119036380108445,-0.008094016170385293
1782661700701202400,0.179202392578125,0.000339022696018219,-0.029611659735813735,-0.02569074626530055
1782661700711273500,0.1892734375,-0.009562193593382834,-0.03801408883482218,-0.017689614276448263
1782661700721345500,0.199345458984375,-0.0024117373168468475,-0.04057201142301783,-0.013694585256953723
1782661700731416600,0.20941650390625,-0.0037836101919412612,-0.036527320875786244,0.0014877634728793054
1782661700741487600,0.219487548828125,0.005172434201836586,-0.02658681375561282,-0.0049087737303925676
1782661700751559400,0.229559326171875,0.001264320847392082,-0.03996935108844191,-0.004196141082164831
1782661700761630500,0.23963037109375,-0.014917583146691322,-0.03429424632778391,-0.01755764932669699
1782661700771701200,0.249701171875,-0.003859598037600517,-0.05311356788706034,-0.013508072541793807
1782661700781772300,0.259772216796875,0.016178396862745283,-0.041111251132562754,-0.011655092485714703
1782661700791844400,0.26984423828125,-0.00613514175415039,-0.036970936457440255,0.0018533088496420532
1782661700801915400,0.279915283203125,-0.005101707053184509,-0.041490240512788296,-0.007285120073449797
1782661700811986400,0.289986328125,-0.0024216741889715194,-0.02281288470746949,-0.001737902309047058
1782661700822058500,0.30005859375,-0.0049731122374534606,-0.03488801096985116,0.005580891705141403
1782661700832129500,0.310129638671875,0.0008469722181558609,-0.03707828755574301,-0.001881046239938587
1782661700842200600,0.32020068359375,0.011755904245376586,-0.04221033494826406,0.00942874450602103
1782661700852271400,0.330271240234375,0.0020066636472940444,-0.038154575017746536,0.001467770997621119
1782661700862343400,0.340343505859375,0.009917582902312278,-0.0303428783535026,0.0055171970854746176
1782661700872414500,0.35041455078125,0.006313420930504798,-0.04908053124500438,-0.010384871620498597
1782661700882485500,0.360485595703125,0.014230185404419898,-0.05646368203256279,-0.019846184955560602
1782661700892557300,0.370557373046875,0.014824059644341468,-0.044417982794065024,-0.010511525640892796
1782661700902628400,0.38062841796875,0.008677227452397346,-0.03638352849092334,-0.015736986937909387
1782661700912699400,0.390699462890625,0.008817512705922126,-0.038526751064695414,-0.020315359670156612
1782661700922770400,0.4007705078125,-0.004807692542672157,-0.03965845850836485,-0.014096046763891354
1782661700932842500,0.410842529296875,-0.0015250176101922989,-0.029533461666759103,-0.011555965793062933
1782661700942913500,0.42091357421875,-0.00123217214345932,-0.02801681002611294,-0.029193507388979197
1782661700952984300,0.430984375,-0.0045364743858575815,-0.022454572789091614,-0.005903419924085028
1782661700963056400,0.441056396484375,0.007114800441265106,-0.016120602260902523,0.013146385922818443
1782661700973127400,0.45112744140625,-0.008750877210497856,0.002152812386024743,0.05745995392776094
1782661700983198500,0.461198486328125,0.0014209727138280869,-0.006392970706429332,0.014246885377471335
1782661700993269500,0.47126953125,-0.0108534024477005,-0.03602386486567557,-0.0184074802222196
1782661701003341300,0.48134130859375,-0.00696516283750534,-0.050896385027933866,-0.002253697210922837
1782661701013412400,0.491412353515625,0.00066401686668396,-0.043785950234532356,-0.02014918192354962
1782661701023483400,0.5014833984375,-0.010412672942876814,-0.01973007972864434,0.009744491357728839
1782661701033554400,0.511554443359375,0.006489946541190147,-0.036557716014049946,0.026220738655887543
1782661701043626200,0.521626220703125,-0.0008434650868177413,-0.03192240262990817,0.014249511159397661
1782661701053697300,0.531697265625,-0.002042904004454613,-0.004292655692622065,0.014872013272182084
1782661701063768300,0.541768310546875,0.0042407063096761705,-0.008893518817890435,0.009478209670935756
1782661701073840400,0.55184033203125,0.003332359293103218,-0.01124448412451893,0.007540145147289149
1782661701083911400,0.561911376953125,0.004072364005446433,-0.025501046079210936,-0.0019038882594089954
1782661701093982500,0.571982421875,-0.0014724106401205062,-0.03167679383838549,-0.007440867757587693
1782661701104053500,0.582053466796875,0.011689268749952316,-0.025588139840774238,-0.004405390785518102
1782661701114125600,0.59212548828125,0.0025578677892684936,-0.01881466365046799,-0.02173426829106174
1782661701124196600,0.602196533203125,0.0064461073994636535,-0.044937787150777876,-0.02514116782483179
1782661701134267400,0.612267333984375,0.0052460839599370954,-0.03284572801990435,-0.01958300854130648
1782661701144339200,0.622339111328125,0.004348258337378502,-0.03658370897183195,-0.03333373073255643
1782661701154410200,0.63241015625,0.0033019641548395155,-0.03996091205365956,-0.029497550103161484
1782661701164481300,0.642481201171875,0.019461071795225143,-0.03317987361140549,-0.022631253663403912
1782661701174552300,0.65255224609375,-0.0028366847306489943,-0.04090423905206844,-0.022869848192250356
1782661701184624400,0.662624267578125,0.014516016608476639,-0.02334437950197607,-0.024966130918334238
1782661701194695400,0.6726953125,-0.0026958149552345273,-0.01852194604789838,-0.020591377299674786
1782661701204766500,0.682766357421875,0.008213117071986197,-0.04245419017411768,-0.02193308793194592
1782661701214838500,0.692838623046875,-0.0024228432327508924,-0.026457853613700715,-0.04128283570664935
1782661701224909600,0.70290966796875,-0.00004091653227806091,-0.02897725255610421,-0.015099707381101325
1782661701234980400,0.71298046875,0.0012935469418764113,-0.039622766140475864,-0.012351806045603006
1782661701245051400,0.723051513671875,0.011309914043545722,-0.025812048257142305,-0.010688626640313304
1782661701255123500,0.73312353515625,0.004566869524121284,-0.014995653351582585,0.006464743601274676
1782661701265194500,0.743194580078125,-0.00576046322286129,-0.00942464828621596,-0.0007754824511008336
1782661701275265500,0.753265625,-0.01833177550435066,0.014261201597191393,0.07695448046801612
1782661701285337300,0.76333740234375,-0.00023030162453651428,0.0570669634216465,0.13407768585523588
1782661701295408400,0.773408447265625,-0.000533083963394165,-0.0016668737662956117,0.00921604703683406
1782661701305479400,0.7834794921875,-0.0166962832570076,-0.06162015148028731,-0.03865709487951826
1782661701315550200,0.79355029296875,0.016071429356932638,-0.06617377793034539,-0.034245845175371506
1782661701325622300,0.803622314453125,-0.002483048987388611,-0.07319691803278401,-0.03354946954220067
1782661701335693300,0.813693359375,-0.01564706646502018,-0.04656082177534699,-0.008948390810284763
1782661701345764400,0.823764404296875,-0.004723521390557289,-0.012728201609943061,0.0023454077820992095
1782661701355836400,0.83383642578125,-0.007867664635181426,0.03335002428023144,0.04957749358224682
1782661701365907500,0.843907470703125,-0.01085866314470768,0.003256864637788385,0.015876436507795005
1782661701375978500,0.853978515625,-0.005173018723726272,-0.04053746983259916,-0.04870321323205717
1782661701386049500,0.864049560546875,-0.0014350012391805649,-0.03475715113179758,-0.028444474553386678
1782661701396121600,0.87412158203125,0.0011117606341838836,-0.04411216824790463,-0.011184483865858056
1782661701406192600,0.884192626953125,-0.01579728859066963,-0.004452230168506503,0.030546433535008688
1782661701416263400,0.894263427734375,-0.017593524357676506,0.012499452621676028,0.04126413100617937
1782661701426335200,0.904335205078125,-0.008467384093999861,-0.009767872233316302,0.02314394329274073
1782661701436406300,0.91440625,0.01338438223004341,-0.0427398387150839,-0.015708970986399798
1782661701446477300,0.924477294921875,-0.0003828618377447128,-0.05420788419609889,-0.015082628382137045
1782661701456548400,0.93454833984375,-0.006519172635674476,-0.04343708199793472,0.004215229375124909
1782661701466620400,0.944620361328125,-0.017146365112066266,-0.015850699278339743,0.04062273696325719
1782661701476691500,0.95469140625,0.0055944590061902996,-0.009110650433599949,0.02932130762026645
1782661701486762500,0.964762451171875,-0.0117640875518322,-0.013987590553890913,-0.00041467718153726305
1782661701496834600,0.97483447265625,0.004400865307450294,-0.03284472337290644,0.007640787943592295
1782661701506905300,0.9849052734375,0.0015577508360147476,-0.04418990965923294,-0.008622939981892704
1782661701516976400,0.994976318359375,-0.019248890349268914,-0.022802436378691344,-0.011378198073362
1782661701527047400,1.00504736328125,-0.004890110129117965,-0.023128563060518352,0.009408943827007897
1782661701537119500,1.015119384765625,0.007226444122195244,-0.025995423733722416,-0.010655902547645382
1782661701547190500,1.0251904296875,-0.0005535422295331955,-0.03171573760928586,-0.00023906031972728667
1782661701557261600,1.035261474609375,-0.00847965905368328,-0.018258746800757942,0.0023285616785753516
1782661701567332600,1.04533251953125,0.017556699478626252,-0.028261870828364042,-0.013221528951684013
1782661701577404400,1.055404296875,0.006475918015837669,-0.020609894770476967,-0.003952094060066156
1782661701587475500,1.065475341796875,0.009004559710621833,-0.002252217639889568,0.001469323633890599
1782661701597546500,1.07554638671875,0.013783610680699348,-0.020014741888921706,-0.001868497285619378
1782661701607618600,1.08561865234375,0.004800678279995918,-0.025161658057011663,-0.009897448863158933
1782661701617689600,1.095689697265625,-0.001496376037597656,-0.02084662613580003,-0.01178930419147946
1782661701627760600,1.1057607421875,-0.008090951997041702,-0.021746917710080742,-0.0023133230102481317
1782661701637831400,1.11583154296875,-0.003308393895626068,-0.011772343923524022,0.015334274188801645
1782661701647903500,1.125903564453125,0.0099994159668684,-0.017284421875886618,0.029907729206094517
1782661701657974500,1.135974609375,0.016724340307712554,-0.006310936712473631,0.014385659093922002
1782661701668045600,1.146045654296875,-0.0021317513316869733,-0.01643671900536865,0.01040544861764647
1782661701678117600,1.15611767578125,0.0014537059396505356,-0.010925755297858268,0.007137368466099724
1782661701688188700,1.166188720703125,-0.001247369712591171,-0.013914068659953772,0.012821633780747651
1782661701698259700,1.176259765625,-0.0027507600128650663,-0.013379066734109072,0.0022269416347378865
1782661701708330800,1.186330810546875,-0.02071253316104412,-0.005251746515743434,0.005707993250107392
1782661701718402600,1.196402587890625,-0.005153729501366615,-0.015242102393321692,0.005789995278022252
1782661701728473600,1.2064736328125,-0.00440846409201622,-0.0073847947553731495,0.007053681371174752
1782661701738544400,1.21654443359375,-0.006202946293354034,-0.01647924297284335,-0.0024342277098679914
1782661701748615400,1.226615478515625,0.004120294800400734,-0.027896709044091403,-0.011570998965413309
1782661701758687500,1.2366875,0.0029208558827638624,-0.014943210778292268,-0.02649715357762761
1782661701768758500,1.246758544921875,-0.02012391961812973,-0.0005205167427659034,0.009155658619105816
1782661701778829600,1.25682958984375,0.0008218377768993377,-0.011622761118691413,0.020587810802832243
1782661701788901600,1.266901611328125,-0.001724339574575424,-0.009667845924943685,-0.007760683429636992
1782661701798972700,1.27697265625,-0.0033750293910503387,-0.03203994632866233,0.0011021616887766867
1782661701809043700,1.287043701171875,-0.008764321213960646,-0.03091461382685229,0.00469952859361656
1782661701819114500,1.297114501953125,-0.005325578936934471,-0.01961881964020431,0.010717336711566895
1782661701829186600,1.3071865234375,-0.009673837274312973,-0.002834547572489828,0.0025773351081414147
1782661701839257600,1.317257568359375,0.007228197687864303,-0.008045907278917729,0.010520261503197252
1782661701849328600,1.32732861328125,0.0018435820400714872,-0.005702942615654319,0.009797226191964
1782661701859399700,1.337399658203125,-0.0045937575310468675,-0.017381215047556905,0.014897997096809558
1782661701869471500,1.347471435546875,0.009618892216682433,-0.014763543362449854,0.001450326672475785
1782661701879542500,1.35754248046875,0.018138883280754088,-0.01186084419088438,0.016650832113507204
1782661701889613600,1.367613525390625,0.0061585226297378535,-0.03188627187060192,0.03486411407103296
1782661701899685600,1.377685546875,-0.006714987468719482,-0.032781722872983664,0.006673851740732788
1782661701909756700,1.387756591796875,-0.0038742110848426817,-0.01848738619117066,-0.004929474025126546
1782661701919827500,1.397827392578125,0.0007604629784822463,-0.016227149641606955,0.01063702431723941
1782661701929898500,1.4078984375,0.011834230178594588,0.01325158616323024,0.007538053654902614
1782661701939970600,1.417970458984375,-0.0019365210205316541,0.005511237702146172,0.026563432880025356
1782661701950041600,1.42804150390625,-0.008225976553559302,-0.02480073405643925,0.0045161713833455
1782661701960112600,1.438112548828125,-0.00239244809448719,-0.03196932877786458,-0.01219046430431772
1782661701970183700,1.44818359375,0.005833528459072113,-0.0014673691388219594,-0.023660423181205988
1782661701980255500,1.45825537109375,-0.0039010990917682647,0.009436941512208431,-0.004108216203539632
1782661701990326500,1.468326416015625,0.003877718216180801,0.020585710177291182,0.02543720532907173
1782661702000397600,1.4783974609375,0.0019300912797451017,0.0003057049483060837,-0.0006765932204667478
1782661702010469400,1.488469482421875,-0.013178630524873733,-0.02396720584174618,-0.005052525016060099
1782661702020540400,1.49854052734375,-0.013922142368555069,-0.03583659866526723,-0.014956056560133582
1782661702030611500,1.508611572265625,0.01001636710166931,-0.027003559596650302,0.017153219544538297
1782661702040682500,1.5186826171875,0.010462941825389862,-0.01465496842144057,0.023933244206639937
1782661702050754600,1.528754638671875,0.006722001731395721,-0.040298035053536296,0.042178336941380984
1782661702060825600,1.53882568359375,0.003433481580018997,-0.04425466372482478,0.021318796525080688
1782661702070896600,1.548896728515625,-0.00554477464556694,-0.04528784269746393,0.014850783254485576
1782661702080967700,1.5589677734375,-0.007189619243144989,-0.033688462454359976,0.03289287793014664
1782661702091039700,1.569039794921875,0.0025339023917913435,-0.029568039789795875,0.033465179659076964
1782661702101110500,1.579110595703125,-0.0007639701098203659,-0.014897526739351451,0.025471071066055444
1782661702111181600,1.589181640625,-0.00884790784418583,-0.008780706093180924,0.007513759463862515
1782661702121253400,1.59925341796875,0.0034217911422252654,-0.016948540985025465,-0.016522579791070892
1782661702131324400,1.609324462890625,0.0004284545451402664,-0.00032934155222028494,-0.022815049265092237
1782661702141395500,1.6193955078125,0.007308861708641052,0.004404847362823784,-0.005837921506399288
1782661702151466500,1.629466552734375,-0.005415595307946205,0.018824673587828872,-0.009255776259023695
1782661702161538600,1.63953857421875,-0.0073632222443819045,0.010278488636575638,-0.02494139833587687
1782661702171609600,1.649609619140625,-0.0055704936087131495,0.01759787173923105,-0.02313062715344131
1782661702181680400,1.659680419921875,-0.005868015250563621,-0.0008128872854635119,-0.0267814412785694
1782661702191751400,1.66975146484375,-0.007510521760582923,-0.00586301028188318,-0.030757971093570813
1782661702201823500,1.679823486328125,0.002065115836262703,-0.026490166714414953,0.0163574934564298
1782661702211894500,1.68989453125,-0.01244680911898613,-0.02645178919909522,0.015863928652671166
1782661702221965600,1.699965576171875,0.0017687632381916045,-0.023202432014327496,0.030078797756950368
1782661702232036600,1.71003662109375,-0.014386837270855903,-0.03464696875559166,0.043278603500593454
1782661702242108700,1.720108642578125,-0.0019651625931262967,-0.03860250144833698,0.024704041349468752
1782661702252179700,1.7301796875,0.009108020085096358,-0.033079171449597926,0.0074456124313641335
1782661702262250800,1.740250732421875,-0.01468669700026512,-0.023002945653162896,0.006842495439061895
1782661702272322600,1.750322509765625,-0.019172902503609656,0.009041585519071667,0.004487251249537803
1782661702282393300,1.760393310546875,0.007910334733128547,0.005479600454866886,0.011701169250300153
1782661702292464400,1.77046435546875,0.00042377837002277374,-0.004814378011785447,-0.011743926113215274
1782661702302535400,1.780535400390625,-0.013198504269123076,-0.003256663708388805,-0.012360089816758409
1782661702312607500,1.790607421875,-0.0052700493574142455,-0.0035527605781331658,-0.024110153409815392
1782661702322678500,1.800678466796875,-0.005721884778141975,-0.0019455445772036909,-0.012616484863776712
1782661702332749600,1.81074951171875,-0.00048632221221923825,-0.00081915262946859,-0.013372732891445048
1782661702342820600,1.820820556640625,0.018664952981472013,0.005721208924707025,-0.003093317239684984
1782661702352892700,1.830892578125,0.014327216038107871,-0.007843516574613749,0.019870533945527857
1782661702362963500,1.84096337890625,0.011333879441022873,-0.02459085416542366,0.00497042252344545
1782661702373034500,1.851034423828125,0.0011550152540206909,-0.0220892466080375,0.012388717689621262
1782661702383105500,1.86110546875,0.0026519758135080335,-0.019727540711686014,0.015847310878010466
1782661702393177600,1.871177490234375,0.0044447044491767885,-0.03104664270868525,0.013540741835534572
1782661702403248600,1.88124853515625,-0.001991466078162193,-0.012574490619264543,0.00880652095444966
1782661702413319700,1.891319580078125,-0.012467851907014845,-0.00446152771981433,0.03180437487396411
1782661702423390700,1.901390625,0.005489829587936401,-0.017205401822924613,0.002827099484973587
1782661702433462500,1.911462646484375,-0.00708323625922203,-0.013297653794661163,0.02305292684130836
1782661702443533600,1.921533447265625,0.0009913491249084472,-0.002761409271042794,0.02314681566983927
1782661702453604400,1.931604248046875,0.009665069445967674,-0.017651099763810633,0.006015159503137692
1782661702463676400,1.941676513671875,-0.016381810480356217,-0.009787599847093225,0.013671039984584785
1782661702473747500,1.95174755859375,-0.007417582780122756,-0.021986315956525504,0.03110790334267076
1782661702483818500,1.961818603515625,0.013076923716068268,-0.014540018538571894,0.004355080803809687
1782661702493889500,1.9718896484375,0.00499532406926155,-0.00814940418601036,0.016571880559204145
1782661702503961600,1.981961669921875,-0.0032411738783121105,-0.015114676621370017,0.006455409517348743
1782661702514032600,1.99203271484375,-0.0035410336077213284,0.0011266111434437335,-0.019131967705022544
1782661702524103700,2.002103759765625,-0.0021919570863246918,-0.0007468180456198752,-0.0033832309638150036
1782661702534174500,2.012174560546875,0.00019523031115531922,-0.019642547575663773,-0.00048503900400828566
1782661702544246500,2.02224658203125,0.004085223487019538,-0.011367562514916062,-0.0021626853260677307
1782661702554317600,2.032317626953125,0.0024339491486549377,-0.0015490378065966069,0.004530090310843661
1782661702564388600,2.042388671875,0.006171382111310958,-0.012915833136532455,-0.001969071583263576
1782661702574459600,2.052459716796875,-0.00116027595102787,-0.021704357209987937,-0.017456590971862897
1782661702584531200,2.06253125,0.004670914420485496,-0.032422515905462204,-0.005566036629304289
1782661702594602200,2.072602294921875,-0.005053191736340523,-0.030851850788947192,0.000661765544093214
1782661702604673300,2.08267333984375,-0.001757072800397873,-0.023197701040282844,-0.007100338091072626
1782661702614744300,2.092744384765625,-0.014327216038107871,0.006952248557005077,0.01985390247113537
1782661702624816400,2.10281640625,-0.0040057285100221635,0.041349845661409194,0.0809445547511801
1782661702634887400,2.112887451171875,0.017542670953273772,0.020810824170056728,0.05092401282037608
1782661702644958500,2.12295849609375,-0.005949848315119743,-0.02351712398668751,-0.02280320356367156
1782661702655030500,2.133030517578125,0.00033317747712135315,-0.046539176199119535,-0.03716858705454506
1782661702665101600,2.1431015625,0.01694061340689659,-0.03926385143389925,-0.007901320309611036
1782661702675172400,2.15317236328125,-0.020768647262454032,-0.01634416361739859,0.03284588328353129
1782661702685243400,2.163243408203125,-0.006555412992835044,0.022202826517727224,0.02922406692402437
1782661702695315500,2.1733154296875,0.017987492111325262,-0.0003106185854412615,0.01855867502882611
1782661702705386500,2.183386474609375,-0.0061047466158866874,-0.009860866012703627,-0.008857652920065448
1782661702715457500,2.19345751953125,-0.007899228817224503,-0.03505173189789056,-0.028184060918376778
1782661702725528600,2.203528564453125,0.0033230069428682326,-0.030648455437645314,-0.02280043165127281
1782661702735600400,2.213600341796875,-0.017477789023518563,-0.00137198247294873,0.006667166271619498
1782661702745671400,2.22367138671875,-0.01179272912442684,0.01467184649100527,0.019428945924178695
1782661702755742200,2.2337421875,-0.013286767074465751,-0.0015384616136550901,-0.002667936001042835
1782661702765813200,2.243813232421875,-0.002212415352463722,-0.0009396920029073954,-0.0035875670300330965
1782661702775885300,2.25388525390625,0.004972527715563774,-0.011046806127950549,-0.014873173182806931
1782661702785956400,2.263956298828125,0.0036269583255052564,-0.016462090908642858,0.007702592000272125
1782661702796027400,2.27402734375,0.0010813654959201812,-0.021619163144566116,0.014649410896911285
1782661702806098400,2.284098388671875,-0.009698971715569495,-0.0064429473279975355,0.00861997170667164
1782661702816170500,2.29417041015625,-0.00192015440762043,-0.005920768351107835,0.023354868929949587
1782661702826241500,2.304241455078125,0.004366963037848472,-0.02167231810390949,0.011818132993741891
1782661702836312600,2.3143125,-0.015531915652751922,-0.032126090242154896,0.014080538667505606
1782661702846383400,2.32438330078125,-0.015680968734622002,-0.013793894612696022,0.007383306051185354
1782661702856455400,2.334455322265625,0.01618774921298027,-0.012009130087774246,0.015101419847575015
1782661702866526500,2.3445263671875,0.004365209472179413,-0.007771803045272827,0.02495663243762683
1782661702876597500,2.354597412109375,0.02127367417514324,-0.0036847346610389647,0.013502478484646417
1782661702886668500,2.36466845703125,0.013641571861505507,-0.009044818655773997,0.00017917879207525402
1782661702896740400,2.374740234375,-0.013743278670310973,0.003174721045978367,0.0012105128675000741
1782661702906811400,2.384811279296875,-0.009858546191453934,-0.002371277442295104,0.016074155603558755
1782661702916882400,2.39488232421875,0.011677578312158585,-0.011322499530483036,-0.0019851094026118515
1782661702926953200,2.404953125,-0.00613338818848133,0.002875427572149783,0.020552474627969785
1782661702937025300,2.415025390625,-0.00044949733316898343,-0.01036653224620968,0.017296116880257614
1782661702947096300,2.425096435546875,0.001796235767006874,-0.011593516757898032,-0.008369814604194835
1782661702957167400,2.43516748046875,0.0005973813712596892,-0.009448248357512056,0.0041281538798706606
1782661702967238400,2.44523828125,0.014508417823910713,0.01433693371452391,-0.007477103548170998
1782661702977310500,2.455310546875,-0.011674071180820464,0.010693444379325956,-0.013106638434319756
1782661702987381500,2.465381591796875,-0.014217325922846793,0.0009262845320627093,-0.014842371619166805
1782661702997452500,2.47545263671875,-0.0028442835152149197,-0.0007574855701066554,0.0018049487964250147
1782661703007523600,2.485523681640625,-0.012416998502612114,-0.008668532689288258,-0.011598183799860998
1782661703017595600,2.495595703125,-0.004039630779623985,-0.01903015129836276,-0.01600156072480604
1782661703027666400,2.50566650390625,0.006733107647299766,-0.023495971600804477,-0.03554503184016794
1782661703037737500,2.515737548828125,-0.01107610528767109,-0.02010879511423409,-0.030808943228982387
1782661703047808500,2.52580859375,0.0035918870121240615,-0.024741149356309323,-0.0031184060151688755
1782661703057880300,2.53588037109375,-0.007625088050961494,0.01857513753985986,0.002016669018077664
1782661703067951400,2.545951416015625,0.011230419066548347,0.039338871165178715,0.0688464403388556
1782661703078022400,2.5560224609375,0.00015898995399475096,-0.002915796115156263,0.02887248614053242
1782661703088093400,2.566093505859375,0.007790507745742798,-0.03804861215893179,-0.0065402154237031935
1782661703098165500,2.57616552734375,0.01646831972002983,-0.05133592722266912,-0.007408951949095353
1782661703108236300,2.586236328125,0.004346504771709442,-0.014767342754732817,0.02294843442037236
1782661703118307300,2.596307373046875,0.0019476269364356994,0.0006359963485971093,0.05688774809695314
1782661703128379400,2.60637939453125,-0.0011982698738574982,-0.006022310763131827,0.038838214466930365
1782661703138450400,2.616450439453125,0.017061024916172028,-0.020654446298256517,0.02260807828379329
1782661703148521500,2.626521484375,0.001204115092754364,-0.009735705263074487,0.015966466578538528
1782661703158592500,2.636592529296875,-0.0004424830704927444,-0.006587470365222543,-0.00047151280215475705
1782661703168664600,2.64666455078125,-0.006430325308442115,0.018680625474639237,-0.025552630135975776
1782661703178735600,2.656735595703125,-0.007180266892910003,0.018591522419080138,-0.021498263011523522
1782661703188806700,2.666806640625,-0.007478957578539848,0.013753690466471015,-0.03027142511906568
1782661703198877400,2.67687744140625,-0.0025368250012397764,0.011083923267945647,-0.014946188186667859
1782661703208949200,2.68694921875,0.0021036942809820173,-0.009458714952599256,-0.009188834802922792
1782661703219020300,2.697020263671875,-0.0011889175236225128,-0.022912162097170948,0.0066876930364174764
1782661703229091300,2.70709130859375,-0.005676292070746421,-0.027625399555731563,0.03063785641181748
1782661703239162400,2.717162353515625,-0.00552256281375885,-0.0151662058792077,0.013160935037978924
1782661703249233400,2.7272333984375,-0.006267243701219559,-0.020680914180073885,0.01312504630726762
1782661703259305500,2.737305419921875,-0.007312953361868858,-0.023766751366201787,0.032953298313915726
1782661703269376500,2.74737646484375,0.0043611178189516065,-0.014586634159274399,0.00035230686927679924
1782661703279447300,2.757447265625,0.0058592474222183225,-0.021827015475276858,0.009353135686274617
1782661703289518300,2.767518310546875,0.001668225473165512,-0.024942955538723617,0.008038340460392646
1782661703299590400,2.77759033203125,0.005709609818458557,-0.014400281274318694,-0.007847302267164923
1782661703309661400,2.787661376953125,-0.0053664954692125314,-0.001701999878603965,0.0019471976781729608
1782661703319732500,2.797732421875,-0.014348843348026274,0.004137099804729223,-0.006801743303565308
1782661703329804500,2.807804443359375,-0.008067571121454238,-0.0025980902018025516,-0.01391221006300766
1782661703339875600,2.81787548828125,-0.00881692818403244,-0.009689984691515564,-0.019470232349215074
1782661703349946600,2.827946533203125,-0.012561959931254385,-0.0005476787443272769,0.0021573241643607615
1782661703360017700,2.838017578125,-0.005233809000253677,0.02312321103196591,0.005701686806906946
1782661703370089500,2.84808935546875,0.0076233344852924345,-0.01652401369633153,0.008229205123684368
1782661703380160300,2.85816015625,0.0016354922473430632,-0.028865353146847336,0.017819419235154055
1782661703390231300,2.868231201171875,-0.014075287103652953,-0.03104043216360733,0.016746899199392644
1782661703400302300,2.87830224609375,-0.004200374299287796,-0.04267731313919648,0.06286621971835847
1782661703410374400,2.88837451171875,0.03156476656496525,-0.0174314656637609,0.03344066627232823
1782661703420445400,2.898445556640625,-0.014378069442510605,-0.006541201804392039,0.016085110822413116
1782661703430516500,2.9085166015625,-0.030837621334195136,-0.028683201512973752,0.009854481937689705
1782661703440587500,2.91858740234375,0.04667407289147377,-0.008015073749236762,-0.0160262567746453
1782661703450659600,2.92865966796875,-0.06510697068274021,0.0341496867579408,0.02811682263475377
1782661703460730400,2.93873046875,0.06941431248784065,0.014110194020252674,-0.03935946642863564
1782661703470801400,2.948801513671875,-0.039075872847437854,0.014048965352308004,-0.04648200721836183
1782661703480872400,2.95887255859375,0.008954875349998474,0.018211144799366592,-0.038036474196566264
1782661703490943500,2.968943603515625,0.0014729951620101928,-0.002378730096388608,-0.02550802380926907
1782661703501015600,2.979015625,0.017787585625052452,-0.0019417269186116754,-0.0011276340567506849
1782661703511086300,2.98908642578125,-0.013935001850128173,-0.01288704543346539,0.018068060233979485
1782661703521157400,2.999157470703125,0.011957564297318458,-0.015170808989088982,0.011415401978325098
1782661703531228400,3.009228515625,0.020037410378456116,-0.032343495852500195,0.009899033465469255
1782661703541300500,3.019300537109375,-0.002406476619839668,-0.00980992127675563,0.009437238339730538
1782661703551371300,3.029371337890625,-0.02006196029782295,0.005126348304096609,0.013716851887688971
1782661703561442300,3.0394423828125,-0.004798340192437172,-0.017607443285174666,-0.020192792736412956
1782661703571513300,3.049513427734375,-0.013481412863731383,-0.009211754454206675,0.002245714833866805
1782661703581585400,3.05958544921875,0.011506897920370102,-0.01559913567006588,-0.004221768713765777
1782661703591656400,3.069656494140625,-0.01348375095129013,-0.020161621280014513,0.02781418642636854
1782661703601727500,3.0797275390625,-0.006747136172652244,-0.01844369317991659,0.02969289457874838
1782661703611798500,3.089798583984375,0.0026800328642129895,-0.008283077035658061,0.03660133139349055
1782661703621870600,3.09987060546875,0.0008843816190958022,-0.01636160794254392,0.02296610707438085
1782661703631941600,3.109941650390625,-0.0031558336824178694,-0.026256175295449793,0.015830688536772504
1782661703642012400,3.120012451171875,0.00970832406580448,0.004272946345154196,-0.0018748402614379301
1782661703652083500,3.13008349609375,0.00012450316250324248,-0.009390508554596453,-0.007034921871777624
1782661703662155300,3.1401552734375,-0.005415010786056518,-0.006181227651890367,-0.019618952070944943
1782661703672226300,3.150226318359375,-0.013949030375480651,0.013755937222484499,-0.027694564934959632
1782661703682297300,3.16029736328125,-0.016796236500144005,0.007935487440694123,-0.0192267059169244
1782661703692368400,3.170368408203125,-0.010958616387844086,0.016884353175014258,-0.013021581366215831
1782661703702440400,3.1804404296875,0.003108487409353256,0.004971870128437876,-0.00673784318792168
1782661703712511500,3.190511474609375,-0.001235094752907753,-0.003892934051621705,-0.006909994017588905
1782661703722582500,3.20058251953125,-0.006471241840720177,-0.02203079441906884,0.012068824385758488
1782661703732653300,3.2106533203125,0.013578443497419357,-0.02527763085318729,0.0037708420419134197
1782661703742725400,3.220725341796875,-0.00587502951323986,-0.022079346268530933,0.015938341029174626
1782661703752796400,3.23079638671875,-0.013809914165735244,-0.014007866156939417,0.029768855024944058
1782661703762867500,3.240867431640625,-0.011862287229299544,-0.019794176207110284,0.015982362833991647
1782661703772938500,3.2509384765625,0.005645896932482719,-0.009364479064196348,0.014481543516716919
1782661703783010600,3.261010498046875,-0.0051291795819997784,0.0030520445143803953,0.012354664722969755
1782661703793081600,3.27108154296875,-0.0049812955439090725,-0.009210183551628143,-0.0010012585975695402
1782661703803152600,3.281152587890625,0.003540449085831642,-0.001612732426263392,-0.0008987298048567027
1782661703813223400,3.291223388671875,-0.0139729957729578,0.0023546185684390365,-0.000199650757946074
1782661703823295200,3.301295166015625,-0.010984919872879981,-0.00929508535610512,0.003115081546921283
1782661703833366300,3.3113662109375,-0.012783493727445602,-0.006008337036706507,0.0028564397438894957
1782661703843437300,3.321437255859375,-0.003064648267626762,0.0020936843436211348,0.0014995589419500902
1782661703853508400,3.33150830078125,-0.01249473991394043,-0.005994838234316557,0.01290791925813537
1782661703863580400,3.341580322265625,-0.01638473308980465,-0.012552041325438766,-0.0026371938029071313
1782661703873651500,3.3516513671875,-0.004863806644082069,-0.00831082355910912,-0.006433211385272443
1782661703883722500,3.361722412109375,-0.0018728081345558165,0.00013749050823971628,0.013762257365416735
1782661703893793500,3.37179345703125,0.0053068742364645,0.0005841382971964776,0.018597682731808163
1782661703903865600,3.381865478515625,-0.002625087806582451,0.0013619542692787944,0.009930688979057594
1782661703913936400,3.391936279296875,-0.0011363105535507202,-0.003746931443363428,-0.009315319859958253
1782661703924007400,3.40200732421875,0.0032031799554824826,-0.0029794542022049423,-0.016124730446748434
1782661703934078500,3.412078369140625,-0.007872340810298918,0.013447784588765352,0.0033320944316219537
1782661703944149500,3.4221494140625,0.00184825821518898,0.008905684179719537,0.009266087590483947
1782661703954221600,3.4322216796875,0.00797813927233219,-0.007683668104093521,-0.006552412751573138
1782661703964292600,3.442292724609375,0.009327800315618515,-0.012961919034272431,0.008507127015921287
1782661703974363600,3.45236376953125,0.00992751977443695,-0.007879592534992843,-0.014549772747606039
1782661703984434400,3.462434326171875,0.00573474425971508,-0.012559950637258588,0.009427538929623551
1782661703994506200,3.47250634765625,0.006781622964143753,-0.011535667357128113,-0.0006481525772716849
1782661704004577300,3.482577392578125,-0.005489829587936401,-0.005110146087966859,0.03280052347157616
1782661704014648300,3.4926484375,0.01501344473659992,-0.015297047450952232,0.03164112430338282
1782661704024719400,3.50271923828125,-0.00817512314915657,-0.012669694622047244,0.0016824046955676748
1782661704034791400,3.51279150390625,-0.005481646281480789,-0.012824373727105556,0.009437850261083803
1782661704044862500,3.522862548828125,0.0036421558946371077,-0.011647037043422459,0.01794729253167752
1782661704054933500,3.53293359375,-0.008034253373742103,0.008987772972602396,0.02551613405048847
1782661704065004300,3.54300439453125,0.003488426637649536,-0.01656714045200497,0.005572224341495894
1782661704075076600,3.55307666015625,-0.009983633875846862,-0.003939202612452209,0.0029121063207276166
1782661704085147400,3.5631474609375,-0.007291910573840141,0.005590093358326703,-0.00959736537146382
1782661704095218400,3.573218505859375,0.00782265644967556,0.018017156597226858,0.0056352431077277285
1782661704105289500,3.58328955078125,0.005877952122688293,0.014679317411407827,0.015372309210826642
1782661704115361500,3.593361572265625,0.002434533670544624,0.0074252180973067875,-0.002138961957185529
1782661704125432600,3.6034326171875,0.00543020835518837,-0.013607614792976527,-0.010324821129487826
1782661704135503600,3.613503662109375,-0.0030880291432142256,-0.007797741204127669,-0.0030259556584758683
1782661704145574700,3.62357470703125,0.01067863040268421,-0.019491887058597057,-0.004178911386150867
1782661704155646500,3.633646484375,0.0033434652090072628,-0.005804740756005049,-0.016404067977936938
1782661704165717200,3.64371728515625,-0.009819383224844932,0.008482070206478237,-0.010179256912646815
1782661704175788300,3.653788330078125,-0.003523497951030731,-0.004531122357305139,0.006986977377091534
1782661704185859300,3.663859375,0.008003858235478402,-0.0035638116951100525,0.008889459130703471
1782661704195930400,3.673930419921875,0.0024748656809329985,-0.008374518178775906,0.00046861302559264003
1782661704206002400,3.68400244140625,-0.0015647650986909865,-0.0012186185421422123,0.006653315842780284
1782661704216073500,3.694073486328125,-0.025208675536513327,-0.0008490545773878693,0.01669932003088761
1782661704226144500,3.70414453125,-0.003367430606484413,-0.009314356312155722,0.006258279510051943
1782661704236215300,3.71421533203125,0.00815291131734848,-0.0015001571635715662,0.010158296323008834
1782661704246287600,3.72428759765625,-0.0062087915122509,0.005800155912432819,0.024713982788170687
1782661704256358400,3.7343583984375,0.0023187983363866806,-0.011943225244712084,0.015591751514631323
1782661704266429400,3.744429443359375,-0.0008259294301271438,-0.011998718291614204,0.007730265458486974
1782661704276500500,3.75450048828125,0.008149988707900046,0.002279215244669467,0.0035255574773764235
1782661704286572500,3.764572509765625,-0.009057751202583312,-0.010775076514482498,0.021859415340959094
1782661704296643600,3.7746435546875,-0.005017535901069641,-0.010477134747523814,-0.00810492115688976
1782661704306714600,3.784714599609375,0.007250409519672393,-0.004812478315643966,-0.006563459301972762
1782661704316785700,3.79478564453125,-0.004120294800400734,0.005624543617200106,0.017571202928014097
1782661704326857500,3.804857421875,-0.0036684593796730038,0.011055610488913953,-0.010040592794050462
1782661704336928300,3.81492822265625,0.005609656575322151,0.003749159933067858,-0.011106162499217316
1782661704346999300,3.824999267578125,0.007103110003471374,0.0070329308440908785,0.006932151050469838
1782661704357070300,3.8350703125,0.0011146832436323166,-0.02132397959027439,0.005959853685903363
1782661704367142400,3.845142333984375,0.0018622867405414581,-0.008521013977378606,-0.012789544442319311
1782661704377213400,3.85521337890625,0.013830372431874275,-0.00440650959694758,0.0016636269298614932
1782661704387284500,3.865284423828125,-0.015350129345059393,-0.014253456682153045,0.01893507972632069
1782661704397355500,3.87535546875,-0.0014314941078424452,-0.017765446858480572,0.01484835840195883
1782661704407426300,3.88542626953125,0.013681903871893882,-0.02239323452329263,0.011055185797228478
1782661704417498400,3.895498291015625,0.0008159925580024719,-0.003347447264380753,0.00046103250733576715
1782661704427569400,3.9055693359375,0.005609072053432464,-0.006510276943165808,0.005842593114939518
1782661704437640400,3.915640380859375,0.013086276066303252,0.0036684776459820568,0.007371181788551621
1782661704447711500,3.92571142578125,-0.0012806874603033065,0.0025456841611303386,0.012255611095554194
1782661704457783600,3.935783447265625,-0.00951017114520073,-0.0027140447316691277,-0.001131054423120804
1782661704467854600,3.9458544921875,0.006499298891425132,0.004699702123552561,-0.011534575945162214
1782661704477925600,3.955925537109375,-0.005779752445220947,0.012547858340665697,-0.00955206492501311
1782661704487996700,3.96599658203125,-0.016560089656710623,0.002032437409367412,0.007872158147208392
1782661704498068500,3.976068359375,-0.0026461305946111676,0.007511014950927346,0.0001765073443762958
1782661704508139300,3.98613916015625,-0.006986205625534057,-0.011131233008392154,-0.015345937227131798
1782661704518210300,3.996210205078125,0.005882628297805786,-0.015761103032436222,-0.00009234075883869082
1782661704528281300,4.00628125,-0.010426701468229294,-0.003517597933206707,0.0019209261591779066
1782661704538353400,4.016353515625,-0.002647299638390541,-0.01003202132852748,0.004431397443031892
1782661704548424400,4.026424560546875,0.0046855274677276605,-0.011568163120932876,0.011070319434278645
1782661704558495500,4.03649560546875,0.0001958148330450058,-0.0051186216553673145,-0.004134770850325003
1782661704568566500,4.04656640625,-0.008633972832560538,0.004365063341706991,0.007212639359128661
1782661704578637600,4.056637451171875,0.004087561574578285,0.0024951412839815017,-0.01365822160220705
1782661704588709600,4.066709716796875,-0.000855155524611473,-0.00005635156342759728,0.012939871599245817
1782661704598780700,4.07678076171875,-0.006846504893898963,-0.0028419636939652263,0.008462899715127424
1782661704608851500,4.0868515625,0.007221767947077751,0.001327650140877813,0.009888196977623737
1782661704618922500,4.096922607421875,0.02323006893992424,-0.007680946424044668,-0.0010996272383956237
1782661704628994600,4.10699462890625,-0.011188918012380599,-0.00866665125945583,0.014558997233677654
1782661704639065600,4.117065673828125,-0.018373861080408095,-0.02191387177482247,0.014795979760750196
1782661704649136600,4.12713671875,-0.016127543458342553,-0.012659355891123414,0.012731777239940128
1782661704659207700,4.137207763671875,-0.005801379755139351,-0.009595200813841074,0.008897656136890872
1782661704669279500,4.147279541015625,0.004221417087316512,-0.017264036674983798,0.0006770864108111709
1782661704679350500,4.1573505859375,-0.009693711018562316,0.0025841712743043897,-0.009033516377047635
1782661704689421600,4.167421630859375,-0.018820435804128646,0.003903181451000273,0.007819322848273441
1782661704699492400,4.177492431640625,-0.006552490383386612,0.012387936804909258,0.016335866146511398
1782661704709563400,4.1875634765625,0.003022562691569328,0.0006523812278173863,-0.00242544161521364
1782661704719635500,4.197635498046875,0.011095394510030747,-0.005373272269871086,0.012725845256075263
1782661704729706500,4.20770654296875,0.0016670564293861387,-0.011438289663568139,0.006821804277482442
1782661704739777500,4.217777587890625,0.0022650223225355146,-0.0004861212828196585,0.016493673356994986
1782661704749848600,4.2278486328125,0.00046411038041114806,0.013182429917156695,-0.007781360891484655
1782661704759920600,4.237920654296875,-0.008365677285194396,0.008879746020864695,-0.004395399114466272
1782661704769991700,4.24799169921875,-0.015552373918890952,-0.007453713539429008,0.014063254172564483
1782661704780062500,4.2580625,0.00405249026119709,-0.027113705440238115,0.012887844584486446
1782661704790133500,4.268133544921875,0.023205519020557404,-0.021074681004323064,0.004437868283013813
1782661704800205600,4.27820556640625,0.0142214175760746,-0.0042438481148332355,0.03567647620011121
1782661704810276600,4.288276611328125,0.010329086312651633,-0.01583528251349926,0.027098886897019107
1782661704820347600,4.29834765625,0.007786416092514991,0.007658350999746471,0.00945592934046872
1782661704830418700,4.308418701171875,-0.022584172251820564,-0.0006257854818366468,0.008954327360726893
1782661704840490500,4.318490478515625,0.0025531916141510007,-0.0046278607300482685,-0.01177712969649583
1782661704850561500,4.3285615234375,-0.007626257094740867,-0.009230459154676645,0.009783106335066257
1782661704860632600,4.338632568359375,0.0007464344531297683,0.003929119609855115,0.005050118429842405
1782661704870703400,4.348703369140625,0.007474281403422356,0.02180732439411804,-0.007853531078551896
1782661704880774400,4.3587744140625,-0.005838204634189605,0.009864373144041746,-0.019334194012545047
1782661704890846500,4.368846435546875,-0.009136661657691001,0.01223186946036294,-0.013781939313421025
1782661704900917500,4.37891748046875,0.0019417817175388335,-0.005604889068659395,-0.002319775583921
1782661704910988500,4.388988525390625,-0.002402384966611862,0.00010406316267326473,0.000793762459885329
1782661704921059600,4.3990595703125,0.007321721190214157,0.004504289149306714,0.019467816629842854
1782661704931131600,4.409131591796875,-0.007495324191451072,0.0013473594883456825,0.014899919625837355
1782661704941202700,4.41920263671875,0.005673953983187675,-0.02087079246267676,0.0016382641597418113
1782661704951273500,4.4292734375,-0.019903554865717887,-0.017202881072275338,0.012526810986059718
1782661704961344500,4.439344482421875,-0.013166355565190314,-0.0064343073638156055,0.02262558654102031
1782661704971416600,4.44941650390625,0.0022474866658449173,0.007712601937633007,0.022325617213756775
1782661704981487600,4.459487548828125,0.001796235767006874,0.005987714373786002,0.019044147857674398
1782661704991558700,4.46955859375,-0.024241876330971718,-0.004155165184382349,0.00042307511712424457
1782661705001629700,4.479629638671875,-0.004190437427163123,-0.007614219597075134,-0.019016451566573233
1782661705011700700,4.48970068359375,0.000751110628247261,0.002735014454461634,-0.027835868535214102
1782661705021772500,4.4997724609375,-0.010922960552573203,0.021230894479341803,-0.013067087308643385
1782661705031843600,4.509843505859375,-0.012124153035879135,0.02438197892140597,0.02731446587645914
1782661705041914400,4.519914306640625,-0.015413257709145546,-0.008323080252483487,-0.026933005977934226
1782661705051985400,4.5299853515625,0.006139233407378196,-0.026291794598102568,0.0013068859140621498
1782661705062057500,4.540057373046875,-0.0029909985095262527,-0.03710782417748123,0.012020523698045871
1782661705072128500,4.55012841796875,-0.005536591339111328,-0.02623664861107245,0.04480797762549482
1782661705082199600,4.560199462890625,-0.0058364510685205455,-0.011996087943110615,0.03988859116954263
1782661705092270600,4.5702705078125,-0.004191021949052811,-0.005860836591105908,-0.00045389951365068553
1782661705102342700,4.5803427734375,-0.011671733093261718,-0.009213489753566681,0.0045431415886618195
1782661705112413700,4.59041357421875,-0.01661035853922367,0.004728855152800679,-0.02827561165934894
1782661705122484500,4.600484375,-0.007633271357417106,0.04710683828555047,-0.0066378945113625375
1782661705132555500,4.610555419921875,-0.008085106778144837,0.03660650532552972,-0.008535275398171506
1782661705142626600,4.62062646484375,0.0019359364986419676,0.022253186731785536,-0.024742012439412063
1782661705152698600,4.63069873046875,-0.0028501287341117856,0.009969294823240488,-0.025020500587229617
1782661705162769700,4.640769775390625,-0.004792494973540306,0.0017987382513470946,-0.008479677319992333
1782661705172840700,4.6508408203125,0.016907295659184456,0.002770396295096725,0.006998498851526528
1782661705182911700,4.660911865234375,0.002391279050707817,0.0018005648822523653,0.029172026209533214
1782661705192983600,4.670983642578125,0.014811200162768363,-0.022274704443849623,0.023253312818193806
1782661705203054600,4.6810546875,0.011971592822670936,-0.01833953868569806,0.030035620768927036
1782661705213125400,4.69112548828125,-0.005528992554545403,-0.02172888886304572,0.012935131492046639
1782661705223196400,4.701196533203125,-0.009418401208519936,-0.024354341995809225,0.0019933429414173585
1782661705233267500,4.711267333984375,-0.004779050970077514,-0.014481274088658392,0.018412859650235622
1782661705243339500,4.721339599609375,-0.007025368592143058,0.0036748343215323984,0.024769699597358703
1782661705253410600,4.73141064453125,-0.003881809869408607,-0.01374506876859814,0.02243039732906036
1782661705263481600,4.741481689453125,0.005845218896865845,0.0001457834125496447,0.00017385872956365346
1782661705273552600,4.751552734375,0.010032733714580536,0.00783359796879813,0.00635888120715972
1782661705283624700,4.761624755859375,-0.004783727145195007,0.0034327143950387833,0.0014242058505304156
1782661705293695500,4.771695556640625,0.013020809614658355,0.01985315811904147,-0.005369313047383912
1782661705303766500,4.7817666015625,-0.010177695143222809,0.017780206036195158,-0.015673771808855236
1782661705313837600,4.791837646484375,0.005834697502851486,0.010713007596321404,-0.02631188297148328
1782661705323909600,4.80190966796875,-0.0019435352832078933,0.014222056896891443,-0.029170606004004365
1782661705333980700,4.811980712890625,-0.016759411621093748,0.01267491878643632,-0.005629986977297812
1782661705344051700,4.8220517578125,-0.013162848433852195,0.002145323199313134,-0.0013824901672312988
1782661705354122800,4.832122802734375,-0.003735679396986961,0.00017663520853966472,0.012447704168129712
1782661705364193500,4.842193603515625,-0.00628068770468235,-0.00979424878358841,0.0189828232916072
1782661705374265300,4.852265380859375,-0.012108370944857597,-0.020157036436442285,0.012937999302567914
1782661705384336400,4.86233642578125,-0.006267828223109245,-0.025753523002937435,-0.00010079805993009358
1782661705394407400,4.872407470703125,0.0018137714236974715,-0.013227164108026771,0.008905058558634481
1782661705404478500,4.882478515625,-0.006261983004212379,-0.023291790798213332,0.01671990616119001
1782661705414550500,4.892550537109375,-0.012692308312654494,-0.010709975389018654,-0.0013853945103706792
1782661705424621600,4.90262158203125,0.006163783326745033,-0.010923289346136152,-0.0005641138558974489
1782661705434692600,4.912692626953125,0.0027256255716085432,0.004402655405737459,0.00021053291156422345
1782661705444763600,4.922763671875,0.007963526225090027,0.0046980946883559225,0.0014674467706354334
1782661705454834400,4.93283447265625,0.00017535656690597534,0.016483334626071156,0.015937436846876516
1782661705464906500,4.942906494140625,-0.008212532550096512,-0.003096449911687523,0.002303952393704094
1782661705474977500,4.9529775390625,-0.006718494600057602,0.007351751002296805,-0.004737394652282819
1782661705485048600,4.963048583984375,-0.003729834178090095,0.0037303821673616766,-0.005344146640086546
1782661705495119600,4.97311962890625,-0.0005874444991350174,-0.007944328334275632,-0.002517549478611909
1782661705505191700,4.983191650390625,-0.005077157133817673,0.0033370537345297634,0.003394588041468523
1782661705515262700,4.9932626953125,-0.0025309797823429105,0.015333981927856802,-0.016109793172520585
1782661705525333800,5.003333740234375,-0.011959902384877204,0.007641089337691664,0.0016550097985658793
1782661705535404500,5.013404541015625,-0.008218377768993377,0.001965052995271981,0.0044741086401743815
1782661705545475600,5.0234755859375,-0.00687456194460392,0.019299323628563434,0.011456574238929897
1782661705555547400,5.03354736328125,-0.004629997888207435,0.005958963203337043,0.008254147768695838
1782661705565618400,5.043618408203125,-0.015399229183793066,-0.000038340982701629396,-0.013012914002570323
1782661705575689500,5.053689453125,-0.0001391162097454071,-0.01164205034105107,0.0020583984011085703
1782661705585760000,5.063760009765625,-0.0035784430086612698,-0.00796071321349591,0.0014003728837938979
1782661705595831000,5.0738310546875,0.0025578677892684936,-0.012083601829782128,0.0018072640510974451
1782661705605902800,5.08390283203125,-0.0038771336942911147,0.004414638104476034,0.01819343104616273
1782661705615974000,5.093973876953125,-0.010464695391058921,0.003176419812720269,-0.0050554887247039005
1782661705626045000,5.104044921875,0.005694996771216392,-0.0015656601478345692,0.029505386349745092
1782661705636116000,5.114115966796875,-0.0002922609448432922,-0.014792367598135023,0.00729708450587932
1782661705646188000,5.12418798828125,-0.0035842882275581357,-0.01494896466564387,-0.002392343063210137
1782661705656258800,5.1342587890625,0.004793664017319679,-0.004560092723462731,-0.01605418139460962
1782661705666329900,5.144329833984375,-0.006582300999760628,0.008445300126355141,-0.0030130779105937105
1782661705676401000,5.15440087890625,-0.026036358532309532,0.002215356228221208,-0.007142172505380585
1782661705686472000,5.164471923828125,-0.012267360898852348,-0.002306267648376524,-0.0029788285811198872
1782661705696544000,5.1745439453125,-0.008377952244877815,0.0170453158903867,-0.0048420286371139805
1782661705706615000,5.184614990234375,-0.0029898294657468793,0.00419851113576442,-0.004299637989257462
1782661705716686000,5.19468603515625,-0.012422843721508979,0.008168474212661385,-0.020246331288246436
1782661705726756900,5.2047568359375,-0.0112280809789896,0.010055201274715363,-0.008561017194204032
1782661705736829000,5.214828857421875,-0.013773673808574676,0.014418328387662768,0.0063570043439045544
1782661705746900000,5.22489990234375,-0.002696399477124214,0.004693911703582853,0.013102053590747526
1782661705756971000,5.234970947265625,0.006584639087319374,0.004706478924211114,-0.0023158483274746686
1782661705767042000,5.2450419921875,0.012867080357670783,-0.00865888807810843,0.01741887104366906
1782661705777113000,5.255113037109375,-0.00433656789958477,-0.004185158463846892,0.01244814712612424
1782661705787185000,5.265184814453125,-0.008975333616137504,-0.005720149478781968,0.01576358725046739
1782661705797256000,5.275255859375,0.013324176475405692,-0.014126250105910003,0.01606100386104081
1782661705807327000,5.285326904296875,-0.00912146408855915,0.005922412318922579,-0.007893118736846371
1782661705817397800,5.295397705078125,-0.0125613754093647,-0.004169942628405988,-0.0012614165042527019
1782661705827469800,5.3054697265625,-0.0005909516304731368,-0.0178959413703531,0.004781384491058998
1782661705837539800,5.315539794921875,0.02394844634234905,0.0005480806031264364,-0.000761047500371933
1782661705847611000,5.32561083984375,-0.005830021327733993,0.006912537601124495,0.013567159485002048
1782661705857682000,5.335681884765625,-0.008072247296571732,0.0063856824491173025,-0.0032284650937886906
1782661705867754000,5.34575390625,0.005545943689346313,-0.009364205069560557,-0.003078238401561975
1782661705877825000,5.355824951171875,-0.008822773402929305,-0.0030873167571611702,-0.0007444297257112338
1782661705887895800,5.365895751953125,-0.0004418985486030578,0.0017783895830623805,-0.01099138614628464
1782661705897966800,5.375966796875,0.004049567651748657,0.005717811391223222,-0.009878333170735276
1782661705908038000,5.386037841796875,-0.01630874524414539,0.0025245865741744637,0.002259309534379281
1782661705918110000,5.39610986328125,0.0070364745080471035,0.005301430876366794,-0.01450851372203324
1782661705928181000,5.406180908203125,-0.008071078252792357,-0.0015002119624987244,-0.010632389241317286
1782661705938252000,5.416251953125,-0.013004443001747131,-0.003331793037522584,-0.01267829805361107
1782661705948323000,5.426322998046875,0.0025578677892684936,-0.006625774815306067,0.013472329941554926
1782661705958393900,5.436393798828125,0.0019575638085603713,0.007972896841634065,0.011624437052547
1782661705968466000,5.4464658203125,-0.0191448454529047,-0.008072155965026468,0.020111466561933047
1782661705978537000,5.456536865234375,-0.0011889175236225128,-0.003414375020749867,0.0010768582841614261
1782661705988608000,5.46660791015625,-0.005827683240175247,0.004656758030969649,-0.004432835914869792
1782661705998679000,5.476678955078125,-0.007770049479603767,-0.003256864637788385,0.0088486430631252
1782661706008750800,5.486750732421875,0.0009065934509038925,-0.006074698537494987,0.025080231417831965
1782661706018822000,5.49682177734375,0.006741875475645065,-0.009495430233795196,-0.00365266815549694
1782661706028893000,5.506892822265625,-0.011512158617377281,-0.020141327410656957,-0.005873134383675642
1782661706038964000,5.5169638671875,0.00016249708533287046,0.004933163819555193,0.008183626116020604
1782661706049034800,5.52703466796875,0.001807341682910919,0.01096904645031318,0.023529134084889665
1782661706059106800,5.53710693359375,0.007494155147671699,0.012475816017761826,0.0029348889746936037
1782661706069177900,5.547177734375,0.0062982233613729476,0.022880561382509768,-0.01930993178754579
1782661706079249000,5.557248779296875,0.013482581907510756,-0.005452000061888247,-0.015317112991446629
1782661706089320000,5.56731982421875,0.001963409027457237,0.004326265701279044,-0.03824568736730143
1782661706099391000,5.577390869140625,-0.0038707039535045623,0.0038157588958740232,-0.014301236780057661
1782661706109463000,5.587463134765625,-0.015988427248597146,0.0023698344038799403,-0.015986107427347452
1782661706119534000,5.5975341796875,-0.01284545304775238,-0.003627652445249259,0.014473693570401519
1782661706129604900,5.60760498046875,-0.004463993671536446,-0.0068136620702221986,0.0034598170310957354
1782661706139676000,5.617676025390625,0.01677986988723278,-0.0020147190895862875,0.008605719419033266
1782661706149748000,5.627748046875,-0.0001309329032897949,-0.010470412745792418,0.02612849836174864
1782661706159819000,5.637819091796875,0.0016635492980480193,-0.005513119131978601,0.009319539377349428
1782661706169890000,5.64789013671875,-0.017191957819461822,-0.011195968807674943,0.015735347536671905
1782661706179961000,5.657961181640625,-0.0017757775008678436,-0.0215056197674945,0.012761268195905721
1782661706190032100,5.6680322265625,0.0009153612792491912,-0.017241587381158024,0.02147593701528385
1782661706200104000,5.67810400390625,-0.0011795651733875275,-0.0064319144773297005,0.0035501119633205235
1782661706210175000,5.688175048828125,-0.006865209594368934,-0.0015310089595615864,0.012839781358791514
1782661706220248000,5.698248046875,-0.004619476494193077,0.012036712214443832,0.018996157697215674
1782661706230319000,5.708319091796875,-0.01254910044968128,-0.009223444892000407,0.005917411916819401
1782661706240390000,5.718389892578125,0.0007674772411584853,-0.014886073763575404,-0.011542352826241404
1782661706250461000,5.7284609375,-0.0013309563428163527,-0.019681418281327932,0.011915885146637446
1782661706260532700,5.73853271484375,-0.0010375263541936874,0.00851476689968258,0.024379818930360488
1782661706270603800,5.748603759765625,-0.007325228321552277,-0.006650178604200482,0.011640561636863276
1782661706280674800,5.7586748046875,-0.013311901515722273,-0.00047165436604991554,-0.0053586911886697635
1782661706290745900,5.768745849609375,-0.0031336218506097793,0.007061791612394154,0.005060420628148131
1782661706300818000,5.77881787109375,0.007196048983931541,0.015457462177053093,0.006642867514002136
1782661706310889000,5.788888916015625,-0.030514380729198452,0.017905019725952296,-0.0010347727081039919
1782661706320959700,5.798959716796875,0.002551438048481941,0.003668587243836373,-0.0034739414545707403
1782661706331030800,5.80903076171875,0.0070364745080471035,-0.0006657156334258616,0.0018590992696117608
1782661706341101800,5.819101806640625,0.0035948096215724945,0.009066866090800613,0.007227371137379668
1782661706351174000,5.829173828125,-0.007182020458579063,0.0010969101249240338,0.0061820953015703705
1782661706361245000,5.839244873046875,0.008382043898105622,-0.00734462714176625,-0.008932626985572277
1782661706371316000,5.84931591796875,-0.004184592208266258,-0.00852576321773231,0.015492643088288604
1782661706381387000,5.859386962890625,-0.016002455773949622,-0.0005402626228518784,0.01400765609438531
1782661706391458000,5.8694580078125,0.0031558336824178694,0.009069715635012835,0.0003676871014991775
1782661706401530000,5.879530029296875,-0.008061725902557373,0.00529087294973433,-0.0023585321251535785
1782661706411601000,5.889600830078125,0.020514380240440368,-0.005648746476694941,-0.009442234175256452
1782661706421672000,5.899671875,-0.0415834717541933,0.017571842248830943,0.03976210154592991
1782661706431743000,5.909742919921875,0.013481412863731383,-0.021660317138861865,-0.01870551332072355
1782661706441814000,5.91981396484375,0.019164719197154043,-0.014343016395438462,0.015916489956970325
1782661706451885800,5.9298857421875,0.010330255356431006,0.00291617970764637,-0.015155748417275025
1782661706461956900,5.939956787109375,-0.013021978658437728,0.010628233656007796,0.01113233355351258
1782661706472028000,5.95002783203125,0.001938274586200714,-0.007563749785162508,0.018871439905581062
1782661706482099000,5.960098876953125,0.005529577076435089,0.01070630386089906,0.021965843990654682
