time,seconds_elapsed,z,y,x
1782661700590418400,0.06841845703125,0.0023301024921238422,0.003136090934276581,-0.00000961043406277895
1782661700600489500,0.078489501953125,-0.00033359136432409286,0.0014449837617576122,-0.000046095752622932196
1782661700610561300,0.088561279296875,0.0013162631075829268,-0.000339492573402822,-0.0034628557041287422
1782661700620632300,0.09863232421875,-0.001014801673591137,0.0000735636567696929,-0.000784248230047524
1782661700630703400,0.108703369140625,-0.001465864246711135,-0.0015271243173629045,-0.0015576963778585196
1782661700640774400,0.1187744140625,-0.00001044676173478365,-0.0012986252550035715,-0.000696430099196732
1782661700650846500,0.128846435546875,0.004111104644834995,-0.0026001720689237118,-0.0009344880236312747
1782661700660917500,0.13891748046875,-0.0004415691364556551,0.0011815167963504791,-0.001366719021461904
1782661700670988300,0.14898828125,0.002460544928908348,0.0020497646182775497,-0.0015783386770635843
1782661700681060400,0.159060302734375,0.0023750574328005314,0.0016383063048124313,0.0008539262926205993
1782661700691131400,0.16913134765625,0.000794326129835099,0.0031153690069913864,-0.00207239156588912
1782661700701202400,0.179202392578125,-0.0005793323507532477,0.00048603012692183256,0.0005268538370728493
1782661700711273500,0.1892734375,0.00037986953975632787,0.0013333973474800587,-0.00044317307765595615
1782661700721345500,0.199345458984375,0.000897854333743453,0.0020910666789859533,-0.0016599713126197457
1782661700731416600,0.20941650390625,-0.0005664837080985308,-0.0009767047595232725,-0.002110400702804327
1782661700741487600,0.219487548828125,-0.0005233405390754342,-0.0009966783691197634,0.0003234623000025749
1782661700751559400,0.229559326171875,0.00296975951641798,-0.0037619590293616056,0.0007811764953657985
1782661700761630500,0.23963037109375,-0.0016138070495799184,-0.0006801490671932697,-0.0010553393512964249
1782661700771701200,0.249701171875,0.00023645436158403754,0.00048260600306093693,0.00026770972181111574
1782661700781772300,0.259772216796875,0.0000769310281611979,0.001420038752257824,0.000043471576645970345
1782661700791844400,0.26984423828125,0.0011932422639802098,0.00013864249922335148,-0.0009254427859559655
1782661700801915400,0.279915283203125,0.00012345047434791923,0.0020356120076030493,-0.0000873460085131228
1782661700811986400,0.289986328125,-0.0014486736617982388,-0.0006678022909909487,0.0015326738357543945
1782661700822058500,0.30005859375,-0.0014867568388581276,0.0000413976376876235,-0.0002971841022372246
1782661700832129500,0.310129638671875,0.0007689573685638607,-0.00007195293437689543,0.0011824204120784998
1782661700842200600,0.32020068359375,-0.0016422686167061329,-0.0014421491650864482,-0.00044370570685714483
1782661700852271400,0.330271240234375,0.001853628666140139,-0.0008204977493733168,0.0018283313838765025
1782661700862343400,0.340343505859375,0.00045626808423548937,-0.0009920052252709866,0.0020935824140906334
1782661700872414500,0.35041455078125,0.0012639620108529925,-0.0002497251844033599,-0.00047479820204898715
1782661700882485500,0.360485595703125,0.0005017653456889093,0.0010435059666633606,-0.0015469868667423725
1782661700892557300,0.370557373046875,0.0017433441244065762,0.002287452109158039,0.000368415261618793
1782661700902628400,0.38062841796875,0.0003132265992462635,0.0013963584788143635,0.0010078402701765299
1782661700912699400,0.390699462890625,0.002100609242916107,0.00011561822611838579,-0.0007735199760645628
1782661700922770400,0.4007705078125,0.001227891305461526,-0.0019358147401362658,-0.0018995044520124793
1782661700932842500,0.410842529296875,0.0020298538729548454,0.0020607300102710724,-0.0019212757470086217
1782661700942913500,0.42091357421875,0.00008148537017405033,0.0018151865806430578,-0.00036039709812030196
1782661700952984300,0.430984375,-0.00013666332233697176,-0.00032513774931430817,0.00015050166985020041
1782661700963056400,0.441056396484375,-0.0018144547939300537,0.0004407872911542654,-0.0004979780642315745
1782661700973127400,0.45112744140625,0.00008393614552915096,0.00035808130633085966,-0.0000718084629625082
1782661700983198500,0.461198486328125,-0.0016910607228055596,-0.0006991935661062598,0.0007495103636756539
1782661700993269500,0.47126953125,-0.0013032329734414816,0.00006467604544013739,-0.00008651736425235868
1782661701003341300,0.48134130859375,0.0007351505337283015,-0.0012615782907232642,-0.0007906571263447404
1782661701013412400,0.491412353515625,-0.001013902947306633,0.001110670855268836,-0.000820643559563905
1782661701023483400,0.5014833984375,-0.0018488040659576654,-0.0008728513494133949,0.0003972200211137533
1782661701033554400,0.511554443359375,0.0007838463643565774,-0.002250123070552945,0.0013131462037563324
1782661701043626200,0.521626220703125,-0.0015826384769752622,-0.0026645108591765165,-0.0006978065939620137
1782661701053697300,0.531697265625,0.0013177534565329552,0.0008986099855974317,0.00020583905279636383
1782661701063768300,0.541768310546875,0.0015755475033074617,0.0010165879502892494,0.002610673662275076
1782661701073840400,0.55184033203125,-0.0006220636423677206,-0.001703427522443235,0.0022547461558133364
1782661701083911400,0.561911376953125,-0.0008002291433513165,-0.002489859238266945,0.0006355441873893142
1782661701093982500,0.571982421875,-0.0015062179882079363,-0.0014520296826958656,0.0018600773764774203
1782661701104053500,0.582053466796875,-0.0008409604197368026,0.0003061892930418253,0.002098696306347847
1782661701114125600,0.59212548828125,0.0010147717548534274,0.0011474499478936195,0.0010342556051909924
1782661701124196600,0.602196533203125,0.0008816136978566647,-0.0029066801071166992,0.0007783257751725614
1782661701134267400,0.612267333984375,-0.0023623311426490545,-0.002040347084403038,-0.00037456973223015666
1782661701144339200,0.622339111328125,-0.0000033030519261956215,-0.0011790806893259287,-0.0011692569823935628
1782661701154410200,0.63241015625,-0.0013097207993268967,-0.0012297153007239103,-0.0005852631293237209
1782661701164481300,0.642481201171875,-0.001373370410874486,0.00029920542147010565,-0.003024452365934849
1782661701174552300,0.65255224609375,0.0015697730705142021,-0.0005360223585739732,0.0005323742516338825
1782661701184624400,0.662624267578125,0.0006283455877564847,0.0022459158208221197,-0.0015350376488640904
1782661701194695400,0.6726953125,-0.0002720784395933151,0.0033275617752224207,-0.0007782748434692621
1782661701204766500,0.682766357421875,0.0009998471941798925,0.0023238162975758314,-0.0011931953486055136
1782661701214838500,0.692838623046875,0.0018521370366215706,0.0014072888297960162,0.001651262165978551
1782661701224909600,0.70290966796875,0.0036979741416871548,0.0018451125361025333,-0.001531481626443565
1782661701234980400,0.71298046875,0.002150677377358079,0.0010158042423427105,-0.0011317410971969366
1782661701245051400,0.723051513671875,0.003570408560335636,0.0011668053921312094,-0.0018119125161319971
1782661701255123500,0.73312353515625,-0.0006860188441351056,-0.00027877790853381157,-0.0026760988403111696
1782661701265194500,0.743194580078125,-0.00013953819870948792,-0.00014295661821961403,-0.0018273494206368923
1782661701275265500,0.753265625,-0.002048725262284279,0.0001909388229250908,0.0006237283232621849
1782661701285337300,0.76333740234375,0.0011910101165995002,-0.001302295713685453,0.001462890300899744
1782661701295408400,0.773408447265625,-0.0008182877209037542,-0.002430996624752879,0.0009457396226935089
1782661701305479400,0.7834794921875,0.0000650828005746007,0.0001203116262331605,-0.0018455195240676403
1782661701315550200,0.79355029296875,0.0019853815902024508,-0.0011403514072299004,0.0009685501572676003
1782661701325622300,0.803622314453125,-0.0005105329910293221,0.0016716804821044207,-0.003197166370227933
1782661701335693300,0.813693359375,0.0009396499954164028,0.0023080003447830677,-0.0000554287398699671
1782661701345764400,0.823764404296875,-0.0015314971096813679,0.002327707828953862,0.0009661598596721888
1782661701355836400,0.83383642578125,0.0003130299737676978,0.0004226763267070055,0.00023581355344504118
1782661701365907500,0.843907470703125,-0.00021427590399980545,0.0007992472965270281,0.0010994767071679235
1782661701375978500,0.853978515625,-0.0016181811224669218,-0.00027769338339567184,0.0020343789365142584
1782661701386049500,0.864049560546875,-0.0012450721114873886,0.00004641327541321516,-0.0020530407782644033
1782661701396121600,0.87412158203125,0.0008343239314854145,0.0006405644817277789,-0.0013270630734041333
1782661701406192600,0.884192626953125,0.00037253182381391525,0.0009947649668902159,0.0007334246183745563
1782661701416263400,0.894263427734375,0.0017159709241241217,-0.0016557183116674423,-0.0009364577708765864
1782661701426335200,0.904335205078125,-0.0019184448756277561,-0.0012794137001037598,-0.0012491128873080015
1782661701436406300,0.91440625,-0.0006705258274450898,0.0003249632427468896,0.00026817905018106103
1782661701446477300,0.924477294921875,-0.0010265904711559415,-0.0006068767979741096,-0.000002930755726993084
1782661701456548400,0.93454833984375,-0.0010890760459005833,-0.0011166568147018552,-0.0014523304998874664
1782661701466620400,0.944620361328125,0.0007429124088957906,-0.001511337119154632,0.0001343809417448938
1782661701476691500,0.95469140625,0.0016149519942700863,0.0003305816790089011,0.0008757676114328206
1782661701486762500,0.964762451171875,0.001685259398072958,0.0004703976446762681,-0.0007429016404785216
1782661701496834600,0.97483447265625,-0.00032251444645226,-0.000984362792223692,-0.0005195102421566844
1782661701506905300,0.9849052734375,0.00026844098465517163,0.00016505748499184847,0.002085061278194189
1782661701516976400,0.994976318359375,0.0011490455362945795,0.0005132637452334166,0.0005175011465325952
1782661701527047400,1.00504736328125,0.0002459676470607519,-0.00014613487292081118,-0.0003315146022941917
1782661701537119500,1.015119384765625,0.0005991450161673129,-0.0026676703710108995,-0.000978369265794754
1782661701547190500,1.0251904296875,0.0005663881311193109,0.0018455885583534837,-0.0005285613588057458
1782661701557261600,1.035261474609375,0.00020602025324478745,0.0008360388455912471,0.000508180120959878
1782661701567332600,1.04533251953125,-0.0010872107231989503,-0.0011890287278220057,-0.0005043537239544094
1782661701577404400,1.055404296875,0.000023000524379312992,-0.001335272565484047,-0.0010111350566148758
1782661701587475500,1.065475341796875,-0.0009959249291568995,-0.002143275924026966,0.00018835259834304452
1782661701597546500,1.07554638671875,0.0006348496535792947,0.0008890735916793346,0.0009443875169381499
1782661701607618600,1.08561865234375,0.0013475115410983562,-0.0023746301885694265,0.00038246047915890813
1782661701617689600,1.095689697265625,-0.00035045482218265533,0.0007863432401791215,-0.0017429095460101962
1782661701627760600,1.1057607421875,-0.000896402751095593,-0.0005060888361185789,0.00011251476826146245
1782661701637831400,1.11583154296875,0.0007401510374620557,-0.0006875009275972843,-0.0001812059199437499
1782661701647903500,1.125903564453125,0.0005486697773449123,-0.0003394258674234152,0.0010321303270757198
1782661701657974500,1.135974609375,0.00015814765356481075,-0.00014366628602147102,0.0019482491770759225
1782661701668045600,1.146045654296875,-0.001522040693089366,0.00024968257639557123,-0.0007956058252602816
1782661701678117600,1.15611767578125,0.00035658315755426884,0.0016525143291801214,0.000471420178655535
1782661701688188700,1.166188720703125,0.0004862791392952204,-0.00016189715825021267,0.0005981866852380335
1782661701698259700,1.176259765625,0.002408808097243309,-0.0005188120994716883,0.0008157569682225585
1782661701708330800,1.186330810546875,-0.0009552969131618738,0.00009185064118355513,0.0006101609906181693
1782661701718402600,1.196402587890625,0.00018636073218658566,0.00011479156091809273,0.0024946853518486023
1782661701728473600,1.2064736328125,-0.0021380463149398565,0.0011491633486002684,0.0010347405914217234
1782661701738544400,1.21654443359375,0.0013487169053405523,0.001323500880971551,-0.001152103184722364
1782661701748615400,1.226615478515625,0.00044883479131385684,-0.0007881195051595569,0.000582413631491363
1782661701758687500,1.2366875,-0.00004009157419204712,-0.0004214690998196602,-0.0004039244377054274
1782661701768758500,1.246758544921875,0.0005508638569153845,0.00031116651371121407,-0.002713151276111603
1782661701778829600,1.25682958984375,-0.0006530232494696975,0.0023885262198746204,0.0024590573739260435
1782661701788901600,1.266901611328125,-0.0014224103651940823,0.0008862370159476995,-0.0002195501292590052
1782661701798972700,1.27697265625,0.0025704088620841503,-0.0004114401526749134,0.0016369305085390806
1782661701809043700,1.287043701171875,0.0002473333152011037,-0.0020162612199783325,0.0007828547968529165
1782661701819114500,1.297114501953125,-0.002524739596992731,0.000691393855959177,-0.00037477773730643094
1782661701829186600,1.3071865234375,-0.00027516717091202736,-0.0005805317778140306,0.0009509437950327992
1782661701839257600,1.317257568359375,-0.0006310888566076756,-0.0013439797330647707,-0.000229880417464301
1782661701849328600,1.32732861328125,0.000632048468105495,0.001928246347233653,0.00030754547333344817
1782661701859399700,1.337399658203125,0.0016987326089292765,-0.0016366350464522839,-0.0007459404296241701
1782661701869471500,1.347471435546875,0.0014678365550935268,0.000157536705955863,0.0005057452945038676
1782661701879542500,1.35754248046875,0.0030005902517586946,-0.001232160720974207,0.000641711987555027
1782661701889613600,1.367613525390625,-0.0013949570711702108,-0.0017666569910943508,-0.0012576545123010874
1782661701899685600,1.377685546875,0.001083052484318614,-0.00123059400357306,-0.0006536329165101051
1782661701909756700,1.387756591796875,-0.0013462831266224384,0.000536413281224668,0.0007389340316876769
1782661701919827500,1.397827392578125,0.002248309087008238,-0.00012665055692195892,-0.000982833094894886
1782661701929898500,1.4078984375,0.0000368200708180666,0.0007873462745919824,-0.0012938902946189046
1782661701939970600,1.417970458984375,0.0002685765502974391,0.0002741878852248192,-0.0003551429254002869
1782661701950041600,1.42804150390625,-0.0015266604023054242,0.0020481194369494915,0.00047762750182300806
1782661701960112600,1.438112548828125,0.0027682194486260414,0.0018608992686495185,-0.0008739267359487712
1782661701970183700,1.44818359375,0.0007657887181267142,0.00019269506447017193,-0.0006582106580026448
1782661701980255500,1.45825537109375,0.0014627169584855437,-0.0010793108958750963,0.000025997404009103775
1782661701990326500,1.468326416015625,-0.001354108564555645,-0.0011552111245691776,-0.0019415459828451276
1782661702000397600,1.4783974609375,0.0024716458283364773,-0.0005210486706346273,-0.0002981427824124694
1782661702010469400,1.488469482421875,0.0015499257715418935,-0.0006832352373749018,-0.0028252163901925087
1782661702020540400,1.49854052734375,0.0024170298129320145,-0.0023176963441073895,-0.0021018600091338158
1782661702030611500,1.508611572265625,-0.0015564064960926771,0.0010325601324439049,0.0004257463151589036
1782661702040682500,1.5186826171875,-0.002145624253898859,0.00039630767423659563,-0.0014768843539059162
1782661702050754600,1.528754638671875,-0.000016693491488695145,0.000021600979380309582,-0.0008188171777874231
1782661702060825600,1.53882568359375,-0.0011730946134775877,0.00029878527857363224,-0.0003980894689448178
1782661702070896600,1.548896728515625,-0.0009619060438126326,-0.0006112167611718178,0.00040272308979183435
1782661702080967700,1.5589677734375,-0.00008459901437163353,-0.0026106862351298332,-0.00047853373689576983
1782661702091039700,1.569039794921875,-0.0001293401001021266,-0.0005770965944975615,0.00017207651399075985
1782661702101110500,1.579110595703125,-0.00046037102583795786,0.0001805727370083332,0.0011153682135045528
1782661702111181600,1.589181640625,-0.0010814202250912786,-0.001063389703631401,0.0007057740003801882
1782661702121253400,1.59925341796875,-0.00043949612881988287,0.002329727401956916,-0.0001978281361516565
1782661702131324400,1.609324462890625,0.002621807623654604,-0.0026935269124805927,-0.0009997058659791946
1782661702141395500,1.6193955078125,-0.0010809283703565598,-0.0006694595795124769,-0.00047776030260138214
1782661702151466500,1.629466552734375,0.0008077853126451373,-0.002071880269795656,0.0032834222074598074
1782661702161538600,1.63953857421875,0.0003237566561438143,-0.00011130725033581257,0.0013970695436000824
1782661702171609600,1.649609619140625,-0.0014909213641658425,0.0015038999263197184,-0.0005265317158773541
1782661702181680400,1.659680419921875,0.00047161709517240524,0.0011480562388896942,-0.00006610271520912647
1782661702191751400,1.66975146484375,-0.001444793539121747,0.0013611090835183859,-0.00022882185294292867
1782661702201823500,1.679823486328125,0.0014183905441313982,-0.0005592647939920425,-0.0006201720098033547
1782661702211894500,1.68989453125,-0.0015973730478435755,-0.0005648573860526085,-0.0018644009251147509
1782661702221965600,1.699965576171875,0.0005273304996080697,0.00036526285111904144,-0.0010929175186902285
1782661702232036600,1.71003662109375,-0.0008596437983214855,0.0007112075109034777,-0.0010268711484968662
1782661702242108700,1.720108642578125,0.0007374733686447144,-0.00017984514124691486,0.0006999016040936112
1782661702252179700,1.7301796875,-0.00022605829872190952,0.0002430648310109973,0.00041361182229593396
1782661702262250800,1.740250732421875,-0.0013503822265192866,-0.00044320314191281796,0.0005701899062842131
1782661702272322600,1.750322509765625,0.00008080038242042065,0.0010388459777459502,-0.0007161169196479023
1782661702282393300,1.760393310546875,0.0007940733921714127,-0.0010443623177707195,-0.0008755933959037066
1782661702292464400,1.77046435546875,0.0006414742674678564,-0.0006153271533548832,0.00137557671405375
1782661702302535400,1.780535400390625,-0.000007867347449064255,0.0030150674283504486,0.0016475007869303226
1782661702312607500,1.790607421875,0.0002560519496910274,0.0019937450997531414,0.0003862276207655668
1782661702322678500,1.800678466796875,0.0016537398332729936,-0.0009504531044512987,-0.0005242473562248051
1782661702332749600,1.81074951171875,0.0016476146411150694,-0.00013525946997106075,0.0013913643779233098
1782661702342820600,1.820820556640625,0.000930867507122457,-0.0006773129571229219,-0.0018482402665540576
1782661702352892700,1.830892578125,-0.0015269637806341052,0.0006444138707593083,0.0018740599043667316
1782661702362963500,1.84096337890625,0.002524999435991049,-0.00014772824943065643,0.0004368541995063424
1782661702373034500,1.851034423828125,-0.0005304451333358884,0.0005729232216253877,0.001274684676900506
1782661702383105500,1.86110546875,-0.0003868788480758667,0.00013282743748277426,-0.0015541163738816977
1782661702393177600,1.871177490234375,0.0014317937893792987,-0.0005827639251947403,0.0010677657555788755
1782661702403248600,1.88124853515625,-0.0006304080598056316,-0.0003056759014725685,0.0011965942103415728
1782661702413319700,1.891319580078125,-0.00042028469033539295,0.000094597227871418,-0.0007331323577091098
1782661702423390700,1.901390625,0.001419511972926557,0.00015994603745639324,0.0015028018970042467
1782661702433462500,1.911462646484375,0.0012623853981494904,0.00017432717140763998,0.000003708584699779749
1782661702443533600,1.921533447265625,-0.0005212975665926933,-0.0023956382647156715,0.0002740275231190026
1782661702453604400,1.931604248046875,-0.0009596538729965687,0.00028589845169335604,0.0010676495730876923
1782661702463676400,1.941676513671875,-0.0014317927416414022,-0.0012113742996007204,0.002434407826513052
1782661702473747500,1.95174755859375,0.0030774716287851334,-0.0011123046278953552,0.0008362447842955589
1782661702483818500,1.961818603515625,0.0014243223704397678,0.001326295081526041,0.0013414779677987099
1782661702493889500,1.9718896484375,0.00040619593346491456,-0.0030008091125637293,0.0007776867132633924
1782661702503961600,1.981961669921875,-0.0006547928787767887,0.00037277815863490105,0.00008878781227394938
1782661702514032600,1.99203271484375,-0.000313641969114542,-0.0013912997674196959,-0.0017658376600593328
1782661702524103700,2.002103759765625,0.0005765364621765912,-0.0008196660783141851,0.0005385270342230797
1782661702534174500,2.012174560546875,0.0014156985562294722,-0.0003735865466296673,-0.00023778437753207982
1782661702544246500,2.02224658203125,-0.0008879986125975847,-0.0032570187468081713,0.00016596645582467318
1782661702554317600,2.032317626953125,0.00030563020845875144,0.0005947111640125513,-0.0009584201616235077
1782661702564388600,2.042388671875,-0.0024220035411417484,0.000025527318939566612,-0.0006811470375396311
1782661702574459600,2.052459716796875,0.0005695252912119031,-0.00008286326192319393,-0.000016954669263213873
1782661702584531200,2.06253125,0.0011691126273944974,0.001386568183079362,0.0009411573992110789
1782661702594602200,2.072602294921875,0.0004745602491311729,0.004452132619917393,-0.00016938080079853535
1782661702604673300,2.08267333984375,0.0015835845842957497,0.0028735180385410786,-0.0018421695567667484
1782661702614744300,2.092744384765625,-0.0011964892037212849,0.0013789520598948002,0.001056414796039462
1782661702624816400,2.10281640625,-0.0008641985477879643,0.00006496079731732607,0.0014222111785784364
1782661702634887400,2.112887451171875,-0.0014013581676408648,0.0009973335545510054,-0.000599128135945648
1782661702644958500,2.12295849609375,0.0015481316950172186,-0.001789173111319542,-0.001269422471523285
1782661702655030500,2.133030517578125,-0.0011488513555377722,-0.0005611893720924854,-0.0022380142472684383
1782661702665101600,2.1431015625,-0.001480783219449222,0.0010348566574975848,0.00004377454752102494
1782661702675172400,2.15317236328125,0.00031338841654360294,-0.00036143860779702663,0.0006893248064443469
1782661702685243400,2.163243408203125,0.0004540491499938071,0.0016344779869541526,-0.0022793803364038467
1782661702695315500,2.1733154296875,0.001848746556788683,-0.0015567878726869822,0.0013600955717265606
1782661702705386500,2.183386474609375,0.000059283687733113766,-0.00011345674283802509,-0.00000764784635975957
1782661702715457500,2.19345751953125,-0.0019269018666818738,0.0022530280984938145,-0.001127773430198431
1782661702725528600,2.203528564453125,0.001209353213198483,0.0016321245348080993,-0.00013940533972345293
1782661702735600400,2.213600341796875,-0.000533952028490603,0.0022220148239284754,0.0006491566891781986
1782661702745671400,2.22367138671875,0.0029058081563562155,-0.0000014624092727899551,-0.0004606730944942683
1782661702755742200,2.2337421875,-0.0019272963982075453,0.0010970914736390114,-0.0009693368338048458
1782661702765813200,2.243813232421875,0.000610444403719157,0.0013070984277874231,-0.0020067309960722923
1782661702775885300,2.25388525390625,-0.000573863391764462,0.0005659406306222081,-0.0028640027157962322
1782661702785956400,2.263956298828125,-0.0002017748774960637,0.0016003937926143408,-0.00005199151928536594
1782661702796027400,2.27402734375,-0.00016049598343670368,0.000055494136177003384,0.0016758674755692482
1782661702806098400,2.284098388671875,-0.0028019454330205917,0.00038945849519222975,0.00003417459083721042
1782661702816170500,2.29417041015625,-0.0009366673184558749,0.0005513787036761642,0.002984424354508519
1782661702826241500,2.304241455078125,0.0009713999461382627,0.0010631366167217493,-0.0004322457534726709
1782661702836312600,2.3143125,0.000986846280284226,-0.00006790785118937492,-0.0009323874255642295
1782661702846383400,2.32438330078125,-0.0017038083169609308,-0.0025001983158290386,-0.0019281284185126424
1782661702856455400,2.334455322265625,0.0005188658251427114,0.0019691186025738716,0.0009206549730151892
1782661702866526500,2.3445263671875,-0.0012642854126170278,-0.000018410617485642433,-0.001884977798908949
1782661702876597500,2.354597412109375,0.0005442672409117222,-0.0016285576857626438,0.00006259192014113069
1782661702886668500,2.36466845703125,0.0006908542709425092,-0.0007399662863463163,-0.0013352367095649242
1782661702896740400,2.374740234375,-0.0015661746729165316,0.0018054831307381392,0.0016786627238616347
1782661702906811400,2.384811279296875,-0.0008085623849183321,0.001856815186329186,0.0008094545919448137
1782661702916882400,2.39488232421875,-0.0011433218605816364,-0.0017062278930097818,0.0010520686628296971
1782661702926953200,2.404953125,-0.001433934667147696,-0.002521234331652522,0.00028111098799854517
1782661702937025300,2.415025390625,-0.0005007629515603185,-0.001751048257574439,-0.0017050744500011206
1782661702947096300,2.425096435546875,0.0004390000249259174,0.000013675889931619167,-0.0018027479527518153
1782661702957167400,2.43516748046875,0.000051243812777101994,-0.0012329497840255499,0.00020287861116230488
1782661702967238400,2.44523828125,-0.0013477926841005683,0.000013971468433737755,-0.0011517496313899755
1782661702977310500,2.455310546875,-0.00003059313166886568,-0.0033812925685197115,-0.000010851479601114988
1782661702987381500,2.465381591796875,-0.0009097517468035221,-0.0005302142817527056,-0.0015018756967037916
1782661702997452500,2.47545263671875,0.0010284968884661794,-0.0021499486174434423,-0.0014896250795572996
1782661703007523600,2.485523681640625,0.0009442033478990197,0.000253007048740983,0.0008767361287027597
1782661703017595600,2.495595703125,0.0002600372536107898,-0.00027722842060029507,-0.0006167645915411413
1782661703027666400,2.50566650390625,0.0011387800332158804,-0.0005985652096569538,-0.0014142217114567757
1782661703037737500,2.515737548828125,-0.000039136153645813465,-0.0003647396806627512,0.001816192758269608
1782661703047808500,2.52580859375,0.0006653203163295984,0.00048547598998993635,-0.000041015795432031155
1782661703057880300,2.53588037109375,-0.0002771723084151745,0.00019093032460659742,-0.0016090850112959743
1782661703067951400,2.545951416015625,0.0014989158371463418,0.0000032347161322832108,-0.00043067196384072304
1782661703078022400,2.5560224609375,-0.00025557458866387606,0.003496236866340041,0.0006252714083530009
1782661703088093400,2.566093505859375,-0.0010221438715234399,-0.0010073529556393623,-0.0010328337084501982
1782661703098165500,2.57616552734375,0.0005810791044496,0.0023570184130221605,-0.0025779996067285538
1782661703108236300,2.586236328125,-0.0001850123517215252,0.0003764155553653836,0.00012700061779469252
1782661703118307300,2.596307373046875,-0.00029287044890224934,-0.0026992689818143845,0.0011083754943683743
1782661703128379400,2.60637939453125,-0.0006341631524264812,-0.00033619930036365986,-0.0018278176430612803
1782661703138450400,2.616450439453125,-0.0009947551880031824,-0.00030424119904637337,0.00042814615881070495
1782661703148521500,2.626521484375,0.0016509485431015491,-0.0014392426237463951,0.0009250235743820667
1782661703158592500,2.636592529296875,0.0015963538317009807,0.00034667307045310736,0.0006664305692538619
1782661703168664600,2.64666455078125,0.0036872453056275845,0.0013441013870760798,0.0004626434529200196
1782661703178735600,2.656735595703125,0.002055260119959712,-0.0014884367119520903,-0.0007395074353553355
1782661703188806700,2.666806640625,0.0015735358465462923,0.000679899356327951,0.00006372196367010474
1782661703198877400,2.67687744140625,0.0020505080465227365,-0.0003920230083167553,-0.0002859510714188218
1782661703208949200,2.68694921875,0.00029643799643963575,-0.00004459265619516373,-0.0019286933820694685
1782661703219020300,2.697020263671875,0.0011427905410528183,0.0009700716473162174,-0.0007454508449882269
1782661703229091300,2.70709130859375,-0.0009668197017163038,-0.0009053777903318405,-0.00103456387296319
1782661703239162400,2.717162353515625,-0.0009958480950444937,0.001116227824240923,-0.003111030673608184
1782661703249233400,2.7272333984375,-0.002538474975153804,-0.0002842857502400875,0.00030478014377877116
1782661703259305500,2.737305419921875,-0.0008630803786218166,0.0007548797875642776,-0.002421231474727392
1782661703269376500,2.74737646484375,-0.0017422025557607412,0.00013865088112652302,0.0005895375506952405
1782661703279447300,2.757447265625,-0.001022350275889039,0.0006715493509545922,0.0012143150670453906
1782661703289518300,2.767518310546875,-0.0016898581525310874,-0.0011548988986760378,-0.0009871255606412888
1782661703299590400,2.77759033203125,-0.0004570807795971632,0.00013753317762166262,-0.00025049515534192324
1782661703309661400,2.787661376953125,0.00020870944717898965,0.0024760498199611902,-0.00028212781762704253
1782661703319732500,2.797732421875,-0.001324738608673215,-0.0016169624868780375,0.001159441308118403
1782661703329804500,2.807804443359375,0.00020100240362808108,0.002223767340183258,-0.00046858686255291104
1782661703339875600,2.81787548828125,-0.0005745100788772106,0.002985697705298662,0.0003870867658406496
1782661703349946600,2.827946533203125,-0.0012565635843202472,0.00027056143153458834,0.00015015207463875413
1782661703360017700,2.838017578125,0.0013117889175191522,0.00026789819821715355,-0.0008847522549331188
1782661703370089500,2.84808935546875,0.00019974203314632177,0.0008676882134750485,0.0006753317429684103
1782661703380160300,2.85816015625,0.00009641132783144712,-0.0011608414351940155,-0.0009987312369048595
1782661703390231300,2.868231201171875,-0.0009494841797277331,-0.001953856088221073,0.00016958703054115176
1782661703400302300,2.87830224609375,-0.0015601470367982984,0.004255570471286774,-0.0013228484895080328
1782661703410374400,2.88837451171875,0.000719729287084192,-0.0010218392126262188,-0.000005665526259690523
1782661703420445400,2.898445556640625,-0.0008078598184511065,-0.00010517938062548637,0.0008550680940970778
1782661703430516500,2.9085166015625,-0.0012179218465462327,-0.00019357865676283836,-0.0001830447290558368
1782661703440587500,2.91858740234375,0.0007813132833689451,0.0019161775708198547,0.0015283026732504368
1782661703450659600,2.92865966796875,0.0008219649316743016,0.0017549972981214523,-0.0006485215271823108
1782661703460730400,2.93873046875,0.002557014347985387,-0.00010442174971103668,0.0007413822459056973
1782661703470801400,2.948801513671875,0.00024115166161209345,0.00016573816537857056,0.0013346514897421002
1782661703480872400,2.95887255859375,0.003435613587498665,-0.0011725001968443394,0.0017671488458290696
1782661703490943500,2.968943603515625,-0.0005309713305905461,0.0023095079232007265,-0.0011101935524493456
1782661703501015600,2.979015625,0.002836329396814108,-0.0021254541352391243,-0.002533120568841696
1782661703511086300,2.98908642578125,-0.0006127100205048919,0.0001952397869899869,-0.0020213518291711807
1782661703521157400,2.999157470703125,-0.0010822253534570336,-0.001214904012158513,-0.0010865821968764067
1782661703531228400,3.009228515625,-0.0023846658878028393,-0.001473032170906663,-0.0005651268875226378
1782661703541300500,3.019300537109375,-0.0014467004220932722,0.004304695874452591,-0.0018306610872969031
1782661703551371300,3.029371337890625,0.0019766364712268114,0.0013999964576214552,0.000021586776711046696
1782661703561442300,3.0394423828125,0.00020696589490398765,-0.0008762073703110218,0.0017523751594126225
1782661703571513300,3.049513427734375,-0.00196106662042439,0.00039928825572133064,0.0013035237789154053
1782661703581585400,3.05958544921875,-0.00018234120216220617,-0.00004226388409733772,0.000922425533644855
1782661703591656400,3.069656494140625,-0.0008211827371269464,0.0013256610836833715,0.0003690923913381994
1782661703601727500,3.0797275390625,0.0007500823703594506,0.001671871985308826,-0.0006969710229896009
1782661703611798500,3.089798583984375,0.00004049763083457947,0.0003651705337688327,-0.00041304086335003376
1782661703621870600,3.09987060546875,0.001767024863511324,-0.00021459953859448433,0.0008543574949726462
1782661703631941600,3.109941650390625,0.0016286124009639025,-0.001008808147162199,0.0012631911085918546
1782661703642012400,3.120012451171875,0.00034496875014156103,-0.0026767458766698837,0.004084011074155569
1782661703652083500,3.13008349609375,0.00007232604548335075,0.00030574563425034285,-0.0008782693184912205
1782661703662155300,3.1401552734375,-0.00028267328161746264,0.0002719234907999635,-0.0006167468964122236
1782661703672226300,3.150226318359375,-0.00016836391296237707,0.0004151873290538788,-0.0006122392369434237
1782661703682297300,3.16029736328125,-0.00022242602426558733,0.0002798987552523613,0.0029015354812145233
1782661703692368400,3.170368408203125,0.0008385569672100246,0.000025674584321677685,-0.003151446348056197
1782661703702440400,3.1804404296875,0.001545093604363501,-0.0027581278700381517,0.0003932211548089981
1782661703712511500,3.190511474609375,-0.00008744967635720968,-0.0012831033673137426,-0.00009435409447178245
1782661703722582500,3.20058251953125,0.0009743527043610811,-0.0010378260631114244,-0.0008333813166245818
1782661703732653300,3.2106533203125,-0.00021870422642678022,0.0013696940150111914,-0.002546904142946005
1782661703742725400,3.220725341796875,0.001667879056185484,-0.0002867921721190214,0.0020811371505260468
1782661703752796400,3.23079638671875,0.00035244441824033856,0.0004354136763140559,0.0017032136674970388
1782661703762867500,3.240867431640625,0.00041902344673871994,-0.001209354493767023,-0.00018550019012764096
1782661703772938500,3.2509384765625,0.0015860910061746836,-0.0008437193464487791,0.000619276484940201
1782661703783010600,3.261010498046875,0.0014076592633500695,-0.0006074968259781599,0.0009465789771638811
1782661703793081600,3.27108154296875,-0.0006801635026931763,-0.0027217676397413015,0.0007302183657884598
1782661703803152600,3.281152587890625,0.00009428383782505989,0.002101749647408724,-0.0005065536824986339
1782661703813223400,3.291223388671875,-0.00016566377598792315,-0.0013644348364323378,-0.0018879999406635761
1782661703823295200,3.301295166015625,0.0005632434622384608,0.0005871296161785722,-0.0014475130010396242
1782661703833366300,3.3113662109375,0.0014703863998875022,0.00032511702738702297,-0.00017573803779669106
1782661703843437300,3.321437255859375,0.0024309884756803513,-0.00045518926344811916,-0.00019677702221088111
1782661703853508400,3.33150830078125,0.0007875164155848324,0.0008428419241681695,0.0006494518020190299
1782661703863580400,3.341580322265625,-0.0014820293290540576,0.0006542900810018182,0.0005269464454613626
1782661703873651500,3.3516513671875,-0.0009543319465592504,0.0007995940977707505,-0.0010184332495555282
1782661703883722500,3.361722412109375,-0.0005231661489233375,0.0005902696866542101,0.001674288883805275
1782661703893793500,3.37179345703125,0.001320450915955007,0.00046700984239578247,0.001202101120725274
1782661703903865600,3.381865478515625,0.00032469502184540033,-0.001643545227125287,0.0007008941611275077
1782661703913936400,3.391936279296875,0.0010674197692424059,0.0010831861291080713,0.002103014150634408
1782661703924007400,3.40200732421875,0.0018759553786367178,0.00005174381658434868,-0.000010736810509115458
1782661703934078500,3.412078369140625,-0.0004065257962793112,-0.0005763024091720581,0.0005552240181714296
1782661703944149500,3.4221494140625,-0.0006656514015048742,-0.0011403600219637156,0.0018439276609569788
1782661703954221600,3.4322216796875,0.0029682351741939783,-0.00014370749704539776,0.003033463377505541
1782661703964292600,3.442292724609375,0.0014148133341223001,0.0013681692071259022,-0.0002534098457545042
1782661703974363600,3.45236376953125,0.0021831514313817024,-0.0014376495964825153,0.00420520082116127
1782661703984434400,3.462434326171875,-0.0006741542601957917,-0.0020805364474654198,-0.00017649811343289912
1782661703994506200,3.47250634765625,0.0016335174441337585,-0.0012205964885652065,0.0006117213051766157
1782661704004577300,3.482577392578125,-0.0013873061398044229,-0.0022046344820410013,-0.00032943981932476163
1782661704014648300,3.4926484375,-0.0006205731770023704,-0.002328482922166586,0.00014272547559812665
1782661704024719400,3.50271923828125,-0.000970246153883636,-0.001384924864396453,0.00044126587454229593
1782661704034791400,3.51279150390625,-0.00095223484095186,0.001069439109414816,-0.002233500126749277
1782661704044862500,3.522862548828125,-0.002211910206824541,0.0002209559315815568,0.0008240750757977366
1782661704054933500,3.53293359375,-0.00031607458367943764,0.0023545208387076855,-0.0019716587848961353
1782661704065004300,3.54300439453125,-0.0006934445118531585,0.0003166700480505824,-0.0008992038201540709
1782661704075076600,3.55307666015625,-0.0009851123904809356,-0.00031943037174642086,0.0013341102749109268
1782661704085147400,3.5631474609375,-0.0005278477910906076,-0.0012829620391130447,-0.0009484852198511362
1782661704095218400,3.573218505859375,0.0009730519959703088,-0.000010584015399217606,-0.001235234783962369
1782661704105289500,3.58328955078125,0.0004875577287748456,0.0013739934656769037,0.0009341762633994222
1782661704115361500,3.593361572265625,0.001523277023807168,-0.001677223714068532,0.00046574813313782215
1782661704125432600,3.6034326171875,-0.0009009983623400331,0.0018301594536751509,-0.004121546633541584
1782661704135503600,3.613503662109375,-0.00029744289349764585,0.0014485404826700687,-0.0010158454533666372
1782661704145574700,3.62357470703125,-0.0011736227897927165,-0.0020551143679767847,-0.00038281214074231684
1782661704155646500,3.633646484375,-0.0014433061005547643,0.00032033014576882124,-0.0005195648409426212
1782661704165717200,3.64371728515625,-0.0022193510085344315,-0.0015508069191128016,-0.002491103019565344
1782661704175788300,3.653788330078125,-0.0003078848822042346,-0.0020453145261853933,-0.0017219315050169826
1782661704185859300,3.663859375,-0.002017368096858263,-0.001092968275770545,-0.0029456540942192078
1782661704195930400,3.673930419921875,-0.002729263389483094,0.0002999654971063137,-0.003288162872195244
1782661704206002400,3.68400244140625,-0.002659754827618599,0.0013423266354948282,0.0008168335189111531
1782661704216073500,3.694073486328125,-0.0017903847619891167,0.0005180852022022009,0.0007588655571453273
1782661704226144500,3.70414453125,0.0004741012235172093,-0.0001650156918913126,0.0009620647761039436
1782661704236215300,3.71421533203125,-0.0016216281801462173,0.00006845477037131786,-0.0005858229123987257
1782661704246287600,3.72428759765625,0.00036375835770741105,-0.0024772610049694777,-0.0016833115369081497
1782661704256358400,3.7343583984375,-0.0008076811209321022,0.00008477934170514345,0.0000043298350647091866
1782661704266429400,3.744429443359375,-0.0010939710773527622,-0.000523752998560667,0.0004075324395671487
1782661704276500500,3.75450048828125,0.002546742558479309,-0.0018269435968250036,-0.00004722329322248697
1782661704286572500,3.764572509765625,0.0015366054140031338,-0.0022040472831577063,0.00008566840551793575
1782661704296643600,3.7746435546875,0.00045964925084263086,0.001133456826210022,0.0010214827489107847
1782661704306714600,3.784714599609375,-0.0018426536116749048,0.0006410382920876145,0.00040096614975482225
1782661704316785700,3.79478564453125,-0.00019915320444852114,0.0002481653355062008,-0.002000397304072976
1782661704326857500,3.804857421875,0.00008101132698357105,-0.001274630194529891,-0.00019397510914132
1782661704336928300,3.81492822265625,0.001257732161320746,0.0020339349284768105,0.0008290463592857122
1782661704346999300,3.824999267578125,-0.0003231202717870474,-0.0008814276661723852,0.0009664654498919845
1782661704357070300,3.8350703125,0.0002313631121069193,0.0005213858094066381,0.000946994754485786
1782661704367142400,3.845142333984375,0.0016638775123283267,0.000049740076065063477,-0.0007225410081446171
1782661704377213400,3.85521337890625,-0.0011040110839530826,-0.0013688132166862488,-0.0001821646001189947
1782661704387284500,3.865284423828125,-0.0008054707432165742,-0.000507014337927103,0.0014980238629505038
1782661704397355500,3.87535546875,-0.001716490020044148,0.0013785137562081218,0.0010094537865370512
1782661704407426300,3.88542626953125,-0.001193178934045136,0.00011670810636132956,-0.0003229256544727832
1782661704417498400,3.895498291015625,-0.0023243450559675694,0.0009737625950947404,-0.0003714892081916332
1782661704427569400,3.9055693359375,0.000567581329960376,-0.0008057616651058197,0.00062613096088171
1782661704437640400,3.915640380859375,0.0003487903159111738,0.0014949820470064878,-0.0005343102966435254
1782661704447711500,3.92571142578125,0.0006643749075010419,-0.0007194364443421364,0.0006326868897303939
1782661704457783600,3.935783447265625,-0.0009638827759772539,-0.0002516640815883875,-0.00011552972136996686
1782661704467854600,3.9458544921875,-0.0002227249788120389,-0.0016436984296888113,0.001093012746423483
1782661704477925600,3.955925537109375,-0.00017193437088280916,0.0008447200525552034,0.0035681352019309998
1782661704487996700,3.96599658203125,-0.0014784811064600945,0.0020828235428780317,-0.0001866558741312474
1782661704498068500,3.976068359375,0.0008725929073989391,0.00165908457711339,0.0009167041862383485
1782661704508139300,3.98613916015625,-0.000713852234184742,-0.0012762516271322966,-0.0007395156426355243
1782661704518210300,3.996210205078125,-0.0008829631842672825,-0.0009431261569261551,0.0021111988462507725
1782661704528281300,4.00628125,0.00005340413190424442,0.0014443978434428573,0.001565783517435193
1782661704538353400,4.016353515625,0.000859940773807466,-0.0011206830386072397,-0.0009053419344127178
1782661704548424400,4.026424560546875,-0.0017515550134703517,-0.0004477021284401417,-0.000652874237857759
1782661704558495500,4.03649560546875,0.001369501929730177,-0.0002154153771698475,0.0018781826365739107
1782661704568566500,4.04656640625,-0.00034610647708177567,-0.0010223530698567629,0.0005242315819486976
1782661704578637600,4.056637451171875,-0.0007718387059867382,0.000056252116337418556,-0.0009275035699829459
1782661704588709600,4.066709716796875,-0.00013241381384432316,-0.0023150264751166105,-0.0011725143995136023
1782661704598780700,4.07678076171875,-0.00021521328017115593,0.0017229244112968445,0.000665231782477349
1782661704608851500,4.0868515625,0.002268450800329447,0.0018307823920622468,-0.0020466651767492294
1782661704618922500,4.096922607421875,-0.0001617196248844266,0.00041568593587726355,-0.0009671611478552222
1782661704628994600,4.10699462890625,0.00023003143724054098,-0.0013579793740063906,-0.0008776789181865752
1782661704639065600,4.117065673828125,-0.0023982985876500607,-0.00006009824573993683,0.0009584567742422223
1782661704649136600,4.12713671875,0.000343159306794405,0.001641129027120769,-0.0007014914881438017
1782661704659207700,4.137207763671875,-0.00003634532913565636,-0.0005275157745927572,0.000887224217876792
1782661704669279500,4.147279541015625,0.0008166651823557913,-0.00017544603906571865,0.000271501368843019
1782661704679350500,4.1573505859375,0.0015506373019888997,0.000017100945115089417,-0.0005153295933268964
1782661704689421600,4.167421630859375,0.00024622108321636915,0.00014093797653913498,-0.00012704069376923144
1782661704699492400,4.177492431640625,0.0000031337840482592583,-0.000521892448887229,-0.00021290236327331513
1782661704709563400,4.1875634765625,0.001287576393224299,0.00034736329689621925,0.0007564882980659604
1782661704719635500,4.197635498046875,-0.001263554091565311,0.00010462594218552113,-0.0013747714692726731
1782661704729706500,4.20770654296875,0.0008680399041622877,-0.002082894556224346,-0.0008258939487859607
1782661704739777500,4.217777587890625,0.0013775707921013236,-0.000188545323908329,0.0016480186022818089
1782661704749848600,4.2278486328125,0.0016646594740450382,0.0012117447331547737,0.0012131243711337447
1782661704759920600,4.237920654296875,0.0012102231848984957,-0.0022037739399820566,0.002645236672833562
1782661704769991700,4.24799169921875,0.0036470156628638506,0.00007429393008351326,0.00031363917514681816
1782661704780062500,4.2580625,-0.0003863524179905653,0.0011340242344886065,-0.0001924546668305993
1782661704790133500,4.268133544921875,0.0008448269218206406,-0.0003195290919393301,0.003149546217173338
1782661704800205600,4.27820556640625,-0.00040895468555390835,0.0005439624655991793,-0.0008935208898037672
1782661704810276600,4.288276611328125,0.0013468674151226878,-0.000432352302595973,0.00046043016482144594
1782661704820347600,4.29834765625,0.0005531851202249527,0.00028840661980211735,0.0009330058819614351
1782661704830418700,4.308418701171875,0.00014865095727145672,-0.0011286614462733269,-0.0013056473108008504
1782661704840490500,4.318490478515625,0.0020898068323731422,-0.002344238804653287,0.0032344753853976727
1782661704850561500,4.3285615234375,-0.00102316215634346,0.0029778224416077137,0.0017894443590193987
1782661704860632600,4.338632568359375,-0.0005483203567564487,0.001498858560808003,-0.00030625826912000775
1782661704870703400,4.348703369140625,-0.0001254103844985366,-0.0005658902227878571,-0.0010146591812372208
1782661704880774400,4.3587744140625,0.0001882046926766634,0.00003031175583600998,-0.0005492971977218986
1782661704890846500,4.368846435546875,-0.0019708198960870504,0.0015163556672632694,0.00038520601810887456
1782661704900917500,4.37891748046875,0.001297547947615385,0.0013595744967460632,-0.00199105660431087
1782661704910988500,4.388988525390625,-0.0009419041452929378,-0.0006247467827051878,0.0014553401852026582
1782661704921059600,4.3990595703125,-0.00039516808465123177,0.0003721918910741806,0.0009023799211718142
1782661704931131600,4.409131591796875,-0.00046733976341784,-0.0007042577490210533,0.0015199671033769846
1782661704941202700,4.41920263671875,-0.00006456335540860891,-0.00004994915798306465,-0.0023871150333434343
1782661704951273500,4.4292734375,0.0008720703772269189,0.002266734605655074,-0.001995896687731147
1782661704961344500,4.439344482421875,0.00029330106917768717,0.0008907843148335814,-0.0019526637624949217
1782661704971416600,4.44941650390625,0.0021870748605579138,-0.0011225654743611813,0.001340068643912673
1782661704981487600,4.459487548828125,0.0009681661613285542,0.0004885209491476417,-0.0006394837982952595
1782661704991558700,4.46955859375,0.0018382209818810225,-0.0013171022292226553,-0.00013880946789868176
1782661705001629700,4.479629638671875,0.00009939202573150396,-0.0014633156824856997,-0.001686628325842321
1782661705011700700,4.48970068359375,-0.0013155455235391855,-0.0014814252499490976,-0.0013808973599225283
1782661705021772500,4.4997724609375,0.0024981554597616196,0.0012044265167787671,0.0017181290313601494
1782661705031843600,4.509843505859375,-0.00034849741496145725,0.0022947245743125677,-0.0018097604624927044
1782661705041914400,4.519914306640625,0.001191614894196391,0.0006127518136054277,-0.001950402045622468
1782661705051985400,4.5299853515625,-0.0007727326592430472,-0.001335616922006011,0.00039397861110046506
1782661705062057500,4.540057373046875,-0.0009917309507727623,0.0021778366062790155,0.001032907865010202
1782661705072128500,4.55012841796875,-0.0011435309424996376,0.0003037701826542616,0.0017170739592984319
1782661705082199600,4.560199462890625,-0.002203520853072405,0.0010626284638419747,-0.0028651345055550337
1782661705092270600,4.5702705078125,-0.0016083040973171592,-0.00161757692694664,-0.0003053041291423142
1782661705102342700,4.5803427734375,0.0011498649837449193,-0.0003850511275231838,-0.00016319536371156573
1782661705112413700,4.59041357421875,-0.0016965214163064957,0.00022135069593787193,0.0004027263494208455
1782661705122484500,4.600484375,-0.00044555484782904387,0.0013767573982477188,0.00022111419821158051
1782661705132555500,4.610555419921875,0.0016564782708883286,-0.0012152972631156445,-0.000943752471357584
1782661705142626600,4.62062646484375,-0.0013841448817402124,0.0016000380273908377,0.00046105566434562206
1782661705152698600,4.63069873046875,-0.0013316806871443987,0.003219239879399538,0.0002653133706189692
1782661705162769700,4.640769775390625,-0.00023097323719412088,0.0008456155192106962,-0.0009270174195989966
1782661705172840700,4.6508408203125,-0.000787307508289814,0.0027055670507252216,0.0008178856805898249
1782661705182911700,4.660911865234375,0.001124524511396885,-0.0005064171273261309,0.002573012374341488
1782661705192983600,4.670983642578125,-0.0010036074090749025,-0.00005447864532470703,-0.0007490146672353148
1782661705203054600,4.6810546875,-0.0010798483854159713,0.0006870207143947482,-0.0023883648682385683
1782661705213125400,4.69112548828125,-0.0015301889507099986,-0.00025174347683787346,-0.0020088644232600927
1782661705223196400,4.701196533203125,0.0008738881442695856,0.0007170472526922822,0.0005177286802791059
1782661705233267500,4.711267333984375,-0.0007588959997519851,0.00033355201594531536,0.0008634069235995412
1782661705243339500,4.721339599609375,-0.0014823978999629617,-0.0013521562796086073,0.0010934874881058931
1782661705253410600,4.73141064453125,-0.0010949081042781472,-0.0012610761914402246,0.0006335594807751477
1782661705263481600,4.741481689453125,0.0007256754906848073,-0.0003612393047660589,-0.0013866163790225983
1782661705273552600,4.751552734375,0.0004702783771790564,-0.001521844882518053,0.0012405919842422009
1782661705283624700,4.761624755859375,-0.0005742943612858653,0.0013833026168867946,-0.0014223784673959017
1782661705293695500,4.771695556640625,0.0005437006475403905,-0.0003837046679109335,0.0011361204087734222
1782661705303766500,4.7817666015625,0.0018092154059559107,-0.0006044455803930759,0.0007298575364984572
1782661705313837600,4.791837646484375,-0.0018073574174195528,0.002227826276794076,-0.0018957529682666063
1782661705323909600,4.80190966796875,0.0004994106711819768,0.0004634624347090721,0.0006355540826916695
1782661705333980700,4.811980712890625,-0.0010478858603164554,-0.0006963443011045456,-0.0016632864717394114
1782661705344051700,4.8220517578125,0.00032420060597360134,-0.0023388233967125416,-0.0012949679512530565
1782661705354122800,4.832122802734375,0.00014843198005110025,0.0004268691409379244,0.00047097416245378554
1782661705364193500,4.842193603515625,0.0038829240947961807,-0.001394007820636034,-0.0009228616836480796
1782661705374265300,4.852265380859375,-0.0010436574229970574,-0.0003673592582345009,-0.002041921950876713
1782661705384336400,4.86233642578125,0.001016163849271834,0.0009393071522936225,0.000013921642675995827
1782661705394407400,4.872407470703125,-0.0010555090848356485,0.0009211977012455463,-0.0008782373042777181
1782661705404478500,4.882478515625,-0.0024237665347754955,0.00042115419637411833,-0.0008335360325872898
1782661705414550500,4.892550537109375,0.00008626282215118408,0.0008166335755959153,-0.0007272759103216231
1782661705424621600,4.90262158203125,-0.0001541711390018463,0.0010383499320596457,-0.002018720842897892
1782661705434692600,4.912692626953125,-0.0012910745572298765,0.001958738313987851,-0.0004581086104735732
1782661705444763600,4.922763671875,0.0005861396202817559,-0.0013549572322517633,-0.00028690617182292044
1782661705454834400,4.93283447265625,0.0013009320246055722,-0.00028702965937554836,0.002306746318936348
1782661705464906500,4.942906494140625,-0.0008333438308909535,0.002268424956128001,-0.00015055882977321744
1782661705474977500,4.9529775390625,-0.002349215094000101,-0.001385698327794671,-0.0005223361076787114
1782661705485048600,4.963048583984375,0.001007591956295073,-0.0023178202100098133,-0.0017946437001228333
1782661705495119600,4.97311962890625,0.001090682577341795,0.00274937623180449,0.0021689387504011393
1782661705505191700,4.983191650390625,0.0010676822857931256,-0.0015798178501427174,0.0005339180352166295
1782661705515262700,4.9932626953125,-0.0022602039389312267,0.0003485771594569087,-0.0015398855321109295
1782661705525333800,5.003333740234375,0.0003411698271520436,0.00138795655220747,0.00023517030058428645
1782661705535404500,5.013404541015625,-0.0002204908523708582,0.0007991315796971321,0.0003369030309841037
1782661705545475600,5.0234755859375,0.00019822444301098585,-0.0013499835040420294,0.000042410538299009204
1782661705555547400,5.03354736328125,-0.00006223260425031185,0.00029158894903957844,-0.001072122366167605
1782661705565618400,5.043618408203125,0.0017897326033562422,-0.00015819212421774864,-0.0005418229848146439
1782661705575689500,5.053689453125,-0.00013093918096274137,-0.0005257083103060722,-0.00006298659718595445
1782661705585760000,5.063760009765625,-0.0021281582303345203,0.00017000443767756224,-0.0028257048688828945
1782661705595831000,5.0738310546875,0.0009754897328093648,0.0013300774153321981,0.002146949525922537
1782661705605902800,5.08390283203125,0.00286362087354064,-0.0003926972858607769,-0.00006048634531907737
1782661705615974000,5.093973876953125,0.0004966031992807984,-0.0011010980233550072,0.0011344740632921457
1782661705626045000,5.104044921875,-0.0011297538876533508,-0.000456841429695487,0.00019702059216797352
1782661705636116000,5.114115966796875,0.002353394404053688,0.002048926893621683,0.0017001086380332708
1782661705646188000,5.12418798828125,0.0012408659094944596,-0.000045887427404522896,-0.0015894635580480099
1782661705656258800,5.1342587890625,-0.001716041937470436,0.0012300331145524979,0.0003589050320442766
1782661705666329900,5.144329833984375,0.000616843462921679,0.000017607584595680237,0.0008551380597054958
1782661705676401000,5.15440087890625,0.0027151480317115784,0.00048632395919412374,-0.000022107211407274008
1782661705686472000,5.164471923828125,0.0013985512778162956,-0.00004455610178411007,0.00014358767657540739
1782661705696544000,5.1745439453125,0.00016630662139505148,0.0029738706070929766,-0.0013312709052115679
1782661705706615000,5.184614990234375,0.0018080605659633875,-0.0005490945186465979,0.0029840178322046995
1782661705716686000,5.19468603515625,0.0016623856499791145,0.0012895518448203802,0.0017754752188920975
1782661705726756900,5.2047568359375,-0.0003810171037912369,0.00005461997352540493,0.0005781716317869723
1782661705736829000,5.214828857421875,0.0023543154820799828,-0.0004220858681946993,0.0011153311934322119
1782661705746900000,5.22489990234375,0.0003757147351279855,0.0013634865172207355,-0.0025988933630287647
1782661705756971000,5.234970947265625,0.0017483079573139548,-0.0014461483806371689,0.00021127407671883702
1782661705767042000,5.2450419921875,0.0008920805994421244,0.00087462377268821,0.000363503466360271
1782661705777113000,5.255113037109375,-0.0021628313697874546,0.0015244351234287024,0.00012275372864678502
1782661705787185000,5.265184814453125,-0.0005444674752652645,-0.0031098295003175735,-0.0006230244180187583
1782661705797256000,5.275255859375,0.0006704665720462799,-0.000712984474375844,-0.0016504719387739897
1782661705807327000,5.285326904296875,0.002864580601453781,-0.00033633201383054256,0.000527023512404412
1782661705817397800,5.295397705078125,0.0013186157448217273,-0.0004393963608890772,-0.0009861846920102835
1782661705827469800,5.3054697265625,0.00043665268458426,-0.0006687750574201345,0.0007548354333266616
1782661705837539800,5.315539794921875,0.0015771822072565556,-0.0003962516784667969,0.0016249503241851926
1782661705847611000,5.32561083984375,0.00004666356835514307,0.0009579657344147563,-0.0015010681236162782
1782661705857682000,5.335681884765625,0.0013416619040071964,-0.0007726268377155066,-0.0005074518267065287
1782661705867754000,5.34575390625,-0.0021065990440547466,0.0009259373182430863,-0.0015066699124872684
1782661705877825000,5.355824951171875,0.0014579229755327106,-0.00021778559312224388,0.0008461790857836604
1782661705887895800,5.365895751953125,-0.00007632409688085318,0.001046150689944625,-0.0016904819058254361
1782661705897966800,5.375966796875,-0.0005754462908953428,-0.001975559862330556,0.0004938805941492319
1782661705908038000,5.386037841796875,-0.0016614834312349558,-0.0005715414881706238,0.0015796513762325048
1782661705918110000,5.39610986328125,0.0014492683112621307,0.00009631994180381298,-0.0014933496713638306
1782661705928181000,5.406180908203125,-0.0020919369999319315,-0.001397979911416769,-0.0017130605410784483
1782661705938252000,5.416251953125,0.0006347637972794473,0.0009138259338214993,-0.0014707843074575067
1782661705948323000,5.426322998046875,-0.00008322449866682291,0.0009889270877465606,-0.0007227023597806692
1782661705958393900,5.436393798828125,-0.0013090724823996425,-0.00030894135124981403,0.0021117967553436756
1782661705968466000,5.4464658203125,0.00016445457004010677,0.0012868248159065843,0.0007184309069998562
1782661705978537000,5.456536865234375,0.003323361510410905,-0.0007513717282563448,0.0015557496808469296
1782661705988608000,5.46660791015625,-0.00019014673307538033,-0.0011138280387967825,-0.003015033667907119
1782661705998679000,5.476678955078125,0.0023343281354755163,-0.000799437751993537,0.00005581573350355029
1782661706008750800,5.486750732421875,-0.002287055365741253,-0.00010168971493840218,-0.0007061146898195148
1782661706018822000,5.49682177734375,0.001383429509587586,0.0004990362795069814,-0.00028723591822199523
1782661706028893000,5.506892822265625,0.002528855111449957,0.002193605760112405,0.0013178512454032898
1782661706038964000,5.5169638671875,0.0012180444318801165,0.0013055448653176427,-0.0008041132241487503
1782661706049034800,5.52703466796875,-0.0006597505416721106,0.001485041924752295,-0.00013965455582365394
1782661706059106800,5.53710693359375,0.0025508315302431583,-0.00040963594801723957,0.0013977617491036654
1782661706069177900,5.547177734375,0.0028009023517370224,-0.0018991418182849884,-0.0012875036336481571
1782661706079249000,5.557248779296875,0.0003271070308983326,-0.0004123006947338581,-0.001956686843186617
1782661706089320000,5.56731982421875,0.000753479078412056,0.00006547034718096256,-0.0005151177174411714
1782661706099391000,5.577390869140625,0.0018065422773361206,0.00026785058435052633,-0.0033574658446013927
1782661706109463000,5.587463134765625,-0.001117076026275754,0.00019328214693814516,-0.0016024424694478512
1782661706119534000,5.5975341796875,-0.00003067112993448973,0.0010709258494898677,-0.0005046314909122884
1782661706129604900,5.60760498046875,0.0013355305418372154,-0.0018303219694644213,0.0015768951270729303
1782661706139676000,5.617676025390625,-0.0008215929847210646,0.00010338216088712215,0.0016914401203393936
1782661706149748000,5.627748046875,0.0007384867058135569,0.001194479176774621,0.00013801822206005454
1782661706159819000,5.637819091796875,0.00031805422622710466,-0.0016255038790404797,0.0017176581313833594
1782661706169890000,5.64789013671875,-0.00020951800979673862,-0.0015916817355901003,-0.0018041060538962483
1782661706179961000,5.657961181640625,-0.001422567293047905,-0.00048506236635148525,-0.0018824775470420718
1782661706190032100,5.6680322265625,0.00195432105101645,-0.0009439249988645315,0.0006890706717967987
1782661706200104000,5.67810400390625,0.0012514380505308509,0.0008550338679924607,-0.00015085333143360913
1782661706210175000,5.688175048828125,-0.0005653704283758998,0.0014880672097206116,-0.0012901535956189036
1782661706220248000,5.698248046875,0.0013076307950541377,-0.000014754477888345718,-0.00011197119602002203
1782661706230319000,5.708319091796875,0.0010784885380417109,-0.0011377811897546053,0.0010762029560282826
1782661706240390000,5.718389892578125,0.00043826462933793664,-0.002411304507404566,0.0013118927599862218
1782661706250461000,5.7284609375,0.0010926814284175634,0.0002851225435733795,0.0003018421120941639
1782661706260532700,5.73853271484375,-0.0020586370956152678,-0.0002443138509988785,0.00040410744259133935
1782661706270603800,5.748603759765625,0.0009087463840842247,-0.001161498250439763,0.000677787815220654
1782661706280674800,5.7586748046875,0.0016911830753087997,-0.0012331372126936913,0.0007656721863895655
1782661706290745900,5.768745849609375,0.0020109456963837147,0.003033702727407217,-0.0011023975675925612
1782661706300818000,5.77881787109375,0.0007643199060112238,0.0005894533824175596,-0.00020278175361454487
1782661706310889000,5.788888916015625,0.00044157408410683274,-0.0004984322004020214,0.00013691213098354638
1782661706320959700,5.798959716796875,-0.0018713813042268157,0.0008251589024439454,0.0010889922268688679
1782661706331030800,5.80903076171875,0.0013640502002090216,-0.00015626661479473114,-0.00023130266345106065
1782661706341101800,5.819101806640625,-0.001716960803605616,-0.0014660093002021313,-0.00045394292101264
1782661706351174000,5.829173828125,0.00009438768029212952,-0.0011820567306131124,-0.0005090063204988837
1782661706361245000,5.839244873046875,0.0016145200934261084,-0.00013889651745557785,-0.0003281777026131749
1782661706371316000,5.84931591796875,0.000486039265524596,-0.0003893934190273285,0.0009181387140415609
1782661706381387000,5.859386962890625,0.0017148216720670462,-0.00041948724538087845,-0.0006810894701629877
1782661706391458000,5.8694580078125,0.0016661727568134665,0.007860605604946613,0.0013297568075358868
1782661706401530000,5.879530029296875,-0.0018976693972945213,-0.0013531330041587353,0.000271416618488729
1782661706411601000,5.889600830078125,0.0035245243925601244,0.00016597891226410866,0.000159112096298486
1782661706421672000,5.899671875,-0.0004952509189024568,0.0030536442063748837,0.0015178569592535496
1782661706431743000,5.909742919921875,0.0014191269874572754,-0.00001308484934270382,0.001990951132029295
1782661706441814000,5.91981396484375,-0.00013509381096810102,0.000015677185729146004,0.001145930145867169
1782661706451885800,5.9298857421875,-0.0012285012053325772,-0.0013061931822448969,0.0021462845616042614
1782661706461956900,5.939956787109375,0.00023730268003419042,-0.005358725320547819,0.0028176673222333193
1782661706472028000,5.95002783203125,0.0010386077919974923,0.0012413992080837488,0.0015774376224726439
1782661706482099000,5.960098876953125,-0.00036221498157829046,0.0026739134918898344,0.0014932816848158836
