time,seconds_elapsed,z,y,x
1782811275428561200,0.07256103515625,-0.23453297849595545,-0.09625884559787809,-0.11721607423499227
1782811275438633200,0.08263330078125,-0.3632581426084041,-0.16663725387752054,-0.104726595018059
1782811275448705300,0.092705322265625,-0.39876784740686416,-0.20469927350729702,-0.09340557505860925
1782811275458776300,0.1027763671875,-0.29799685814678667,-0.20049378464147447,-0.07403846515715122
1782811275468848000,0.11284814453125,-0.1774707825809717,-0.2606942055169493,-0.09383607543036342
1782811275478919200,0.122919189453125,-0.09354980583488941,-0.32319625439830124,-0.074178750410676
1782811275488991200,0.1329912109375,-0.021845921105146406,-0.3021369536262005,-0.009434329430013894
1782811275499063300,0.143063232421875,0.005628945797681808,-0.2860303068254143,0.07939370857998729
1782811275509134300,0.15313427734375,-0.051039866885542864,-0.20401881696246563,0.15605726154372096
1782811275519206400,0.163206298828125,-0.13084171787500382,-0.008078896233066917,0.1918690180286765
1782811275529278200,0.1732783203125,-0.22779344110786914,0.22750863281711933,0.20604265094026922
1782811275539349200,0.183349365234375,-0.15882219621241092,0.33892033162228763,0.20308540856987237
1782811275549421300,0.19342138671875,-0.005460018971562385,0.3506372190315276,0.2507974462069571
1782811275559492400,0.203492431640625,0.06164426300823688,0.2318357022359967,0.28523952177390455
1782811275569564400,0.213564453125,0.052640287819504736,0.08867584312297404,0.24718670836389064
1782811275579636200,0.22363623046875,-0.018877134427428246,0.09339673416502774,0.18640870679616928
1782811275589707300,0.233707275390625,-0.1492068111270666,0.14996997751928864,0.11259382126182317
1782811275599779300,0.243779296875,-0.16166940233707427,0.19624051111117005,0.0666164984628558
1782811275609850400,0.253850341796875,-0.07158171965479851,0.1693682862766087,0.06503288253322244
1782811275619922400,0.26392236328125,0.011560089412331581,0.10084288545250893,0.07729337529987096
1782811275629994500,0.273994384765625,-0.01100245552957058,0.02968304447159171,0.04907748077139258
1782811275640065300,0.284065185546875,-0.07611585595309733,-0.023419527097418902,-0.009385667982697486
1782811275650137000,0.29413720703125,-0.046541386422514916,-0.0694970223352313,-0.03278466374874115
1782811275660208000,0.3042080078125,-0.0976326912343502,-0.11464885409548878,-0.0695557667851448
1782811275670280200,0.3142802734375,-0.2581739663243294,-0.12007051381804049,-0.14464227969050406
1782811275680352300,0.324352294921875,-0.30889936043322086,-0.08329590365029871,-0.19928075558990238
1782811275690423300,0.33442333984375,-0.22717969312369823,-0.04355952106751501,-0.2024381967075169
1782811275700495400,0.344495361328125,-0.06651274582743644,-0.03561199612915516,-0.14619301626384257
1782811275710566400,0.35456640625,-0.07593056251406669,-0.11119615635834634,-0.11772095501720904
1782811275720638200,0.36463818359375,-0.1712842029005289,-0.20151786699220536,-0.17138444840461015
1782811275730710300,0.374710205078125,-0.1678594891488552,-0.26522921859808263,-0.23270167141556738
1782811275740781300,0.38478125,-0.04562134896814823,-0.3259679841339588,-0.2225099477469921
1782811275750853400,0.394853271484375,0.15882219621241092,-0.3085502547346055,-0.14001710410788654
1782811275760925200,0.40492529296875,0.3110620914250612,-0.2996112345408648,-0.046714551032334566
1782811275770996200,0.414996337890625,0.3891618146717548,-0.29941461599022146,0.02329144373834133
1782811275781068300,0.425068359375,0.42739246886670584,-0.2682761850785464,0.096120533105731
1782811275791139300,0.435139404296875,0.2745323959290981,-0.2588835028331727,0.09460530623719096
1782811275801211400,0.44521142578125,0.026344986090064047,-0.2516021867185831,0.018579612785577772
1782811275811283500,0.455283447265625,-0.11708090354800224,-0.17932576279789209,-0.03977832202836871
1782811275821354500,0.4653544921875,-0.14705577057301997,-0.14437953710108994,-0.05135229383558035
1782811275831426300,0.47542626953125,-0.16633739414811133,-0.12344525094814598,-0.0054030280873179435
1782811275841497300,0.485497314453125,-0.17947744622826575,-0.08888261774145066,0.012039543492347001
1782811275851569400,0.4955693359375,-0.24358313091397285,-0.13152517009451983,0.008682488149404526
1782811275861641500,0.505641357421875,-0.19822773940563201,-0.11306699173152446,-0.014333791909366846
1782811275871712300,0.515712158203125,0.005585106655955315,-0.04499108824059367,0.022617051608115432
1782811275881784300,0.525784423828125,0.16711656182706355,-0.032317411563172936,0.08028013602569699
1782811275891856100,0.535856201171875,0.2928139025509357,-0.03760404672920704,0.09797536719217896
1782811275901927200,0.54592724609375,0.2935498156100511,-0.07792677783258259,0.14902400190606713
1782811275911999200,0.555999267578125,0.20525252347588538,-0.06823942348957061,0.15967384460568426
1782811275922070300,0.5660703125,0.053634559553861615,-0.029012305603176355,0.08838087876439094
1782811275932142300,0.576142333984375,-0.041535540959239,0.0021115853264927864,0.06569499970376491
1782811275942214100,0.586214111328125,-0.056360769647359844,0.06189275787658989,0.1060099128268659
1782811275952285200,0.59628515625,0.030367081212997436,0.08626374047994613,0.17181377973258494
1782811275962357200,0.606357177734375,0.041921909928321836,0.09601656127460301,0.21623992756679652
1782811275972429300,0.61642919921875,-0.04041033632159233,0.10515468423701822,0.1786763589784503
1782811275982500400,0.626500244140625,0.03971241718530655,0.09895546427071093,0.18092282273098825
1782811275992572400,0.636572509765625,0.16725684708058833,0.03163337482176721,0.17255378444492817
1782811276002643500,0.6466435546875,0.2712807006567716,-0.052286359815299506,0.17608020500540733
1782811276012715300,0.65671533203125,0.31802608521878717,-0.1207551350813359,0.22572759461924433
1782811276022787300,0.666787353515625,0.2909872716456651,-0.15215682003907857,0.23770795527026056
1782811276032858400,0.6768583984375,0.2025765822649002,-0.1774849572367966,0.2374476968988776
1782811276042930400,0.686930419921875,0.08216215038001537,-0.1994590347662568,0.18375658485218882
1782811276053002200,0.697002197265625,-0.04385200120806694,-0.19844591220095753,0.12953911084383726
1782811276063073000,0.707072998046875,-0.1214572189360857,-0.1309261082228273,0.09569339373484254
1782811276073144800,0.717144775390625,-0.010891396370530129,-0.13867168084830045,0.11632789322361349
1782811276083215600,0.727215576171875,0.1971995654016733,-0.15801281605828552,0.1838233664780855
1782811276093287700,0.73728759765625,0.2929272997975349,-0.22932138132750987,0.20275252335369587
1782811276103359700,0.74735986328125,0.26250118187367916,-0.2752714873259887,0.20870690171346068
1782811276113430800,0.7574306640625,0.13474398601055143,-0.22944946468658745,0.20371771512404083
1782811276123502800,0.7675029296875,-0.050906011372804635,-0.16746311024241148,0.14534019882678983
1782811276133574700,0.77757470703125,-0.16105682339668273,-0.1289986472915858,0.130702455534786
1782811276143645700,0.787645751953125,-0.1084212117522955,-0.09721380823515355,0.13229732351079582
1782811276153717800,0.7977177734375,-0.042779988062381744,-0.11315010343771427,0.13351765908598898
1782811276163788800,0.807788818359375,-0.022799860829114914,-0.18714348734412342,0.08841624233871698
1782811276173860900,0.81786083984375,0.016249708533287048,-0.27934852750655265,0.0291726107314229
1782811276183932700,0.8279326171875,0.020020459243655205,-0.35407844552658496,-0.03738499715104699
1782811276194003700,0.838003662109375,0.004341244074702263,-0.43691400165613736,-0.07193667057231068
1782811276204075800,0.84807568359375,-0.04349661189913749,-0.4730914861809462,-0.09618614568784832
1782811276214147800,0.85814794921875,-0.01282324121594429,-0.4551854983406141,-0.07023907287418842
1782811276224219000,0.868218994140625,0.028229484662413595,-0.43930199277121573,-0.03205941821411252
1782811276234291000,0.878291015625,0.06439619206488133,-0.48973950984943654,-0.03470467202588916
1782811276244362000,0.888362060546875,0.07612579282522201,-0.4841352966342121,-0.029653233855217693
1782811276254433800,0.898433837890625,0.12424421930611133,-0.5011754248928278,0.0031298224583268166
1782811276264505900,0.908505859375,0.12457038252055644,-0.5650963275961578,0.0017348609685897826
1782811276274577000,0.918576904296875,0.008562076640129089,-0.5072362593017519,-0.007363952896744012
1782811276284649000,0.92864892578125,-0.10000818819403648,-0.409497294681333,0.02406637363359332
1782811276294720800,0.938720703125,-0.15531214226484297,-0.37932745307348664,0.054769116541743275
1782811276304791800,0.948791748046875,-0.059630585098266596,-0.39100225490666923,0.13403715291544793
1782811276314863900,0.95886376953125,0.024131401693820952,-0.41689810898974533,0.19477029242813587
1782811276324936000,0.96893603515625,0.02321954754590988,-0.38638204776011403,0.2421186113193631
1782811276335006700,0.9790068359375,0.05929214692413807,-0.34057880288641895,0.27427067625299095
1782811276345078800,0.989078857421875,0.10102467176020145,-0.27368403547145426,0.317756036105752
1782811276355149800,0.99914990234375,0.17914309970736503,-0.3205883003896102,0.34579701245874167
1782811276365221600,1.0092216796875,0.2862181575477123,-0.42281361664384604,0.3342890916250646
1782811276375293700,1.019293701171875,0.36138474995195863,-0.6329870837785303,0.25596418132036924
1782811276385364700,1.02936474609375,0.39533845748007296,-0.8792986167430877,0.11664601926207542
1782811276395436800,1.039436767578125,0.43106735798716544,-1.1249660065852105,0.036189796017110344
1782811276405508900,1.0495087890625,0.3889046250402927,-1.2377763932071626,0.012165654090046881
1782811276415580000,1.059579833984375,0.28371172768473624,-1.2414704254195092,0.05352598461285233
1782811276425651700,1.069651611328125,0.1311468383014202,-1.1470426677063106,0.11352730271965264
1782811276435723800,1.079723876953125,-0.01925122843682766,-1.035047542989999,0.1282939330883324
1782811276445794800,1.089794921875,-0.10491641850173472,-1.0168266805142163,0.14774433735907078
1782811276455867000,1.099866943359375,-0.13510463601648806,-1.001014998072013,0.13052183827087283
1782811276465938000,1.10993798828125,-0.11483400140404701,-0.9951862188532948,0.15147095666676758
1782811276476009700,1.120009765625,-0.0668587827861309,-1.0656669184636325,0.19928382432982325
1782811276486081800,1.130081787109375,-0.017099603360891343,-1.1442204498924313,0.23947408815994858
1782811276496152800,1.14015283203125,0.03634323301315307,-1.0983603967975824,0.2662207869186997
1782811276506225000,1.150224853515625,0.13187281448841096,-1.0655508178032933,0.32366277593150733
1782811276516297000,1.160296875,0.18681787211894987,-1.114367309550941,0.32103418099358677
1782811276526368000,1.170367919921875,0.21544541618824004,-1.1728381301548332,0.2887454840682447
1782811276536439800,1.180439697265625,0.29437574504017827,-1.1906661939207464,0.2754989028736949
1782811276546512000,1.190511962890625,0.3484621400147676,-1.2807277923136948,0.22003259784802792
1782811276556582700,1.200582763671875,0.324261180216074,-1.3252924718357622,0.21315701299011705
1782811276566655000,1.210655029296875,0.31380992882847786,-1.3112068094685674,0.20212401619181036
1782811276576725800,1.220725830078125,0.24388299064338206,-1.2271782806947826,0.1762520544409752
1782811276586797800,1.2307978515625,0.17007774972021578,-1.1778753206044434,0.1329952426470816
1782811276596869600,1.24086962890625,0.05437281070053577,-1.1999514702688903,0.06319397666826844
1782811276606940700,1.250940673828125,0.05346563272774219,-1.278732234582305,0.02021905055567622
1782811276617012700,1.2610126953125,0.1320750590622425,-1.3774907149761915,-0.006987082408368587
1782811276627084800,1.271084716796875,0.27517478548586366,-1.409272193031758,-0.020431085871160028
1782811276637155800,1.28115576171875,0.3926104938209057,-1.3996192524150013,0.015233078836649655
1782811276647227600,1.2912275390625,0.4286936145931482,-1.403907597258687,0.034682898585498334
1782811276657299700,1.3012998046875,0.3507435289502144,-1.398684748043865,0.025548428884893653
1782811276667370800,1.311370849609375,0.27513094634413715,-1.367146431094408,0.01665931224748492
1782811276677442800,1.32144287109375,0.2699585121423006,-1.3075152614742516,0.09684767833650111
1782811276687515000,1.331514892578125,0.29054303500950335,-1.24564201201573,0.1727208115749061
1782811276697586000,1.3415859375,0.27729776898920533,-1.235820144572854,0.24996011859998105
1782811276707657700,1.35165771484375,0.2570750651717186,-1.2828195038959382,0.29589447904005645
1782811276717729800,1.361729736328125,0.28273089995384215,-1.336213240431249,0.3206206317566335
1782811276727800800,1.37180078125,0.21301789678037164,-1.4271461417660116,0.2994586012624204
1782811276737873000,1.381872802734375,0.09512158519625663,-1.4792876862831412,0.27816096168980003
1782811276747944000,1.39194384765625,0.02605564775466919,-1.4894089750640094,0.24771833102256058
1782811276758015700,1.402015625,-0.029866730475425717,-1.5544012333258985,0.2642150000542402
1782811276768087800,1.412087890625,-0.08666004632115364,-1.6058974656768141,0.2874433154284954
1782811276778158800,1.422158935546875,-0.20260113218426704,-1.6476444574296474,0.25037206040173765
1782811276788231000,1.43223095703125,-0.28358021025955676,-1.640859181203693,0.21656740595549342
1782811276798303000,1.442302978515625,-0.34241876819729805,-1.5908933732904493,0.2246235789000988
1782811276808373800,1.452373779296875,-0.37391397665739057,-1.4529780637674032,0.302489931782335
1782811276818445800,1.46244580078125,-0.4164396976977586,-1.3022569025546311,0.3819036602370441
1782811276828518000,1.472517822265625,-0.5930687687575816,-1.1470718207355588,0.4472412248052656
1782811276838588700,1.482588623046875,-0.7625210800558329,-1.0835319532390684,0.406177831402421
1782811276848660700,1.49266064453125,-0.8948451454430818,-1.1308726733457297,0.34331747060269113
1782811276858732800,1.50273291015625,-1.0196446605443954,-1.1552151605069636,0.3181308607675135
1782811276868803800,1.512803955078125,-1.1520517280399798,-1.1262130109716206,0.20537059689760206
1782811276878875600,1.522875732421875,-1.1896341474592684,-1.1016159645274282,0.15943156028240918
1782811276888947700,1.53294775390625,-1.2243752059727906,-1.0448626153659075,0.1824934330485761
1782811276899018800,1.543018798828125,-1.4266051667571067,-0.9424925934113562,0.1974710758194327
1782811276909090800,1.5530908203125,-1.7226789478868245,-0.7288407826416194,0.13075184763446449
1782811276919161900,1.563161865234375,-2.044716022312641,-0.5216885630242526,0.14554521987959743
1782811276929233700,1.573233642578125,-2.210667632013559,-0.3054479778703302,0.15652970136106012
1782811276939305700,1.5833056640625,-2.2229753249228,-0.15350129345059393,0.15648776191547512
1782811276949376800,1.593376708984375,-2.128841581720114,-0.031500834483280775,0.23859482110738753
1782811276959448800,1.60344873046875,-1.7951742752552031,-0.0373604723478551,0.2886009610310197
1782811276969521000,1.61352099609375,-1.3055962761104105,-0.10752409851578995,0.4136692100711167
1782811276979592000,1.623592041015625,-0.8800614178091287,-0.17848216984691098,0.5815630398809909
1782811276989663700,1.633663818359375,-0.42344226993620393,-0.23834259991198778,0.7637764869444071
1782811276999735800,1.64373583984375,-0.11885785009264946,-0.3671276409855112,0.8580135443910956
1782811277009806800,1.653806884765625,-0.04007482075691223,-0.47680539213754236,0.7818268151588738
1782811277019879000,1.66387890625,-0.10111176552176475,-0.514259947393462,0.6460292284421623
1782811277029951000,1.673950927734375,-0.11933657352030276,-0.5727194063531235,0.4769840366400778
1782811277040022000,1.68402197265625,-0.24691549020707607,-0.6169022834833711,0.3009714900434017
1782811277050093800,1.69409375,-0.42455987578928467,-0.6340269482202827,0.12219503169134259
1782811277060166100,1.704166259765625,-0.4852700728178024,-0.5903765339989214,-0.005167319635301828
1782811277070237200,1.7142373046875,-0.3709633101582527,-0.5404694705355912,-0.14630144507437945
1782811277080309200,1.724309326171875,-0.255640063932538,-0.5009993011409416,-0.17804843633845446
1782811277090381000,1.734381103515625,-0.09836042098700999,-0.4464182179845869,-0.12514029136300087
1782811277100452000,1.7444521484375,0.1029179381608963,-0.30840781405661255,-0.16342472157180307
1782811277110524200,1.754524169921875,0.3867880712777376,-0.20229732693210242,-0.31001243624165653
1782811277120596200,1.76459619140625,0.48307577764391896,-0.20136855818200855,-0.4113230853363871
1782811277130667300,1.774667236328125,0.2898135516911745,-0.3122096905576065,-0.4725641743712127
1782811277140739300,1.7847392578125,0.06313128669559956,-0.35312253304123875,-0.5027246270962059
1782811277150810000,1.79481005859375,-0.018083938223123548,-0.23798110965583472,-0.47993221892118454
1782811277160882000,1.8048818359375,0.02183189257979393,-0.100293946332857,-0.3731405080668628
1782811277170954000,1.8149541015625,0.11802198379039763,0.04827453035805374,-0.21792451965287327
1782811277181025000,1.82502490234375,0.26637714652419087,0.27400314789060504,-0.08922434385120868
1782811277191097000,1.83509716796875,0.464295089328289,0.5447420698208734,-0.04011924442052841
1782811277201169000,1.8451689453125,0.7491074717313051,0.7134949641454964,0.0018076339438557623
1782811277211240000,1.855239990234375,1.063506598624587,0.7151732726212591,0.08386369360089302
1782811277221312000,1.86531201171875,1.4314426699161529,0.5791747930375859,0.08842318353615701
1782811277231384000,1.875384033203125,1.759399782040715,0.41128421463072296,0.05755005249716341
1782811277241455000,1.885455078125,2.071388925182819,0.21068265876583753,-0.012528422987833618
1782811277251527200,1.895527099609375,2.2637445576846598,-0.013992284995317458,-0.07631715067885815
1782811277261599000,1.905598876953125,2.381703997632861,-0.23017120308987796,-0.1605219128023833
1782811277271670000,1.915669921875,2.420959903222322,-0.4466408477593213,-0.26170725501701236
1782811277281742000,1.9257421875,2.4584072980850933,-0.641734088531509,-0.35282413461655376
1782811277291814100,1.935814208984375,2.5154560499966143,-0.7740995819076896,-0.38561318227946756
1782811277301885200,1.94588525390625,2.5325123987376688,-0.8326002131279557,-0.3758389533706009
1782811277311957200,1.955957275390625,2.5041391216903923,-0.9170585846863687,-0.2793180227704346
1782811277322029000,1.966029052734375,2.3970909518569705,-0.9967552948009222,-0.1881573040291667
1782811277332100000,1.97610009765625,2.14999718247354,-1.1027690800853074,-0.14169219771325586
1782811277342172200,1.986172119140625,1.7855238188564777,-1.1416074178498237,-0.11653496010303496
1782811277352244200,1.996244140625,1.4663000482857227,-1.1088001038778572,-0.10622077909857033
1782811277362315300,2.006315185546875,1.190655307200551,-1.1248431108579038,-0.032479104930907485
1782811277372387000,2.016386962890625,0.8751637088954448,-1.200326367995888,0.04548720119446516
1782811277382459100,2.026459228515625,0.5312655157953501,-1.2433717289961874,0.07162278231754898
1782811277392530200,2.0365302734375,0.17147475703656673,-1.2476003064766525,0.06705591279342771
1782811277402602200,2.046602294921875,-0.21112872203290461,-1.2493641012787817,0.048601679953187704
1782811277412674300,2.05667431640625,-0.5939987430840731,-1.2886860578417778,0.0013188275136053562
1782811277422745000,2.0667451171875,-0.8453215283393859,-1.3819282590322195,0.053249213498085736
1782811277432817000,2.07681689453125,-0.9151163645774125,-1.5107092449851334,0.17717822937518357
1782811277442889200,2.08688916015625,-0.8573796304017305,-1.5672732821196316,0.35462387751489877
1782811277452960000,2.0969599609375,-0.7907049720108509,-1.6277461632609367,0.5189508086234331
1782811277463032000,2.107031982421875,-0.7734896333158016,-1.6669696278855204,0.6300966230340301
1782811277473104100,2.117104248046875,-0.9252981513738632,-1.638352751340717,0.7168802957348525
1782811277483175000,2.1271748046875,-1.22036655485332,-1.592243180464208,0.7300872755713761
1782811277493247000,2.1372470703125,-1.4727595996886491,-1.499390124721825,0.6858423295229673
1782811277503319000,2.147319091796875,-1.7182494410067797,-1.3836631200008094,0.6031466567881405
1782811277513390000,2.15739013671875,-1.8532447714298963,-1.1926157936185597,0.5432844548910856
1782811277523462100,2.167462158203125,-1.9145710545301435,-0.9578256254911423,0.4940136435046792
1782811277533534000,2.177533935546875,-1.8640233550757168,-0.8963438595682383,0.47676951710656285
1782811277543605000,2.18760498046875,-1.839272944700718,-0.9910336292184889,0.4788897241309285
1782811277553677000,2.197677001953125,-1.8745646228343247,-1.0761517067946493,0.4775871170997619
1782811277563749000,2.2077490234375,-1.9500550403654575,-1.0547755951583384,0.4038387209303677
1782811277573820200,2.217820068359375,-2.1117940008074045,-0.9721974113233387,0.29207272879481316
1782811277583892200,2.227892333984375,-2.2861364222347733,-0.8051096371993423,0.16638474042117596
1782811277593964000,2.237964111328125,-2.2517793946027753,-0.5407018910519779,0.09695859136506914
1782811277604035000,2.24803515625,-2.1518951250493523,-0.20681305079087614,0.042828064987808466
1782811277614107100,2.258107177734375,-2.0613824949532744,0.1264589727461338,0.04674392325729131
1782811277624179200,2.26817919921875,-1.835069063270092,0.43086657471805806,0.10345233729854225
1782811277634250200,2.278250244140625,-1.4840718518197535,0.712289753074199,0.22713921498283743
1782811277644322000,2.288322021484375,-1.0712187804371118,0.9270902954876422,0.3098044925794005
1782811277654393000,2.29839306640625,-0.7230535775423049,1.108160271604359,0.3345262613818049
1782811277664465200,2.308465087890625,-0.3644552434384823,1.2125823307178913,0.34439679027199743
1782811277674537200,2.318537109375,0.03599544248878955,1.1586382668234407,0.3409859589152038
1782811277684608000,2.32860791015625,0.47857612813711164,1.0683888177081942,0.37368425955474377
1782811277694680300,2.338680419921875,0.8408405835330486,1.0346329708397388,0.4699481466539204
1782811277704752000,2.348752197265625,1.1101023455828427,1.0322999978475271,0.6013517361953854
1782811277714824200,2.35882421875,1.1461515640854836,1.0340781134359538,0.7279445644542575
1782811277724895000,2.36889501953125,1.1178665498435496,1.081446159940958,0.7905860218062997
1782811277734967000,2.378967041015625,1.0514257002085448,1.10725879271999,0.7997456259481608
1782811277745038000,2.3890380859375,0.9432803827881813,1.1397767683565616,0.7606785209290683
1782811277755110100,2.399110107421875,0.8187620227158069,1.1229027904450892,0.7029512852340937
1782811277765182000,2.409181884765625,0.6651479165405034,1.0697994151584804,0.66974225859344
1782811277775253000,2.4192529296875,0.5474959351062775,1.0279618225127458,0.5846287110619247
1782811277785325000,2.429324951171875,0.4233253655582666,1.039369643972814,0.5145297773107886
1782811277795397000,2.439397216796875,0.3202116125643253,1.0632815576970576,0.4638844627007842
1782811277805469000,2.449468994140625,0.30113047999739645,1.0855177932940423,0.428735115647316
1782811277815540000,2.4595400390625,0.33347149163186546,1.0705626546159386,0.4170139904543757
1782811277825612000,2.469612060546875,0.5010889887183905,1.0385925221204757,0.3865846576601267
1782811277835683000,2.47968310546875,0.8322884437650442,1.0165116232156752,0.39067309601753947
1782811277845755100,2.489755126953125,1.2262801628112792,0.9417201477341354,0.40456221289932726
1782811277855827200,2.4998271484375,1.5439455980241297,0.9649228902757168,0.43252815125472843
1782811277865898200,2.509898193359375,1.7155197237819433,1.0751789162397385,0.47807190494202073
1782811277875970000,2.519969970703125,1.8708704444915054,1.0870784667395055,0.4710696980297565
1782811277886042000,2.5300419921875,2.049941648006439,1.0322716485358774,0.4618447005014866
1782811277896113200,2.540113037109375,2.1978297777503726,0.9865013926163315,0.408728246537596
1782811277906185200,2.550185302734375,2.2454379166215657,0.902505158676952,0.3112205699224025
1782811277916257000,2.560257080078125,2.1963661349385974,0.8315881865411996,0.2102186945158988
1782811277926329000,2.5703291015625,2.1211709009617565,0.7058711182035505,0.14239530448131263
1782811277936400100,2.580400146484375,1.9549077410936355,0.5668848184481263,0.055000148818641896
1782811277946472200,2.59047216796875,1.9019757768511771,0.4442845669567585,0.007527399830147624
1782811277956543200,2.600543212890625,1.952355134001374,0.3331758696861565,0.0669444883082062
1782811277966615300,2.610615234375,1.949703158187866,0.3114573743529618,0.198616592592746
1782811277976687000,2.62068701171875,1.9927502727538347,0.27495237490683794,0.38187319203354414
1782811277986759200,2.63075927734375,1.8627888448446988,0.24895064929649233,0.5792118736449628
1782811277996830000,2.640829833984375,1.5987737512767315,0.26541750771179795,0.6634167818989605
1782811278006902000,2.650902099609375,1.332800509378314,0.24197723008729516,0.6497323207437992
1782811278016974300,2.660974365234375,1.0099018496870995,0.19710662642121313,0.5346407643821091
1782811278027045000,2.671045166015625,0.7805699469655751,0.13528620312847195,0.40793629244230684
1782811278037117000,2.681116943359375,0.5227309116840362,-0.003990530940890312,0.27586934362128374
1782811278047189000,2.69118896484375,0.12008709962666034,-0.2256187274172902,0.14707009135931728
1782811278057260000,2.701260009765625,-0.23345862726271152,-0.421837318957597,0.14255845915377138
1782811278067331800,2.711331787109375,-0.4887684363275766,-0.5495109281904995,0.29313480506837364
1782811278077404000,2.72140380859375,-0.8128922538995742,-0.6742283910315483,0.4193846651084721
1782811278087474700,2.731474609375,-1.3556284272581338,-0.8301466824959963,0.37450229793936013
1782811278097546500,2.74154638671875,-2.0741928766876456,-0.9314148806884884,0.17814488245025276
1782811278107618600,2.75161865234375,-2.7082641024410723,-0.9558603898327797,-0.13559344244673846
1782811278117689600,2.761689697265625,-3.1285949623584743,-0.9579602116562426,-0.5379585836932063
1782811278127761700,2.77176171875,-3.432372157472372,-1.075347258543968,-0.9146694975927472
1782811278137833500,2.78183349609375,-3.455007183128595,-1.1705259076897054,-1.19431748296991
1782811278147904500,2.791904541015625,-3.296056392100453,-1.3253876027733087,-1.2465738860383628
1782811278157976600,2.8019765625,-3.121781190690398,-1.4801128850609062,-1.1057120016694069
1782811278168048600,2.812048583984375,-3.1846564567983147,-1.5299728945121167,-1.0051172457590698
1782811278178119700,2.82211962890625,-3.2127614382982252,-1.3564175318092107,-0.973752239549905
1782811278188191700,2.832191650390625,-3.0448832444489002,-0.9426699227396398,-0.8779282051727175
1782811278198263600,2.842263671875,-2.7444828322917223,-0.5200887996774166,-0.7823271658964455
1782811278208334600,2.85233447265625,-2.368628827482462,-0.18866693405173718,-0.6534313213922083
1782811278218406700,2.86240673828125,-1.8558511545360088,0.036358138321340085,-0.5233312156647444
1782811278228478700,2.872478759765625,-1.384492702692747,0.13113902032114563,-0.5095185250200331
1782811278238549800,2.8825498046875,-1.1760083576887845,0.13987930307239294,-0.6149541450902819
1782811278248621800,2.892621826171875,-1.2422224128305912,0.10625943060852587,-0.8353989770010113
1782811278258693600,2.902693603515625,-1.3645833026081322,0.1597030707001686,-1.0876888537228107
1782811278268764700,2.9127646484375,-1.3669424329549074,0.3176057409148663,-1.1486015875861049
1782811278278836700,2.922836669921875,-1.250786827558279,0.48096061212085184,-1.0842964348055422
1782811278288908800,2.93290869140625,-1.0644774894833564,0.6786352476883679,-0.9743281397417187
1782811278298979800,2.942979736328125,-0.789789026209712,0.8988608838904648,-0.7556614234194159
1782811278309051600,2.9530517578125,-0.4169540769606828,1.0784843144606797,-0.49017786473408337
1782811278319123700,2.963123779296875,0.08204933765530585,1.1555391317643224,-0.2871967933215201
1782811278329194800,2.97319482421875,0.5201140071839094,1.1673792071618139,-0.15305705681443213
1782811278339266800,2.983266845703125,0.9295242446362971,1.2159598443269728,0.02008665634766221
1782811278349339000,2.9933388671875,1.2820529034376145,1.2188096808001398,0.21389146474450826
1782811278359409700,3.00340966796875,1.3703291527837513,1.0724063827864825,0.2987666734755039
1782811278369481500,3.0134814453125,1.1602087310105562,0.8269980822719634,0.19198840662464497
1782811278379553800,3.0235537109375,0.9170335963755846,0.7110375610560178,0.1040460654079914
1782811278389624600,3.03362451171875,0.9593588264077901,0.6873072875089943,0.12076967506334185
1782811278399696600,3.043696533203125,1.325719026684761,0.6833211404822767,0.25332550337985155
1782811278409768700,3.053768798828125,1.7633821296751497,0.6868249108195305,0.4562878700919449
1782811278419839700,3.06383984375,2.170915467339754,0.7233430620081722,0.6807642956063151
1782811278429911600,3.07391162109375,2.508099257493019,0.7688494062945246,0.864401345732063
1782811278439983600,3.083983642578125,2.744835298991203,0.6934495896562933,0.9796597100280224
1782811278450054700,3.0940546875,2.929986114680767,0.48032297180444,1.0238028031371533
1782811278460126700,3.104126708984375,3.0623446668595076,0.19707082445546983,0.9528834929138421
1782811278470198500,3.114198486328125,3.079064915513992,-0.0650049716129899,0.8900815843030809
1782811278480270600,3.1242705078125,2.9898674596697092,-0.3065751552693546,0.8646971138082444
1782811278490341600,3.134341552734375,2.7723487443387507,-0.46546895541325206,0.8593716810017824
1782811278500413700,3.14441357421875,2.296965274763107,-0.4720369356267154,0.8999323855794966
1782811278510484700,3.154484619140625,1.8501655101150274,-0.24192586522623896,0.8759051749125123
1782811278520556800,3.164556884765625,1.5578887831807136,-0.08842895568981766,0.9572919570058583
1782811278530628600,3.174628662109375,1.3683803568035364,-0.17814517471119762,0.9708359137117862
1782811278540700700,3.18470068359375,1.4371645546942948,-0.20363558979853985,0.925179931821674
1782811278550771700,3.194771728515625,1.4891431637346744,-0.2228365493528545,0.9613239890009164
1782811278560843800,3.20484375,1.364516667112708,-0.38845731966421004,0.9246379338994621
1782811278570915600,3.21491552734375,1.1802736139178276,-0.4965155433230102,0.9097207891441881
1782811278580986600,3.224986572265625,0.9978110143989324,-0.5147954425096511,0.8458087273344397
1782811278591058700,3.23505859375,0.8251333113133907,-0.5541112615928053,0.7411551975525915
1782811278601130800,3.245130859375,0.6373264281570911,-0.6310273280128836,0.6354875222921371
1782811278611201800,3.255201904296875,0.4698410330176353,-0.8197055871762334,0.5497793698683381
1782811278621273900,3.26527392578125,0.22461247298419473,-1.111151854635775,0.42562808954268694
1782811278631345700,3.275345703125,-0.11668752031624316,-1.3497216874323785,0.293378550696373
1782811278641416700,3.285416748046875,-0.5474339757859706,-1.451769857021421,0.1989589762896299
1782811278651488800,3.29548876953125,-0.9900473946601152,-1.513487185265869,0.107759094581753
1782811278661560800,3.305560791015625,-1.2103431734889745,-1.4542352242216467,0.07775777794122696
1782811278671631600,3.315631591796875,-1.3465665844023227,-1.389201172644645,0.10695362341776489
1782811278681703700,3.32570361328125,-1.5288737010985611,-1.3371733176350593,0.13760302870348096
1782811278691775500,3.335775390625,-1.7724591701000927,-1.30930857463181,0.07788111205995082
1782811278701846500,3.345846435546875,-2.0799054091155527,-1.2173536367729305,-0.06860533419251441
1782811278711918600,3.355918701171875,-2.482591306748986,-1.2008598903506993,-0.2640564484916627
1782811278721990700,3.36599072265625,-2.5959564046442507,-1.0909480016492306,-0.45981487517431374
1782811278732061700,3.376061767578125,-2.3589643425583837,-1.00831545727849,-0.46370457608923316
1782811278742133500,3.386133544921875,-1.9486872591435909,-1.0819824587747453,-0.33787045724317427
1782811278752205600,3.39620556640625,-1.6354536688983439,-1.1466884474411607,-0.13797697658240796
1782811278762276600,3.406276611328125,-1.6224387045025825,-1.1365069529056548,-0.020163520976155994
1782811278772348700,3.4163486328125,-1.6846090372115372,-1.059122099930048,-0.06731660955622792
1782811278782420700,3.426420654296875,-1.6301210756987332,-0.9033608987234533,-0.16963263630121944
1782811278792491800,3.43649169921875,-1.484688522413373,-0.6467031821809709,-0.2374718084268272
1782811278802563600,3.4465634765625,-1.4218278693526982,-0.4743795532301068,-0.29317338351309297
1782811278812635600,3.4566357421875,-1.4824883820205925,-0.2651689397782087,-0.3153413761794567
1782811278822707700,3.466707763671875,-1.4998253012686966,0.07842194093838334,-0.22117826075181363
1782811278832778800,3.47677880859375,-1.3600655329227447,0.49020475274100894,-0.06162205117642879
1782811278842850600,3.4868505859375,-1.1384282763570546,0.798133076184988,0.09786065477132797
1782811278852922600,3.496922607421875,-0.9591799627095461,0.9159069304332137,0.14226415238231419
1782811278862993700,3.50699365234375,-0.945826560139656,0.8883046377584337,0.08816372888237238
1782811278873065700,3.517065673828125,-0.877742619472742,0.8860269020847976,0.029395605832338332
1782811278883137800,3.5271376953125,-0.6073749420076608,0.8772636037841439,0.030394846002757547
1782811278893208800,3.537208740234375,-0.1579255396336317,0.796078627873212,0.08147504489868879
1782811278903280600,3.54728076171875,0.261606278860569,0.799491651187092,0.18750176272988317
1782811278913352700,3.557352783203125,0.6313871012359857,0.882377293536067,0.2940101265981793
1782811278923423700,3.567423828125,0.9345201532274484,0.9447866956979035,0.42253041578829287
1782811278933495800,3.577495849609375,1.0943056415140628,1.0414204390227795,0.5230135280176997
1782811278943568000,3.58756787109375,1.0806173079013823,1.1643119285456835,0.582044101396203
1782811278953639000,3.597638916015625,0.8445517130106687,1.2480877977326512,0.5188733594730496
1782811278963710700,3.607710693359375,0.5035691150963306,1.2811406108982861,0.38953415511548517
1782811278973782800,3.61778271484375,0.2120312238305807,1.2760711986795068,0.2580938868254423
1782811278983853600,3.627853515625,0.06765782420933246,1.2130766901060939,0.15738281105905771
1782811278993925600,3.637925537109375,0.02591886963248253,1.0897295657701789,0.1673673217177391
1782811279003997400,3.64799755859375,0.08957856411635876,0.9470463111929595,0.20372867490947244
1782811279014068500,3.658068359375,0.20970716479718685,0.818566938535124,0.2275771680086851
1782811279024140500,3.668140625,0.45976562920510766,0.7033030212812126,0.2324722465738654
1782811279034212600,3.678212646484375,0.8496937520742416,0.5649784003049135,0.2656353882461786
1782811279044283600,3.68828369140625,1.2964146062672137,0.4857667702935636,0.3535048103570938
1782811279054355700,3.698355712890625,1.7008523160040379,0.47169981262683863,0.5185153398156166
1782811279064428300,3.70842822265625,1.9606559293568133,0.5074272518292069,0.6094795130714774
1782811279074499300,3.718499267578125,2.1166987239837645,0.5079414849616587,0.6457745230287313
1782811279084571400,3.7285712890625,2.151063934922218,0.45264118415266275,0.5681883022621274
1782811279094643500,3.7386435546875,2.043243027150631,0.3442649805858731,0.43643852963149543
1782811279104715300,3.74871533203125,1.878945029875636,0.214282656019181,0.33398090245872736
1782811279114786300,3.758786376953125,1.7129454893797635,0.01687660825997591,0.2930921349704265
1782811279124858400,3.7688583984375,1.5895149245440958,-0.2060932120837271,0.2667714065387845
1782811279134930400,3.778930419921875,1.472871827891469,-0.4274636344067752,0.26745412810593844
1782811279145001500,3.78900146484375,1.3741472497671843,-0.5856589308924973,0.27462650395333765
1782811279155073300,3.7990732421875,1.3180337328791618,-0.6689734661780298,0.3094143242180347
1782811279165145300,3.809145263671875,1.2436246808439493,-0.6759210933588444,0.43430385569036006
1782811279175216400,3.81921630859375,1.2321189519673585,-0.5851068499676882,0.5965498888716101
1782811279185288400,3.829288330078125,1.2156366037219761,-0.522992850555852,0.7455202608942985
1782811279195360500,3.839360595703125,1.0828396601259709,-0.5100559928976,0.8405325404971837
1782811279205431600,3.849431640625,0.7250427055329084,-0.4753522707197815,0.8823384228304028
1782811279215503400,3.85950341796875,0.20286299799084662,-0.4676551403459161,0.8025757348075508
1782811279225575400,3.869575439453125,-0.29141046549379823,-0.504406223507598,0.6446475648254155
1782811279235646200,3.879646240234375,-0.7033727255165576,-0.6385178298987448,0.4740279633134603
1782811279245718300,3.88971826171875,-1.002916228583455,-0.6678978728357702,0.40552550497353074
1782811279255790300,3.899790283203125,-1.2646096012055874,-0.5667969940342009,0.39764381181299685
1782811279265861400,3.909861328125,-1.4496949504435062,-0.4564530705910176,0.4061652641817927
1782811279275933200,3.91993310546875,-1.6695546759426594,-0.36523017333373425,0.4142763821840286
1782811279286005200,3.930005126953125,-1.960708536326885,-0.29564532658457754,0.34941023451983927
1782811279296076300,3.940076171875,-2.2917262050658462,-0.13772124825567006,0.27506781798005103
1782811279306148400,3.9501484375,-2.7137048321902753,0.03428242802582681,0.19367811327725648
1782811279316220200,3.96022021484375,-3.176323512738943,0.0740194681957364,-0.08536006963849067
1782811279326291200,3.970291259765625,-3.4297190126150845,0.11781981228180229,-0.4761570842966437
1782811279336363300,3.98036328125,-3.3440222583681343,0.1546297129586339,-0.7342635383427143
1782811279346435300,3.990435302734375,-2.997833323982358,-0.021058131728321314,-0.8578586460903287
1782811279356506400,4.00050634765625,-2.643505506804585,-0.22017105647064744,-0.7776856237009168
1782811279366578400,4.010578369140625,-2.265359007143974,-0.26716698172762987,-0.5048305133342743
1782811279376650200,4.020650146484375,-1.7954080840110778,-0.018844985723495484,-0.22725889583975076
1782811279386722300,4.030722412109375,-1.2565507979124784,0.3565517768375575,-0.0317453838288784
1782811279396793300,4.04079345703125,-0.6110849024415016,0.7275883714277297,0.08706921164393425
1782811279406865400,4.050865478515625,0.0049742812812328336,1.0156381283167748,0.17007424258887766
1782811279416937500,4.0609375,0.47533436973690985,1.0636448380514978,0.14921090278029442
1782811279427008500,4.071008544921875,0.7355787125945091,0.9284680866468698,0.014137538684904574
1782811279437080300,4.081080322265625,0.783546916949749,0.6531468053624033,-0.1891355014115572
1782811279447152400,4.09115234375,0.7050047106325626,0.35701230702139436,-0.5086018485665321
1782811279457223400,4.101223388671875,0.5631950240194797,0.1951911481887102,-0.7016235437616706
1782811279467295500,4.11129541015625,0.5765379051953554,0.1405690389022231,-0.7128633151784539
1782811279477367300,4.1213671875,0.7102975563436746,0.18073058809451759,-0.5973740647360682
1782811279487438300,4.131438232421875,0.8572901985526085,0.316161460390687,-0.5323918894767761
1782811279497510400,4.141510498046875,0.7379834356486797,0.5574919170070439,-0.61685062636137
1782811279507582500,4.15158251953125,0.31116555179953576,0.8158516151618213,-0.7866700174063443
1782811279517653200,4.1616533203125,-0.1657680698275566,1.0252834701489657,-0.9308861806392669
1782811279527725600,4.1717255859375,-0.6780816323935985,1.0952294052954763,-1.0326859284251928
1782811279537797400,4.18179736328125,-1.1920622513890267,1.1204608771856874,-1.1419888914480805
1782811279547868200,4.1918681640625,-1.6220616878837346,1.1642440509412437,-1.2168705294311046
1782811279557940200,4.201940185546875,-1.822114304628968,1.1855365028820932,-1.1510907740533352
1782811279568012300,4.21201220703125,-1.6804484104007482,1.135667214145884,-1.0036617862537502
1782811279578083300,4.222083251953125,-1.3230080141603946,1.0583698202580214,-0.8467492230549454
1782811279588155400,4.2321552734375,-0.8577315125793218,0.9611777123980224,-0.6841834564000367
1782811279598227200,4.242227294921875,-0.2520002461254597,0.8685737360458821,-0.5769137527704239
1782811279608299300,4.25229931640625,0.4098883763581514,0.7200082184970379,-0.432174150185287
1782811279618370300,4.262370361328125,1.0022516271948814,0.5418728345274925,-0.31365473826676604
1782811279628442400,4.2724423828125,1.5557809972465038,0.39393808916285633,-0.22451164295822382
1782811279638514200,4.28251416015625,1.853148325318098,0.2822046841226518,-0.17824761217236518
1782811279648585200,4.292585205078125,1.9979870043635368,0.0826660082489252,-0.19974632727503774
1782811279658657300,4.3026572265625,2.040993786919117,-0.118122959946841,-0.31213118196129797
1782811279668729300,4.312729248046875,1.995237413394451,-0.3223702519029379,-0.4225380145728588
1782811279678800400,4.32280029296875,1.8493004177182912,-0.46347544350847597,-0.4904632575467229
1782811279688872400,4.33287255859375,1.7104016501158474,-0.5372403524212539,-0.5291071687176824
1782811279698944300,4.3429443359375,1.6923036833673715,-0.4791705868989229,-0.42477118045240636
1782811279709015300,4.353015380859375,1.6018214484095572,-0.44630832786932584,-0.34144729281663894
1782811279719087400,4.36308740234375,1.4819085363060236,-0.4692287463381886,-0.24626520960479972
1782811279729159400,4.373159423828125,1.4623919349312782,-0.4589060897663235,-0.07930237703472376
1782811279739230500,4.38323046875,1.5470143379449843,-0.42367374060451984,0.20418430972248314
1782811279749302300,4.39330224609375,1.6634370698451995,-0.33524799978509545,0.4732432426765561
1782811279759374300,4.403374267578125,1.6935791101306676,-0.36911315224692226,0.5935723343655467
1782811279769445400,4.4134453125,1.5915782868146895,-0.5023676303520799,0.5740434580311179
1782811279779517400,4.423517333984375,1.4079419673413038,-0.5682429550588131,0.5671238879010081
1782811279789589500,4.433589599609375,1.0504361046493054,-0.6147231128133833,0.4171583673611283
1782811279799660500,4.44366064453125,0.622022476041317,-0.7047801080964505,0.2726747853636741
1782811279809732400,4.453732421875,0.2826327002763748,-0.7718762067697942,0.27621026601344345
1782811279819804400,4.463804443359375,0.022524551019072532,-0.8240439086414874,0.2630868728071451
1782811279829875200,4.473875244140625,-0.15142156456708908,-0.858908885795623,0.21266689138561487
1782811279839947500,4.483947509765625,-0.15191431652009485,-0.865919349079579,0.2173252385854721
1782811279850019300,4.494019287109375,-0.19703473022878168,-0.9106402420766652,0.25075726032704115
1782811279860091400,4.50409130859375,-0.37107320027351376,-0.9648486559957266,0.2179740578830242
1782811279870162200,4.514162109375,-0.5218091206640004,-0.9192037800215184,0.23265461740344762
1782811279880234200,4.524234130859375,-0.6593254939973354,-0.8470223409079015,0.1937830349564552
1782811279890306300,4.534306396484375,-0.8017892606049776,-0.8321925821751356,0.12221987387165427
1782811279900377300,4.54437744140625,-0.9042933572679758,-0.8242939378798008,0.01599704894647002
1782811279910449200,4.55444921875,-1.1017004279404878,-0.8735219330377876,-0.1408782509818673
1782811279920521200,4.564521240234375,-1.4012129513472318,-0.956333925628662,-0.270136791318655
1782811279930592300,4.57459228515625,-1.3360510356068611,-0.9033027387954294,-0.2653350901253521
1782811279940664300,4.584664306640625,-0.9756868608742951,-0.8085740984395146,-0.04855345689728856
1782811279950736400,4.594736328125,-0.6096767892092466,-0.7801870851278304,0.19745237111896274
1782811279960807400,4.604807373046875,-0.3440057451277971,-0.7653191863417625,0.4176749385811388
1782811279970879200,4.614879150390625,-0.44938510496616363,-0.7930252316519617,0.490712848393619
1782811279980951300,4.624951416015625,-0.7886708358347415,-0.8340814646616578,0.29512174110189077
1782811279991022300,4.635022216796875,-1.1487129390060902,-0.7894519032098353,0.08403583529740571
1782811280001094400,4.645094482421875,-1.4390250878691673,-0.6566828705340624,-0.0827281136997044
1782811280011166200,4.655166259765625,-1.6464099471986293,-0.4773169218562543,-0.12933058265969155
1782811280021237200,4.6652373046875,-1.7531342919051647,-0.17337474543899298,-0.03784033970311284
1782811280031309300,4.675309326171875,-1.7783891446709632,0.08477540161833166,0.09533055177181958
1782811280041381400,4.68538134765625,-1.7902911793887615,0.32925489685013887,0.1987887342892587
1782811280051452400,4.695452392578125,-1.778700694838166,0.5610504132062196,0.18697481624633072
1782811280061523700,4.705523681640625,-1.5767483819514512,0.7629236695073545,0.19195450435504316
1782811280071595800,4.715595703125,-1.0912146897614001,0.8605280114300549,0.2995752133794129
1782811280081666800,4.725666748046875,-0.4643552950829267,0.8043482974380254,0.43356078223809597
1782811280091738600,4.735738525390625,0.05091302563548088,0.5995962708301842,0.4640761858806014
1782811280101810700,4.745810791015625,0.46935529532730574,0.41779885722175236,0.41818814880028365
1782811280111882800,4.7558828125,0.7613654802799225,0.39566520521640774,0.4023746397271752
1782811280121953800,4.765953857421875,0.9500216737419366,0.4002162926495075,0.3079620795831084
1782811280132025600,4.776025634765625,1.0942968736857175,0.3598685001701116,0.21484628125131128
1782811280142097700,4.78609765625,1.1159101550787687,0.321625863276422,0.07030044767260551
1782811280152168700,4.796168701171875,0.9602087212353945,0.3661836746662855,-0.07614040587246418
1782811280162240800,4.80624072265625,0.7502028657525778,0.4469996711343527,-0.18979907988682387
1782811280172312800,4.816312744140625,0.5369102436840534,0.49418227806985376,-0.285434459824115
1782811280182383900,4.8263837890625,0.2677577872276306,0.5175219448640942,-0.3276686505720019
1782811280192455700,4.83645556640625,0.07226677930951118,0.57931759904176,-0.3703732353106141
1782811280202527700,4.84652783203125,-0.12818623493015766,0.6755582513958215,-0.3802076699741184
1782811280212598500,4.8565986328125,-0.2333107432246208,0.7652509434111416,-0.3398150154396891
1782811280222670800,4.8666708984375,-0.1898228991538286,0.8775793917350471,-0.19030805232226847
1782811280232743000,4.876742919921875,0.09277589885294436,0.9546054944008588,0.03291808087006211
1782811280242813700,4.886813720703125,0.5188333197236061,0.9337576444223522,0.263144009821862
1782811280252885500,4.896885498046875,0.8531728263616561,0.8939156095080077,0.38965325145050883
1782811280262957600,4.90695751953125,1.209323767313361,0.8680803265057504,0.4771871579967439
1782811280273028600,4.917028564453125,1.5056354488521813,0.8241660737164318,0.5868626075938344
1782811280283100700,4.9271005859375,1.7663257819116114,0.6980845559805631,0.7037140863001347
1782811280293172500,4.93717236328125,1.9405729262709617,0.5854790442809462,0.7842503890439868
1782811280303243500,4.947243408203125,1.9869652596116065,0.5241749730125069,0.775923728594929
1782811280313315600,4.957315673828125,1.9338111770510673,0.42414574203044175,0.7552392524845898
1782811280323387600,4.9673876953125,1.7097738736063242,0.29389541417732834,0.6543889143779873
1782811280333459700,4.977459716796875,1.4789076009243727,0.10917919051274656,0.4841049745611846
1782811280343530800,4.98753076171875,1.35764970395267,0.003689794428646564,0.43603623244091866
1782811280353602600,4.9976025390625,1.2386556602597236,-0.08548325762674212,0.5027569219306111
1782811280363674600,5.007674560546875,1.143071133726835,-0.1413892692439258,0.6398240901917219
1782811280373745700,5.01774560546875,0.9917162046551704,-0.16490823812782762,0.6339400005891919
1782811280383817700,5.027817626953125,0.6869044057965278,-0.20289207795485853,0.5819907637737691
1782811280393889800,5.037889892578125,0.3006961802333593,-0.26152970649302004,0.5418041532054543
1782811280403960800,5.0479609375,-0.00009410802423954009,-0.273290579174459,0.4819432664826512
1782811280414032600,5.05803271484375,-0.3705938923239708,-0.22774960196614263,0.4703577503681183
1782811280424104700,5.068104736328125,-0.8422305765867233,-0.1605577878333628,0.4277079645566642
1782811280434175700,5.07817578125,-1.1543389621943234,-0.019038608599454162,0.4616442825585603
1782811280444247800,5.088247802734375,-1.266508712825179,0.0627535394243896,0.5981476794570684
1782811280454319600,5.098319580078125,-1.3170534896701573,0.07230521162375807,0.6038353697046637
1782811280464390700,5.108390625,-1.2285399244368076,0.1116368127979338,0.5937077973134816
1782811280474462700,5.118462646484375,-1.2410463547885418,0.07489128259420394,0.6077227325320244
1782811280484534800,5.12853466796875,-1.3105793252199887,-0.04536240577101707,0.47398090930134057
1782811280494605800,5.138605712890625,-1.4820336239904164,-0.061452978219836946,0.29195070985034105
1782811280504678000,5.148677978515625,-1.6505840180128812,-0.10086319758817552,0.09043605772852897
1782811280514749700,5.158749755859375,-1.6482815862894058,-0.1193752980954945,-0.10486103505268693
1782811280524820500,5.168820556640625,-1.4526052849322557,-0.18348565895631908,-0.3035597529709339
1782811280534892800,5.178892822265625,-1.1594061824560165,-0.3901023103922605,-0.4309602443508804
1782811280544964900,5.18896484375,-0.920794410213828,-0.6087105745255946,-0.43643166149929163
1782811280555036700,5.19903662109375,-0.9970324312418699,-0.7530835357554256,-0.34872342129945755
1782811280565107500,5.209107421875,-1.1642203047394752,-0.7372310098461806,-0.22439605375453828
1782811280575179500,5.219179443359375,-1.2769850986540316,-0.3979864877708256,-0.04032660356089472
1782811280585251600,5.22925146484375,-1.422919171720743,0.06705532827153801,0.05674845379069447
1782811280595322600,5.239322509765625,-1.5179145001888275,0.5601103558771312,0.03768734109848738
1782811280605394700,5.249394775390625,-1.325465344184637,0.9101770084790884,-0.042578766401857135
1782811280615466500,5.259466552734375,-0.9395259986907243,0.9758477505244314,-0.10605097548961638
1782811280625537500,5.26953759765625,-0.5715402430385351,0.8425234220534562,-0.2506681207388639
1782811280635609600,5.279609619140625,-0.443272759565711,0.6924728535786271,-0.39901363886147734
1782811280645681700,5.289681640625,-0.4412725256592035,0.5265450631447136,-0.5826011507570743
1782811280655752700,5.299752685546875,-0.33466625437438485,0.4382238056130707,-0.7799833792492746
1782811280665824800,5.30982470703125,-0.07819032413959502,0.46351562938839197,-0.795560449218005
1782811280675896600,5.319896484375,0.2372416529327631,0.6508709693849086,-0.7231830491408705
1782811280685967600,5.329967529296875,0.4197013298422098,0.8630567992553114,-0.6538838874652981
1782811280696039700,5.340039794921875,0.4578425521880388,1.0612767937459051,-0.635599750494957
1782811280706111700,5.35011181640625,0.3926420580029487,1.101765602131188,-0.7438793618194759
1782811280716182800,5.360182861328125,0.1041553710013628,1.0418678905293344,-0.8177557682827115
1782811280726254600,5.370254638671875,-0.15753975518643856,1.0206174510993062,-0.7632523169398308
1782811280736326700,5.38032666015625,-0.22306407449841498,0.9431700542815029,-0.7132530451484024
1782811280746397700,5.390397705078125,-0.13758300882875918,0.7883022947832942,-0.7464828223161399
1782811280756469800,5.4004697265625,-0.03960369611382484,0.6308768136262893,-0.8504569915316998
1782811280766541800,5.410541748046875,-0.031109424012899397,0.5991213467948139,-0.8804970327474176
1782811280776612900,5.42061279296875,-0.03333002267181873,0.6654084671728313,-0.830294931860268
1782811280786684700,5.4306845703125,0.06263795022070408,0.6716697195246816,-0.7589061044290661
1782811280796756700,5.4407568359375,0.12030980246663092,0.6030683308549225,-0.8208632327787577
1782811280806828800,5.450828857421875,0.12573358108103275,0.5589117937423288,-0.9346462638251483
1782811280816899800,5.46089990234375,0.21428455571532248,0.666462652400881,-0.8582854932002723
1782811280826971600,5.4709716796875,0.42643502201139927,0.731648241277784,-0.7231808571837842
1782811280837043700,5.481043701171875,0.7899310650289059,0.715363169170171,-0.5919209138967096
1782811280847114500,5.491114501953125,1.333669693428278,0.6137206577725708,-0.5156390537269413
1782811280857186800,5.501186767578125,1.8509739038884638,0.43333632583245635,-0.50397579620108
1782811280867259000,5.5112587890625,2.1793460265547036,0.18050649701505897,-0.45408071543648837
1782811280877329700,5.52132958984375,2.4889351228177548,-0.1051863214842975,-0.48185383463352915
1782811280887401500,5.5314013671875,2.7042285633146763,-0.26953575668558477,-0.4556451882742345
1782811280897473500,5.5414736328125,2.7461937278628348,-0.3578950081400573,-0.3376308032684028
1782811280907544600,5.551544677734375,2.718335414600372,-0.4864819328255951,-0.3524985559239983
1782811280917616600,5.56161669921875,2.4866899742394684,-0.5376845890574157,-0.28218481037840243
1782811280927688700,5.571688720703125,2.014249572378397,-0.4260976067505777,-0.2205170203641057
1782811280937759700,5.581759765625,1.482093829745054,-0.23668518809378145,-0.2755368967965245
1782811280947831600,5.59183154296875,0.9574316577374935,-0.1339613112002611,-0.36113895849734545
1782811280957903600,5.601903564453125,0.5170598803102969,-0.13111089020520447,-0.47254298545271156
1782811280967974700,5.611974609375,0.32844869503378865,-0.16150062164142726,-0.5871499001026154
1782811280978046700,5.622046630859375,0.31331600783169267,-0.27946269193813206,-0.7355100312724709
1782811280988118500,5.632118408203125,0.303279766985774,-0.4835748132072389,-0.7843032882750034
1782811280998189600,5.642189453125,0.3999450744926929,-0.6282295139878988,-0.7191369886204599
1782811281008261600,5.65226171875,0.26984803750514985,-0.7722245818160474,-0.7351962891481816
1782811281018335500,5.66233544921875,0.8079711641103029,-1.0293851333141326,-0.5387498802013695
1782811281028406500,5.672406494140625,0.13338146548569202,-1.0737179037764668,-0.6240988439239561
1782811281038478600,5.682478515625,-0.7475941445589065,-0.62879620795995,-1.0021275624237953
1782811281048550700,5.692550537109375,-0.6911474501937628,-0.3113846013776958,-0.8359621638417244
1782811281058621700,5.70262158203125,-0.17282850973308087,-0.26793022118508814,-0.3048816492244601
1782811281068694000,5.712694091796875,0.1768652179032564,-0.10788067513480781,0.12992986372709273
1782811281078766000,5.72276611328125,0.283743876388669,0.08205737483128905,0.4242326896615326
1782811281088837000,5.732837158203125,-0.18702128573656082,0.05878112866207957,0.5134473889015615
1782811281098909200,5.7429091796875,-0.8793231666624546,-0.27020065033510327,0.5312560173146427
