time,seconds_elapsed,z,y,x
1782811672296785200,0.07878515625,-0.03732464526593685,-0.428866486942023,0.070241703222692
1782811672306856000,0.08885595703125,0.37050738308429715,-0.3927105931945145,0.21584362172558902
1782811672316928300,0.09892822265625,0.7666191630244255,-0.35423093267455696,0.3804334415540099
1782811672327000000,0.109,1.2765028680950403,-0.28093510257825255,0.5727816214017569
1782811672337070800,0.11907080078125,1.7299001313120126,-0.26185470066368577,0.7246525371715427
1782811672347143000,0.129142822265625,1.9251573304742573,-0.2875283633634448,0.811948104917258
1782811672357215000,0.139215087890625,1.8474924915134905,-0.3385185458883643,0.7583480321548879
1782811672367286000,0.1492861328125,1.7070722134321927,-0.39205242154672737,0.6520011424586176
1782811672377358000,0.159358154296875,1.439350082039833,-0.43569808652773495,0.4996804370947182
1782811672387430000,0.169429931640625,0.9830220260679722,-0.4870044953949749,0.2764928823471069
1782811672397501000,0.1795009765625,0.746649557185173,-0.4535847486130893,0.13944091165512798
1782811672407573000,0.189572998046875,0.793878925871849,-0.39387612984254955,0.07047448906525969
1782811672417645000,0.19964501953125,1.0418915636658668,-0.3363169441908598,0.17134455478563904
1782811672427716400,0.20971630859375,1.203908172005415,-0.23349808249026535,0.30523952275142074
1782811672437788200,0.2197880859375,1.2499673278689383,-0.055269028887897725,0.36283860202208157
1782811672447859200,0.229859130859375,1.267875909525156,0.14350947626829147,0.3549544246435165
1782811672457931300,0.23993115234375,1.2479150715142489,0.2862652115598321,0.2451389820538461
1782811672468003300,0.25000341796875,1.123636365416646,0.43746042002514,0.05592486244812608
1782811672478074400,0.260074462890625,0.883100931635499,0.6164617731742561,-0.1835520021907985
1782811672488146400,0.270146484375,0.4784259060114622,0.9221459709532558,-0.5400988105922937
1782811672498218200,0.28021826171875,0.13525719622969626,1.1393922990836203,-1.018230117571354
1782811672508289300,0.290289306640625,-0.152906250166893,1.3461613646022974,-1.4300880404368042
1782811672518361300,0.300361328125,-0.7407815419346093,1.5196838479489088,-1.7758971817247569
1782811672528433400,0.310433349609375,-1.1833739180207252,1.604061628551781,-1.9906801884815095
1782811672538504400,0.32050439453125,-1.7726508932799099,1.5040668843612075,-1.9979881734073162
1782811672548576300,0.330576171875,-2.638121475678682,1.4186311191380023,-2.0606417595885693
1782811672558648300,0.3406484375,-3.9503351241022346,1.5601387540645897,-2.0681793154865504
1782811672568719400,0.35071923828125,-5.547704853799939,1.570421955408901,-2.0496195764452216
1782811672578791400,0.36079150390625,-7.206661563360691,1.3109446514010428,-2.1600499360628427
1782811672588863500,0.370863525390625,-8.688449688157439,0.9375751568838954,-2.5842536918908356
1782811672598934300,0.380934326171875,-8.843901531153916,0.6122806880973279,-2.962735707116127
1782811672609006000,0.391006103515625,-7.976472800424695,0.2649349848918617,-3.0452853955090045
1782811672619078400,0.401078369140625,-7.077116315037012,-0.4558201064497232,-3.1268408121675253
1782811672629149200,0.411149169921875,-6.063606211724877,-1.305365974485874,-3.149795571297407
1782811672639221200,0.42122119140625,-4.810728549367189,-2.269697328609228,-2.933475418101251
1782811672649293300,0.431293212890625,-3.6993244735360142,-3.3871725410476325,-2.601645848457515
1782811672659364000,0.441364013671875,-2.1677643098324535,-4.238953620789945,-2.126892639609426
1782811672669436200,0.451436279296875,-0.05537175861001015,-4.588021033221483,-1.4801419650249181
1782811672679508200,0.46150830078125,1.7055659005224704,-4.6616175998300315,-0.7925457775719463
1782811672689579300,0.471579345703125,2.095251446807384,-4.7127629729166625,-0.42681978354528544
1782811672699651300,0.4816513671875,1.7045049932926892,-4.393458538325131,-0.5618118990980089
1782811672709723100,0.49172314453125,1.0571943467378615,-3.2510897076487537,-0.7716035273082554
1782811672719794200,0.501794189453125,-0.18984686455130576,-1.5523394784905016,-0.771853264285624
1782811672729866200,0.5118662109375,-1.1367179653078316,0.22981690975949168,-0.40659561842307446
1782811672739938300,0.521938232421875,-1.4919120439261198,1.6007396445222197,0.2100390271000564
1782811672750009300,0.53200927734375,-1.255949324887991,2.6886101384222507,1.4619906606540083
1782811672760081400,0.542081298828125,-0.6935352221131325,3.401310079732537,3.0028771633684634
1782811672770153200,0.5521533203125,0.47033144688308237,3.353961468580365,3.6595232090234755
1782811672780224300,0.562224365234375,2.1661264794975517,2.7376564934030174,3.477432073165476
1782811672790296300,0.57229638671875,3.6059511933118102,1.863505614811927,3.2760011538043616
1782811672800367400,0.582367431640625,4.502452873790264,1.148200678635016,3.3026784405887124
1782811672810439400,0.592439453125,4.673427864611148,0.6989509635515511,3.197825150451064
1782811672820511200,0.60251123046875,4.080062743255496,0.22440913243182004,2.807246454718709
1782811672830582300,0.612582275390625,3.2738065663695335,-0.09138349464647472,2.3206574082568285
1782811672840654300,0.622654296875,2.9158278254687784,-0.17302834315411744,1.9470066125802694
1782811672850726400,0.632726318359375,3.4718402445077894,-0.1689659160207957,1.8509303570076823
1782811672860797200,0.642797119140625,4.60147321999073,-0.23548772193752227,2.031923322365433
1782811672870869500,0.652869384765625,5.837109824690223,-0.14369593875110148,2.3506020262740552
1782811672880941300,0.66294140625,6.672868574914336,0.08162621687240898,2.6876591213077305
1782811672891012000,0.67301220703125,7.074046406072378,0.24679062171839175,2.966405335539579
1782811672901084200,0.683084228515625,7.113100067088007,0.35310207477509975,3.1315789466053245
1782811672911156200,0.69315625,6.644528615614772,0.35870990471951664,3.1362288182377815
1782811672921227300,0.703227294921875,6.008928865119815,0.3569554622676223,3.0939678856134414
1782811672931299300,0.71329931640625,5.553572869050503,0.43421281640604137,2.948687600280344
1782811672941371100,0.72337109375,5.277259434923529,0.5591497672166675,2.642975929972529
1782811672951442200,0.733442138671875,5.024312847858667,0.7210682489439845,2.3236716415114698
1782811672961514200,0.74351416015625,4.818861586940288,0.9354662019059061,1.984171391109377
1782811672971586300,0.75358642578125,4.79966822617054,0.9906478447712957,1.568357131833583
1782811672981657300,0.7636572265625,4.972362880390882,0.7566428356721997,1.2049487670995294
1782811672991729200,0.773729248046875,5.177361136844754,0.40757118545696136,1.0087162931643425
1782811673001801200,0.78380126953125,5.260916202887892,0.1608750370889902,0.7890892073772847
1782811673011872300,0.793872314453125,4.903262456157803,0.06665405399426817,0.635257366798073
1782811673021944300,0.8039443359375,3.9809751770377155,0.21228753667920827,0.5143092664279043
1782811673032016400,0.814016357421875,2.5192986968994138,0.4046554441407323,0.1627509139634669
1782811673042087400,0.82408740234375,0.49596331626772877,0.4959998488858342,-0.3446289915926754
1782811673052159200,0.8341591796875,-2.1415163543760776,0.7228257601357996,-0.838721107161045
1782811673062231300,0.844231201171875,-4.992826991748809,1.0990861537888645,-1.3552571097277104
1782811673072302300,0.85430224609375,-7.476445303457975,1.5989732193715869,-1.728015925000608
1782811673082374400,0.86437451171875,-9.134445150685309,1.7306722847282885,-1.5904570276997982
1782811673092445400,0.874445556640625,-9.775758602651953,0.9658820906966924,-0.934615284164995
1782811673102517200,0.884517333984375,-9.999366867029666,-0.4181643295332789,-0.6809532423071563
1782811673112589300,0.89458935546875,-9.313851869764923,-2.003431825765967,-1.4982723727382719
1782811673122660400,0.904660400390625,-7.44549545392096,-3.3518934301346537,-3.1885861974626777
1782811673132732400,0.914732421875,-6.167042620801925,-4.410557849425077,-3.695936000141501
1782811673142804500,0.924804443359375,-6.232052560850978,-5.752007529205083,-2.8026243478760122
1782811673152875300,0.934875244140625,-7.247710782107711,-6.434517499434947,-2.148586877284199
1782811673162947000,0.944947021484375,-8.775893578332662,-6.111544605463743,-2.3544459883511064
1782811673173019100,0.95501904296875,-10.65546813828349,-5.035826760041713,-2.875418073669076
1782811673183090200,0.965090087890625,-12.348359266149997,-3.9163922302290795,-3.3179356309533117
1782811673193162200,0.975162353515625,-12.469181109791993,-3.017236820371449,-3.576372339867055
1782811673203234300,0.985234375,-10.936929456692933,-2.317927983292937,-3.3507004209578035
1782811673213305300,0.995305419921875,-8.523216455858945,-1.686060697324574,-2.6516107795879242
1782811673223377200,1.005377197265625,-5.493036275023222,-0.9410650448262691,-1.8696730514004825
1782811673233449200,1.01544921875,-2.5221342125862836,-0.5079010068207979,-1.415925951832533
1782811673243520300,1.025520263671875,0.2807464481383562,-0.7617498034223914,-1.4390885084941982
1782811673253592300,1.03559228515625,2.516635615170002,-1.1794345327451825,-1.4457092418082058
1782811673263664000,1.0456640625,3.7805584031552075,-1.756604306103289,-1.5637451079934834
1782811673273735200,1.055735107421875,4.328990742328763,-2.170860230021179,-1.5705084646485745
1782811673283807200,1.06580712890625,4.811252865502238,-2.2294646869421,-1.3728512186072765
1782811673293879300,1.07587939453125,5.542652246585488,-2.028653068523109,-0.9613868251040577
1782811673303950300,1.085950439453125,6.1386342724412675,-1.6012953787088393,-0.5243707878455519
1782811673314022400,1.0960224609375,6.415259841257333,-0.9536112226665019,0.1477864229351282
1782811673324093400,1.106093505859375,6.781241855871677,-0.1197533376276493,0.9482451655887066
1782811673334165200,1.116165283203125,7.233926586905121,0.7076008646056056,1.7345463496826588
1782811673344237300,1.1262373046875,7.599069228085875,1.331465899773687,2.3815189964547754
1782811673354308400,1.136308349609375,7.824237581387162,1.7567725022770464,2.731642639940977
1782811673364380400,1.14638037109375,7.778227525362372,1.9842273590803146,2.8124411007523533
1782811673374452500,1.156452392578125,7.515947292762994,1.9879700527399777,2.8192092797130344
1782811673384523300,1.166523193359375,7.004911495047807,2.0155441422335802,2.767047715321183
1782811673394595300,1.17659521484375,6.37999855826199,1.9175135377228258,2.624317114470899
1782811673404667400,1.18666748046875,5.795060488989949,1.8694974025726316,2.518172323217988
1782811673414738200,1.19673828125,5.377698415750265,1.9384256851091979,2.414916239143908
1782811673424810200,1.206810302734375,5.21153579364717,2.026710556153208,2.333737839104235
1782811673434881800,1.2168818359375,5.296626398694515,2.212500546529144,2.1895545552276072
1782811673444952800,1.226952880859375,5.695661957126855,2.2770504678510126,1.889865798471123
1782811673455024600,1.237024658203125,6.249004280173778,2.2086717820212245,1.599149306590855
1782811673465096700,1.2470966796875,7.000977662730216,2.0429156948924065,1.3886594669833778
1782811673475167700,1.257167724609375,7.646036730965972,1.7181183619730174,0.9549560614041983
1782811673485239800,1.26723974609375,7.816671530047058,1.4563190447583794,0.4910549398295581
1782811673495311600,1.2773115234375,7.661047837615013,1.2354577410012484,0.038975335082411765
1782811673505382700,1.287382568359375,7.321893039649725,1.0280055155239998,-0.3660447045870125
1782811673515454700,1.297454833984375,6.381320162254571,0.8295349072732031,-0.6356238620229065
1782811673525525800,1.30752587890625,4.849520929098129,0.48272243416160343,-0.8301030625499785
1782811673535597800,1.317597900390625,3.0918969245582817,0.17400661360174416,-0.965536053737998
1782811673545670000,1.327669921875,1.200235620972514,0.2840681399069726,-0.9172807030044495
1782811673555741000,1.337740966796875,-0.772464966443181,0.7467997793108224,-0.8670606280691922
1782811673565812700,1.347812744140625,-2.5403800633728504,1.307228115095943,-0.9718094349190592
1782811673575884800,1.357884765625,-4.342492028936744,1.9217030983671546,-1.1697574806004762
1782811673585955800,1.367955810546875,-6.498627275773883,2.10891113884747,-1.185801583559066
1782811673596028000,1.37802783203125,-8.844028956925868,1.6036156383499502,-1.3324677702926098
1782811673606100000,1.388099853515625,-11.022136381596326,0.0737318834260106,-1.54017776992321
1782811673616171000,1.3981708984375,-11.929711829274892,-2.1775787246212364,-1.3585842083238064
1782811673626242800,1.408242919921875,-10.774557459044455,-4.370404410474002,-1.0776730711430311
1782811673636315000,1.41831494140625,-8.152040964254736,-5.862020394062996,-1.5960181689582764
1782811673646385700,1.4283857421875,-5.899067975953221,-6.656580872458219,-2.737301396355033
1782811673656458000,1.4384580078125,-5.558304573747515,-7.472037423887849,-2.802809349054098
1782811673666528800,1.44852880859375,-6.276113820895552,-8.106355317878723,-1.9366225812099873
1782811673676600600,1.4586005859375,-7.138129878926277,-8.2611384678334,-1.891536362031847
1782811673686672600,1.468672607421875,-7.760304915180802,-8.088366072201728,-2.9096915146708486
1782811673696743700,1.47874365234375,-9.376890802001952,-7.047998941624164,-3.368762147349119
1782811673706815700,1.488815673828125,-12.024875500047207,-5.269309352701902,-2.92706204392761
1782811673716887800,1.4988876953125,-13.766760083663463,-3.527629059486091,-2.247388904558867
1782811673726958800,1.508958740234375,-13.715282409882544,-1.9980524708151817,-1.5542133095383643
1782811673737030700,1.51903076171875,-11.487456722319125,-0.7462050282880663,-0.962664736085385
1782811673747102700,1.529102783203125,-8.164514661380649,0.056311085286736486,-0.6461687830433249
1782811673757173800,1.539173828125,-4.729309910830855,0.2632058230116963,-0.38854382890388367
1782811673767245800,1.549245849609375,-1.2283686595231293,0.20120587843358514,-0.12955138580352069
1782811673777318000,1.55931787109375,1.8978122274309395,0.2099836436510086,0.3004205781623721
1782811673787389000,1.569388916015625,4.373193456670641,0.35634997065514323,0.793235659532249
1782811673797460700,1.579460693359375,5.839242745065689,0.585403056435287,1.1704340646877884
1782811673807532800,1.58953271484375,6.236574422189593,0.9940466934293508,1.5818106337770819
1782811673817603800,1.599603759765625,5.751757938358187,1.5623448858067392,1.9020443120427428
1782811673827676000,1.609676025390625,4.849892685019969,1.9217136197611688,2.0425496380589903
1782811673837747000,1.619746826171875,4.040097812613845,2.184135160527378,2.0985275458686052
1782811673847818800,1.62981884765625,3.6963551023364065,2.471111881357431,2.356969515479356
1782811673857890800,1.639890869140625,3.9798236689150333,2.700706234407425,2.7491467324495313
1782811673867961900,1.6499619140625,4.777005143463612,2.7595903850525616,2.968712735699117
1782811673878034000,1.660033935546875,5.5307496273458,2.5282775376468893,2.77287247595191
1782811673888106000,1.67010595703125,6.172524267083406,2.165664853335172,2.2892454941660163
1782811673898176800,1.6801767578125,6.777265353456139,1.9497252238892018,2.0829821862123907
1782811673908248800,1.690248779296875,7.211900048536062,1.8441065023370087,1.9415761119641362
1782811673918321000,1.70032080078125,7.378787477782368,1.7685628933139144,1.7432812986716628
1782811673928391700,1.7103916015625,7.4405907307446,1.7095080622769891,1.6618341646932064
1782811673938463700,1.720463623046875,7.317631290552019,1.700944232071191,1.5966051750659942
1782811673948535800,1.730535888671875,6.892671601790189,1.7224113829918204,1.497408449385315
1782811673958606600,1.740606689453125,6.34185908948183,1.7419450816318391,1.4015784236587583
1782811673968678700,1.7506787109375,5.995584230378269,1.7408694152243434,1.2563695961266754
1782811673978750700,1.760750732421875,5.918669333001971,1.700509640046209,0.9816317407533526
1782811673988821800,1.77082177734375,6.190639769488572,1.4250624673597514,0.6931009223490953
1782811673998893800,1.780893798828125,6.462976701200008,1.0752686403498053,0.4571482863135636
1782811674008964900,1.79096484375,6.353820745432376,0.7817221857406198,0.27069267163574695
1782811674019036700,1.80103662109375,5.9039317825973034,0.468442856657505,0.1336284259840846
1782811674029108700,1.811108642578125,5.094451967489719,0.2786070980221033,0.016936667884141207
1782811674039179800,1.8211796875,4.10127971880734,0.330602073675394,0.015395722052454947
1782811674049251800,1.831251953125,3.1188743633329867,0.4133163049802184,0.010117635519057512
1782811674059324000,1.841323974609375,2.5526737277567384,0.28282237762957807,-0.27904037487283345
1782811674069395000,1.85139501953125,2.270393494179845,0.033037177205085755,-0.9209159907668828
1782811674079466800,1.861466796875,0.8333487664729357,0.11942074467241763,-1.515026669792831
1782811674089538800,1.871538818359375,-1.6066098517298697,0.6621151247158646,-1.8367841966249048
1782811674099609900,1.88160986328125,-4.0113825902611016,1.0406383487343787,-2.090586815997213
1782811674109682000,1.891681884765625,-6.075647947174311,1.050702938891947,-2.3846971880994734
1782811674119753700,1.901753662109375,-7.499583017939329,0.6242562264427542,-2.19062700676471
1782811674129824800,1.91182470703125,-8.381212707978486,-0.5108589798435569,-1.4706237567037344
1782811674139896800,1.921896728515625,-9.536505609896778,-1.38311644590348,-0.6293666282590479
1782811674149967600,1.931967529296875,-10.18174003469944,-1.3304574533835052,-0.06655680416487157
1782811674160040000,1.9420400390625,-9.695666244283318,-0.9028440352424979,-0.38348807988427575
1782811674170112000,1.952112060546875,-8.68011148340106,-0.4777689034074545,-1.133099555614963
1782811674180182800,1.962182861328125,-8.187101756241917,-0.5523132722601294,-1.4310875728681682
1782811674190254600,1.972254638671875,-8.343580019676685,-1.3714818299502134,-1.308461164022237
1782811674200326700,1.98232666015625,-8.586045544737576,-2.4244433614239096,-1.1030730314679442
1782811674210397700,1.992397705078125,-8.253421609845757,-3.389721348747611,-1.2659369042865931
1782811674220469800,2.0024697265625,-7.416223182207346,-4.172529137767851,-1.7338281184107065
1782811674230541800,2.012541748046875,-6.779316440767049,-4.735860063126683,-2.4137707223705944
1782811674240612900,2.02261279296875,-5.942029165801405,-4.837850072787702,-2.892702385947108
1782811674250684700,2.0326845703125,-4.746328850170969,-4.705182893051207,-3.004025164359808
1782811674260756700,2.0427568359375,-3.4495571010291575,-4.2937589776888485,-2.7984835948094724
1782811674270827800,2.052827880859375,-1.866512833803892,-3.411034185889363,-2.4033495738603174
1782811674280899800,2.06289990234375,-0.27535423370599743,-2.1405565694332123,-1.8921831355027854
1782811674290971000,2.072970947265625,1.254248366189003,-0.8731237275004387,-1.2752379627257584
1782811674301042700,2.083042724609375,2.701078574851155,0.12734160079956053,-0.6505458290837705
1782811674311114800,2.09311474609375,3.6661511027306317,0.6565645048514008,-0.23972587096393108
1782811674321185800,2.103185791015625,4.190192512491345,0.7131029691532254,-0.15997092785611747
1782811674331257900,2.1132578125,4.261839114075899,0.642875002194941,-0.2853945662051439
1782811674341330000,2.123329833984375,4.270269088768959,0.6411907023698091,-0.33082828364670275
1782811674351401000,2.13340087890625,4.6252895643860095,0.6546176085673272,-0.17795841996744274
1782811674361472800,2.14347265625,5.190286669391393,0.6016504268810152,0.25584011654928324
1782811674371544800,2.153544921875,5.619716781565547,0.549619941522926,0.8660971898645162
1782811674381615900,2.163615966796875,5.916070548680424,0.5523385528318584,1.4382263387069105
1782811674391688000,2.17368798828125,6.316858503738045,0.602840805709362,2.046782307192683
1782811674401759700,2.183759765625,6.691418377083539,0.7498873700626194,2.660074948811531
1782811674411830800,2.193830810546875,6.73675623293519,0.7471320800051092,3.221007288596034
1782811674421902800,2.20390283203125,6.6465919778853655,0.5350336361572147,3.4881162565261126
1782811674431974100,2.21397412109375,6.714267337751388,0.27634192956909537,3.3887609792828557
1782811674442046200,2.224046142578125,7.193992635923624,0.1495572319999337,3.160333039663732
1782811674452118300,2.2341181640625,7.628528546804189,0.2397112579166889,3.0819039383322
1782811674462189300,2.244189208984375,7.592461208122968,0.3994015422005206,3.1857834150016306
1782811674472261000,2.25426123046875,7.459383694019913,0.5788817649077623,3.3282211703851816
1782811674482333200,2.264333251953125,6.740089176750183,0.7685952123377472,3.545191311922669
1782811674492404200,2.274404296875,5.172068291133642,0.8373214694961905,3.632908466081321
1782811674502476300,2.284476318359375,4.005076183593273,0.8375011369120329,3.4757059800252317
1782811674512548000,2.294548095703125,3.772949681717157,0.7030712583519518,3.2006060133412477
1782811674522619100,2.304619140625,4.270998572087287,0.11015921452604234,2.77633138423413
1782811674532691200,2.314691162109375,4.626365669184923,-0.5441504971358925,2.3364596652835607
1782811674542762000,2.324761962890625,4.049235058793426,-0.9015035073537379,1.862146747548878
1782811674552834300,2.334834228515625,2.701179697138071,-0.8034107243269681,1.3556418712615965
1782811674562906400,2.34490625,1.026105965512991,-0.28601394021250304,0.8763371365889906
1782811674572977200,2.35497705078125,-0.6626420711994171,0.42774946561083194,0.4078717758387327
1782811674583049000,2.365049072265625,-2.257432890319824,1.0372795398257673,0.02300181314200163
1782811674593121000,2.37512109375,-3.693877898567915,1.667577676781267,-0.3011006693810224
1782811674603192000,2.385192138671875,-5.10250609460771,2.183433295868337,-0.7441270529702305
1782811674613264100,2.39526416015625,-6.195465582209825,2.041657511524856,-1.2402050816588104
1782811674623336200,2.405336181640625,-7.04817488271296,0.8088311419405043,-1.5905319926321506
1782811674633407200,2.4154072265625,-7.985149443355202,-0.8109254838712513,-1.2956496132440865
1782811674643479000,2.42547900390625,-9.504963639685512,-2.3085353010475633,-0.1588726112253964
1782811674653551000,2.435551025390625,-10.842311729365587,-3.7227535721793767,1.1609172446060925
1782811674663622100,2.4456220703125,-11.607861217331886,-4.203134119389951,1.0092119677267968
1782811674673694200,2.455694091796875,-11.91116027354002,-3.0654312346979973,-0.9069782855030148
1782811674683765200,2.46576513671875,-12.698501906597613,-1.7496593092709778,-2.4933032548993825
1782811674693837000,2.475837158203125,-13.73254217224121,-1.6447349997237324,-2.773817647847533
1782811674703909000,2.4859091796875,-14.066030615007877,-2.209398342730105,-2.2576707907289264
1782811674713980200,2.495980224609375,-13.768293869102001,-2.586051388962567,-2.284648083373159
1782811674724052200,2.50605224609375,-12.961338019514082,-2.679142637374997,-3.0287989556103945
1782811674734124300,2.516124267578125,-11.265134990620613,-2.710036665071547,-3.677752108675241
1782811674744195300,2.5261953125,-8.526361768147348,-2.9192344190418718,-3.7718344139516353
1782811674754267100,2.53626708984375,-4.942757431200146,-3.250618290744722,-3.3742344412803646
1782811674764339200,2.546339111328125,-1.3522703490018844,-3.1793066202029583,-2.6285499297350645
1782811674774410200,2.55641015625,1.500986746263504,-2.55726894659251,-1.7649796279996632
1782811674784482300,2.566482421875,3.5218688885241747,-1.5333549381658433,-0.816722479712218
1782811674794553000,2.576552978515625,4.478353620800376,-0.2206035296037793,0.07281213823258877
1782811674804625200,2.586625244140625,4.349840638133883,0.913854674078524,0.5557086868520825
1782811674814697200,2.596697265625,3.909339096847176,1.6118939296126364,0.5852043189927936
1782811674824768000,2.60676806640625,3.6537265054434536,2.075921892437339,0.4160448531612754
1782811674834840000,2.616840087890625,3.472631687146425,2.398151566825807,0.24796982156559824
1782811674844912000,2.626912109375,3.4579794769376515,2.54182587826699,0.19513547247871754
1782811674854983200,2.636983154296875,3.9425615674912926,2.387583995582163,0.30803003025278447
1782811674865055000,2.647054931640625,4.819447862395644,1.9258900286629794,0.5174138083145022
1782811674875127000,2.657126953125,5.706504253658652,1.4561755446344613,0.7327119249865413
1782811674885198000,2.667197998046875,6.601410773900151,1.0562399686224757,1.0139594545148312
1782811674895270100,2.677270263671875,7.197874445793032,0.8008272837050259,1.37443001223132
1782811674905342200,2.68734228515625,7.478509834772348,0.6919448841817677,1.7127565426789224
1782811674915413200,2.697413330078125,7.604272057425975,0.5927195169284939,1.9082235851995646
1782811674925485000,2.707485107421875,7.4717498391181225,0.4902519528836012,1.864843731547892
1782811674935556000,2.71755615234375,7.336703655290603,0.6659735537096858,1.8480961564950644
1782811674945628200,2.727628173828125,7.469926130822301,0.9328609878435731,1.8449029134117065
1782811674955700200,2.7377001953125,7.711114475554227,0.9199787099167704,1.7521704153090714
1782811674965771300,2.747771240234375,7.824993952712417,0.8219384607948362,1.6609702413402496
1782811674975843000,2.757843017578125,7.69190065651834,0.8204192884035408,1.6567732280418275
1782811674985915100,2.7679150390625,7.383492294472456,0.8757512995250523,1.6531497768476604
1782811674995986200,2.777986083984375,7.192071896994113,0.9025500207319855,1.6465842808522284
1782811675006058200,2.788058349609375,7.288526192098855,0.8722098275259137,1.6490176454789935
1782811675016130300,2.79813037109375,7.510227161550522,0.601415010689944,1.6253429015114902
1782811675026201300,2.808201416015625,7.471725289198756,0.10763882920295,1.5321145827159284
1782811675036273200,2.818273193359375,6.941378641813993,-0.32396248953044415,1.2557947188481688
1782811675046344000,2.828343994140625,6.326898251715302,-0.5234959047071636,0.8766602310635149
1782811675056416300,2.838416259765625,5.4515474958151575,-0.6278000365294516,0.3855905320562422
1782811675066488300,2.84848828125,2.8725638532817364,-0.43270986449718474,-0.38604850495681164
1782811675076559000,2.85855908203125,-0.4081932628780603,0.34067294744327664,-0.47359527098461984
1782811675086631200,2.868631103515625,-3.5465783823668953,1.2171442318059504,-0.4907024731300771
1782811675096703000,2.878702880859375,-5.835531615588069,1.9738716770216822,-0.6675219521954655
1782811675106774000,2.88877392578125,-6.945068728503585,2.449313014264405,-1.091629115781188
1782811675116846000,2.89884619140625,-7.213204701393842,2.153304115064442,-1.8333219273418186
1782811675126918100,2.908918212890625,-5.991466273665428,0.7580991719603538,-2.493742230838537
1782811675136989200,2.9189892578125,-5.037877262830734,-1.213973346684873,-2.4825229176878927
1782811675147061000,2.92906103515625,-5.297276387035846,-3.1302061969473955,-1.6483330242156982
1782811675157132000,2.939132080078125,-5.565324681642651,-4.999616798019409,0.25667251225281507
1782811675167204000,2.9492041015625,-5.587693749839067,-6.492617806226015,2.6060227483674883
1782811675177276200,2.959276123046875,-6.488229215878248,-6.675176851856708,3.329366248767078
1782811675187347200,2.96934716796875,-8.459186759018898,-5.1272740406394,2.1496368247285482
1782811675197419300,2.979419189453125,-11.017082605338096,-3.6912130632728335,0.5127030733402819
1782811675207491000,2.989490966796875,-13.408406079709529,-3.4905160111442206,-0.4178003185264766
1782811675217562000,2.99956201171875,-15.250794526082277,-3.514087440867722,-1.1243310696825384
1782811675227634200,3.00963427734375,-15.90450860993862,-3.2472040983870625,-2.272565285260975
1782811675237706200,3.019706298828125,-14.73419758710861,-3.285019742040336,-3.6400922401055693
1782811675247777300,3.02977734375,-11.888707618713378,-3.6325402172908183,-4.300594961188733
1782811675257849300,3.039849365234375,-8.16870685237348,-3.8474423203825947,-3.9441786472991107
1782811675267920100,3.049920166015625,-4.284101799288392,-3.6383421815678476,-3.0993893261402845
1782811675277992200,3.0599921875,-0.6835632786750793,-3.041070700423419,-2.1962357865571973
1782811675288064300,3.070064208984375,2.216406467926502,-2.2328940768688916,-1.4028386528529226
1782811675298135000,3.080135009765625,4.216608810251951,-1.4194266534298658,-0.7188611673537642
1782811675308207400,3.090207275390625,5.309692216494679,-0.5526844436600804,-0.13682108454555272
1782811675318279200,3.100279052734375,5.444859396353364,0.25414631824344397,0.10198153409361839
1782811675328350000,3.110349853515625,4.886975922745466,0.8339452710613607,0.14733699866719543
1782811675338422000,3.120422119140625,4.18130485715866,1.2449646972760557,0.06426189816072583
1782811675348494000,3.130494140625,3.6268203783392905,1.4721975818917155,0.04131597992442548
1782811675358565000,3.140565185546875,3.6561171999722717,1.469834506022185,0.26104236136749387
1782811675368637200,3.15063720703125,4.173539483854174,1.2383517088770866,0.5883057921394705
1782811675378708200,3.160708251953125,5.0282612932235,0.8950470977559685,0.8470895609252155
1782811675388780000,3.170780029296875,6.156352299961448,0.44530748026371,1.0671744734823703
1782811675398852000,3.18085205078125,7.024052248847484,0.0480265104137361,1.2950624610058963
1782811675408923100,3.190923095703125,7.492042685562372,-0.023589988293498752,1.485568812379241
1782811675418995200,3.2009951171875,7.574950101351738,0.19874913293123245,1.6526503028929234
1782811675429067000,3.21106689453125,7.67804456512332,0.37555882125496864,1.7588738584704695
1782811675439138000,3.221137939453125,7.95251617077589,0.6047530690714716,1.8317063088387249
1782811675449209900,3.2312099609375,7.989228821623325,0.8364283200487495,1.872734192536771
1782811675459282000,3.241281982421875,7.714068064662814,1.100164158283919,1.8499582971051334
1782811675469353000,3.25135302734375,7.357312728077173,1.2982657870918513,1.8155489547640085
1782811675479425000,3.261425048828125,6.94563571473658,1.2605569648139179,1.8317291051924227
1782811675489496000,3.27149609375,6.2507198519200085,1.0057451683990657,1.880786712219566
1782811675499567900,3.28156787109375,5.621925689786672,0.6997548272803426,1.8506433567598461
1782811675509640000,3.291639892578125,5.746266355204582,0.6036556292235851,1.8445355414040385
1782811675519711000,3.3017109375,6.047639996308088,0.695007632753253,1.8182348328471183
1782811675529783000,3.311782958984375,5.682671542650461,0.9192040722824633,1.830192543274909
1782811675539855000,3.321855224609375,5.029180161634088,1.0917290690243244,1.934277625519037
1782811675549926000,3.33192578125,4.42433619940877,1.1633462983839213,2.042928408243507
1782811675559997700,3.341997802734375,3.838784382152557,1.0469305807463825,2.0177301079705354
1782811675570069800,3.35206982421875,2.7321429906785486,0.9648694065228104,2.04311384781301
1782811675580140800,3.362140869140625,0.88736969499588,1.220580051473528,1.9028261100701986
1782811675590212900,3.372212890625,-1.621574196627736,1.8597905398115515,1.404478090623021
1782811675600284000,3.382283935546875,-4.273278791978955,2.519692664653063,0.7889322632499038
1782811675610356000,3.39235595703125,-6.855394302797317,2.367631925399601,0.194764447209239
1782811675620427800,3.402427734375,-8.660140708518028,1.2765700881123543,-0.5268347302736714
1782811675630498800,3.412498779296875,-9.650524787786603,-0.16810060442835092,-0.9668303313322365
1782811675640571000,3.42257080078125,-9.914214887183904,-1.766836069521308,-0.737086632939428
1782811675650643000,3.432642822265625,-9.842130478703975,-3.1267695004969833,0.07335364296445622
1782811675660714000,3.4427138671875,-9.834061738538741,-3.2349750236719843,0.5484359924353659
1782811675670785800,3.452785888671875,-8.977997282388806,-2.06520439132899,-0.21526273483140393
1782811675680856800,3.46285693359375,-7.4721139962553975,-0.9954586060538887,-1.0693098050106316
1782811675690929000,3.472928955078125,-7.480865457987785,-0.6537172987267375,-0.8528026778750121
1782811675701001000,3.4830009765625,-8.449611121422052,-0.9518024196788668,-0.10119504162473604
1782811675711072000,3.493072021484375,-9.181172999590634,-1.284733813084662,-0.10356668439321219
1782811675721144000,3.50314404296875,-9.520493801772593,-1.0280904173284768,-1.0708027469821273
1782811675731216000,3.5132158203125,-9.305604265901446,-0.7854401833504437,-2.3348583675667642
1782811675741287000,3.523286865234375,-8.113212928688526,-1.061313180233538,-3.265931887471676
1782811675751359000,3.53335888671875,-6.181442317554354,-1.5817518893271685,-3.5090336646094915
1782811675761431000,3.54343115234375,-3.726696464586258,-1.8580936727657913,-3.1401445303767916
1782811675771502000,3.553502197265625,-1.243313715198636,-1.6221481971234082,-2.650402572841942
1782811675781574000,3.563573974609375,1.1475900724560022,-0.8654927942305802,-2.102518661331385
1782811675791645000,3.57364501953125,3.3162557150423524,0.12291969270408153,-1.399906106532365
1782811675801716700,3.583716796875,4.836014966315031,1.1559352914750576,-0.6154079532723874
1782811675811788800,3.593788818359375,5.0751013703316445,1.6940134098947046,-0.273151609095186
1782811675821859800,3.60385986328125,4.332476246356964,2.0299410625070333,-0.35661059435270726
1782811675831932000,3.613931884765625,3.3271915350764987,2.494032738217711,-0.3370717080809176
1782811675842003700,3.624003662109375,2.611775320544839,2.614072491571307,-0.1913952630370855
1782811675852074800,3.63407470703125,2.393631166791916,2.4111910811409354,0.0753081928320229
1782811675862146800,3.644146728515625,2.394235562425852,2.0780708871647713,0.39982378620058295
1782811675872219000,3.654218994140625,2.3880308625668287,1.8737112208753823,0.6017363515987992
1782811675882290000,3.6642900390625,2.5907997525334356,1.7302204493075608,0.8612119020409882
1782811675892362000,3.674362060546875,3.090307025018334,1.3155628127209842,1.1620904531039298
1782811675902433000,3.68443310546875,3.786283210542798,0.5898837089806794,1.2572339578710496
1782811675912504800,3.6945048828125,4.785726794579625,-0.07634601144716144,1.1935434298574923
1782811675922577000,3.704576904296875,5.673577551090717,-0.3993251890286803,1.0986943779923022
1782811675932648000,3.71464794921875,6.220687117227912,-0.41326618222817774,1.1320235238812864
1782811675942720000,3.724719970703125,6.332728857564926,-0.24015856329277158,1.3622849625378846
1782811675952791800,3.734791748046875,6.187905376088619,0.045450668576359744,1.6765630934000015
1782811675962862800,3.74486279296875,5.826767294374108,0.3050112669534981,1.8966181953407824
1782811675972935000,3.754934814453125,5.4169332785516975,0.28037366930320856,1.9168292087204752
1782811675983006000,3.765005859375,5.189998500099778,-0.024522008446604012,1.8026390581779181
1782811675993078000,3.775078125,5.1235143958449365,-0.4144223665259778,1.6401842045515775
1782811676003150000,3.785150146484375,5.236652114725112,-0.775654117873311,1.4620418063193559
1782811676013221000,3.79522119140625,5.287168249997496,-1.0320242496460676,1.3949154586382209
1782811676023293000,3.80529296875,5.149838923668861,-1.0772490005120634,1.3765297609895466
1782811676033365000,3.815364990234375,4.779345569109917,-1.1805353335939348,1.3958135765217243
1782811676043435800,3.825435791015625,4.128814791464805,-1.549361923984438,1.3890420365601777
1782811676053507800,3.8355078125,3.274402778697014,-2.0838781121388075,1.2898589010134338
1782811676063580000,3.845579833984375,2.082176861178875,-2.4213776902429758,1.1506843852095305
1782811676073651000,3.85565087890625,0.4773924713104963,-2.4407819172844287,1.0014768434301018
1782811676083722800,3.86572265625,-1.2000374680519104,-2.4009094872318206,1.2125050276979803
1782811676093793800,3.875793701171875,-2.236792837873101,-2.380409866169095,1.788033463589847
1782811676103865900,3.885865966796875,-3.4298791716128587,-2.41554635374099,2.3293717528492213
1782811676113938000,3.89593798828125,-5.772618940079212,-2.3512591750085354,2.2212183982528746
1782811676124009000,3.906009033203125,-7.956583858606219,-1.879939009349048,1.2573610913820563
1782811676134080800,3.916080810546875,-9.20451120508015,-1.5269649448677896,-0.023885829434916375
1782811676144152800,3.92615283203125,-9.834576117801666,-1.8864263255417346,-0.6205570065986364
1782811676154223900,3.936223876953125,-10.198189649719,-2.8547096321612595,-0.23931254092268645
1782811676164296000,3.9462958984375,-10.670044945168495,-3.398167105531692,0.24867862742207944
1782811676174367000,3.956366943359375,-10.051351905810833,-3.0670386698946355,-0.2358565552499145
1782811676184439000,3.96643896484375,-7.836283408489823,-2.3383029550626873,-1.7014312849357722
1782811676194510800,3.9765107421875,-5.476386168995499,-1.896611911730468,-2.3921187164023516
1782811676204582000,3.986581787109375,-4.0601726323932406,-1.943610686531663,-2.0402339084625245
1782811676214654000,3.996654052734375,-4.082711796459555,-1.544741716837883,-1.490490194429457
1782811676224726000,4.00672607421875,-5.66508678612113,-0.13959639447778463,-1.4227781558148562
1782811676234797000,4.016797119140625,-7.463651872858405,1.1870493916630744,-1.9717294042959808
1782811676244869000,4.026869140625,-7.826613662868738,1.5939610902979968,-2.562269823619723
1782811676254941000,4.03694091796875,-6.967603216394782,1.1746411609888077,-2.7716534555509686
1782811676265012000,4.047011962890625,-5.306369209551811,0.5736839770689607,-2.54063228456825
1782811676275084000,4.057083984375,-3.0422160710662602,0.17292700167149305,-2.197894951941073
1782811676285154800,4.06715478515625,-0.4089215771526098,0.0267065128788352,-1.8760491623036561
1782811676295227000,4.077226806640625,1.987413587900996,-0.09498685290068387,-1.4511477796003223
1782811676305298700,4.087298583984375,3.7740368924319743,-0.1741641422510147,-1.0308554250624031
1782811676315369700,4.09736962890625,4.933109897410869,-0.1976274354249239,-0.7120685115389526
1782811676325441800,4.10744189453125,5.361010315799713,-0.2742205535009503,-0.549931491690129
1782811676335513900,4.117513916015625,5.138363589930534,0.08282470594197511,-0.3293545578323304
1782811676345585000,4.1275849609375,4.435466080710292,0.7962748810976743,-0.11633183874636888
1782811676355657000,4.137656982421875,3.734391110742092,1.3529901877090333,0.11284297371730208
1782811676365728000,4.14772802734375,3.479837673002481,1.6028391010195016,0.269373990252614
1782811676375799800,4.1577998046875,3.490525071233511,1.5640192487597464,0.33198870572820305
1782811676385872000,4.167871826171875,3.6080168936699626,1.3499521351873873,0.32125966031253333
1782811676395943000,4.17794287109375,3.900844240224361,0.9151515820212661,0.2857464483827352
1782811676406015000,4.188014892578125,4.240635582527518,0.3828725052691996,0.2922059997856617
1782811676416087000,4.198087158203125,4.531819253528118,0.02854045030772686,0.314653540045768
1782811676426157800,4.20815771484375,4.81697475028038,0.07145911618843674,0.3668661039724946
1782811676436230400,4.21823046875,5.107248320698738,0.41060222371593114,0.6644653411038219
1782811676446301200,4.22830126953125,5.258484007304906,0.703376671039313,1.019661173287779
1782811676456373200,4.238373291015625,5.472906510186195,0.7635625519327819,1.3334630649402737
1782811676466445300,4.2484453125,5.694471870559454,0.7335770173832774,1.5881657018922268
1782811676476516400,4.258516357421875,5.777503204989433,0.5949447917625308,1.67457469606176
1782811676486588200,4.268588134765625,5.782367011633515,0.3114700877040624,1.5997997333236038
1782811676496660200,4.27866015625,5.901734564813971,-0.015603519584238529,1.522505042849481
1782811676506731300,4.288731201171875,5.9929357616961,-0.2558158588908613,1.534019831815362
1782811676516803300,4.29880322265625,5.727110988357663,-0.366036229019612,1.550424438649416
1782811676526875100,4.308875244140625,5.2485418744832275,-0.32284532206878064,1.5776947228908538
1782811676536946200,4.3189462890625,4.878372345051169,-0.2258151267722249,1.601337172023952
1782811676547018200,4.329018310546875,4.539751215571165,-0.03818549987897277,1.587941245486587
1782811676557089300,4.33908935546875,4.214657091662287,0.16027648667395114,1.5644053254678845
1782811676567161300,4.349161376953125,4.040615114486218,0.22007921346873044,1.6091154048100114
1782811676577233400,4.3592333984375,3.805621532741189,0.25819208650290965,1.784430178400874
1782811676587304400,4.369304443359375,3.1014515193670986,0.40985096695721146,1.9931752201676367
1782811676597376300,4.379376220703125,1.2338614117205142,0.5009554254665971,1.7978243513725698
1782811676607448300,4.3894482421875,-0.8417553602904081,0.4295806265607476,1.1855653636503964
1782811676617519400,4.399519287109375,-2.773769717052579,0.11467208884060383,0.2462697396494448
1782811676627591400,4.40959130859375,-5.137691974279284,-0.3800906194657087,-0.9437903781369328
1782811676637662500,4.419662353515625,-7.685756162413954,-0.8291732343539595,-2.458122343663871
1782811676647734500,4.429734619140625,-9.59638578584194,-1.0560162428691982,-3.5744244206696747
1782811676657806300,4.439806396484375,-10.691363627529144,-1.0783607611462473,-3.6846833692431447
1782811676667877400,4.44987744140625,-10.691777469027041,-1.3376593475863336,-3.1833480045482516
1782811676677949400,4.459949462890625,-9.630653966146706,-1.6593980235874652,-2.8190564272388814
1782811676688021500,4.470021484375,-7.922331460392475,-1.6628712526559828,-3.114213385784626
1782811676698092300,4.48009228515625,-6.006094518476725,-1.3760156739875673,-3.0904072705224155
1782811676708164000,4.4901640625,-4.757118539732694,-1.507877674821019,-1.8847415873251854
1782811676718235100,4.500235107421875,-4.71216062310934,-1.9992899036556482,-0.4410724730424583
1782811676728307200,4.51030712890625,-5.227962612313032,-2.5658427136704325,0.08214490698426961
1782811676738379300,4.520379150390625,-6.476663865768909,-2.8720807459399103,-0.6999274073682725
1782811676748450300,4.5304501953125,-8.72463100860715,-2.829260133606195,-2.2338595609001812
1782811676758522400,4.5405224609375,-10.764253507173061,-2.7289836498647926,-3.6076562436640263
1782811676768594200,4.55059423828125,-10.79165121718645,-2.9650021907433866,-4.370852154241502
1782811676778665200,4.560665283203125,-8.727896732404828,-3.459472053582966,-4.290571872085333
1782811676788737300,4.5707373046875,-5.738136824762821,-3.659462418746948,-3.5283176262721416
1782811676798808300,4.580808349609375,-2.6448119132280348,-3.4005484477102756,-2.721466698363423
1782811676808880400,4.59088037109375,0.04636252272427082,-2.821403867147863,-1.8317643226362763
1782811676818952400,4.600952392578125,2.0873323442459104,-1.8314596406012773,-0.8138461936235427
1782811676829023500,4.6110234375,3.5576194163411854,-0.7262234397500753,0.2826968515537679
1782811676839095300,4.62109521484375,3.997467462155223,0.03109276513904333,0.9810876970045268
1782811676849167400,4.63116748046875,3.4544121398448944,0.44296793140023943,1.0533186743482947
1782811676859238400,4.64123828125,2.7149182996332644,0.8332648875817656,0.8870312568217515
1782811676869310500,4.651310546875,2.359560554885864,1.0467334507390855,0.8100871333509683
1782811676879382300,4.66138232421875,2.036627408403158,0.9691595049321651,0.7980515353813767
1782811676889453300,4.671453369140625,1.8560586598068474,0.9500213814809918,0.8428843643203378
1782811676899525400,4.681525390625,2.4186340906232595,0.8526496792703866,0.8546411453485488
1782811676909596400,4.691596435546875,3.419820718935132,0.6163567053645849,0.8899515281826257
1782811676919668500,4.70166845703125,4.3616000495105975,0.5642772662982344,1.118643379434943
1782811676929740500,4.711740478515625,5.3474938316226,0.6427683269500732,1.368850166272372
1782811676939811300,4.721811279296875,6.463575251615047,0.6474997393861412,1.519473566199094
1782811676949883100,4.731883056640625,7.460936184158921,0.7247332011923193,1.5826606747351586
1782811676959955200,4.741955078125,7.900269850710034,0.9029714610144496,1.8283252880983054
1782811676970026200,4.752026123046875,8.005774882754682,1.0971379423305392,2.294022353179008
1782811676980098300,4.762098388671875,7.807491613769531,1.2184952080234885,2.736219154076278
1782811676990169300,4.77216943359375,7.258828388449549,1.2297934316292405,2.9802558739766476
1782811677000241200,4.7822412109375,6.4754474757164715,1.3275801443815232,2.8566964220643043
1782811677010313200,4.792313232421875,5.719298268780112,1.4411857730343938,2.338081713527441
1782811677020384300,4.80238427734375,5.106708222472667,1.382400114327669,1.7337655745685099
1782811677030456300,4.812456298828125,4.697866724818945,1.2595529023379086,1.321597562840581
1782811677040528400,4.8225283203125,4.920509359034895,1.0943497729167342,1.0578165702894329
1782811677050599400,4.832599365234375,5.385141132971644,1.0500047274947166,1.0866736853308976
1782811677060671200,4.842671142578125,5.632091109970212,1.2028750295653938,1.3969029791936278
1782811677070742300,4.8527421875,5.4454643765091895,1.2792851922899484,1.5822496097162364
1782811677080814300,4.862814453125,4.921467974933981,1.2753700646728277,1.4425949091799557
1782811677090886400,4.872886474609375,4.260181409996748,1.4755074370920658,1.154861817024648
1782811677100957400,4.88295751953125,3.4066321515381333,1.6361898742184042,0.9847001884132623
1782811677111029500,4.893029541015625,2.4888135422646998,1.5090911422640085,0.7431972247742116
1782811677121101300,4.903101318359375,2.0833266157358885,1.0559230116277933,0.37633462793305517
1782811677131172400,4.91317236328125,1.8242793737083673,0.276323078738153,0.0999490053527057
1782811677141244400,4.923244384765625,1.078600122860074,-0.8429849020853638,-0.17207754523530602
1782811677151315200,4.933315185546875,-0.20092238531708717,-2.216449430285394,-0.532992485718429
1782811677161387500,4.943387451171875,-2.4489976647049185,-3.1654417609795926,-0.6153748547203839
1782811677171459300,4.953459228515625,-5.797242509204149,-3.357109703478217,-0.29227321980297566
1782811677181530000,4.963530029296875,-9.15193872179985,-3.3506270634606476,0.11367430997490882
1782811677191602200,4.973602294921875,-11.354643996632099,-3.452800905255973,0.2498348847851157
1782811677201674200,4.98367431640625,-12.052158643770218,-3.6277225878760215,-0.6700206371434032
1782811677211745300,4.993745361328125,-10.807034664279222,-3.6531633186027404,-2.4038975631318986
1782811677221817300,5.0038173828125,-9.420845679062605,-3.793545602761209,-3.353890156909823
1782811677231888400,5.013888427734375,-9.618124739441274,-4.1876387363553045,-3.2486487442374226
1782811677241960200,5.023960205078125,-10.03283659043312,-4.199775456611812,-2.71432968609035
1782811677252032300,5.0340322265625,-9.792733702850342,-3.715087859857082,-2.311660155069828
1782811677262103300,5.044103271484375,-9.376551779305935,-3.082852909620106,-2.06067317764014
1782811677272175400,5.05417529296875,-8.760532343071699,-2.5890482326909896,-1.762561168681085
1782811677282247400,5.064247314453125,-8.202975617200135,-2.148110053552687,-1.30775111605674
1782811677292318500,5.074318359375,-7.324882869115472,-1.6355992148488758,-0.8151205974735319
1782811677302390300,5.084390380859375,-5.757323171269893,-1.2113050042584537,-0.4784916647240519
1782811677312461300,5.09446142578125,-3.854644214585423,-0.770456256969273,-0.3725612468741834
1782811677322533400,5.104533447265625,-2.018956727156043,-0.31462270651608704,-0.3674894965678453
1782811677332605400,5.11460546875,-0.08631459388434887,-0.19251286889016628,-0.4328948656752705
1782811677342676500,5.124676513671875,1.803097469469905,-0.6248296424165368,-0.5981413958467543
1782811677352748300,5.134748291015625,3.08455182249248,-1.1926549565851687,-0.6835603560656309
1782811677362820400,5.1448203125,3.4144209057182073,-1.2483581391066312,-0.6141738083675503
1782811677372891400,5.154891357421875,2.782116689637303,-0.761069712203741,-0.5742661608710885
1782811677382963500,5.16496337890625,2.08807994774282,-0.06185615219324827,-0.4631155241549015
1782811677393034200,5.1750341796875,1.764334900355339,0.5339698063179851,-0.06943900853767991
1782811677403106300,5.185106201171875,1.839300417229533,0.8807835946038365,0.4761392563790083
1782811677413178400,5.195178466796875,2.1409382622271775,0.9795201554268598,0.8993193682476878
1782811677423249200,5.205249267578125,2.7158453513503074,0.8503232821494341,1.0576879754737019
1782811677433321700,5.21532177734375,3.6898710010141134,0.44001229646503925,1.121815871991217
1782811677443393800,5.225393798828125,4.832765024608373,-0.07458002468794583,1.2552844312384723
1782811677453464800,5.23546484375,5.676011500239372,-0.292030058696866,1.5081678899392486
1782811677463536600,5.24553662109375,6.256413095125556,-0.23198095592558382,1.7523402189180255
1782811677473607400,5.255607421875,6.695618751382828,-0.03267214328497648,1.9735072276234626
1782811677483679700,5.2656796875,6.708733669021726,0.37462475527524947,2.193666228330135
1782811677493751800,5.275751708984375,6.168060857933759,0.8524266841694712,2.3857487429790196
1782811677503822600,5.285822509765625,5.419619156634807,1.1299006865084171,2.3112042279958724
1782811677513894700,5.295894775390625,4.955538002318144,1.236178164230287,2.0407523793786764
1782811677523966500,5.305966552734375,4.789648351937532,1.1592518686771391,1.6934397016599774
1782811677534035700,5.31603564453125,4.932763860452175,0.9618348611325025,1.3626814145095645
1782811677544107800,5.326107666015625,5.355278494149446,0.7706921115517615,1.1343227407343686
1782811677554179600,5.3361796875,5.600198426625132,0.8354083293512463,1.0317425100952387
1782811677564250600,5.346250732421875,5.773658219999074,1.1625374662190675,1.1340705195389686
1782811677574322700,5.35632275390625,5.734122328424453,1.5449685113310814,1.3706883414849638
1782811677584393700,5.366393798828125,5.561739224371314,1.9196490884467958,1.5815537364065646
1782811677594465800,5.3764658203125,5.456721683582663,2.2856293494954705,1.6476839126572012
1782811677604537600,5.38653759765625,5.161481430667639,2.53449597377032,1.578274568605423
1782811677614608600,5.396608642578125,4.845829673364758,2.625693078999221,1.4641475464269518
1782811677624680700,5.4066806640625,4.475673587936162,2.5059406181544066,1.3018908457212148
1782811677634751500,5.41675146484375,3.741473762479424,2.25049373870641,1.0314189772292972
1782811677644823600,5.426823486328125,2.7502397883832455,1.638122595846653,0.5234921053148806
1782811677654895600,5.4368955078125,1.9059025949060915,0.5383084200441837,-0.18118461547233164
1782811677664966700,5.446966552734375,1.362757840746641,-0.5567497934028506,-0.8823639956630766
1782811677675038500,5.45703857421875,0.264012170958519,-1.3726879908695817,-1.2223113322455434
1782811677685110500,5.467110595703125,-2.146805108433962,-1.7558926507025956,-0.8470224139731377
1782811677695181600,5.477181640625,-5.051698867434263,-1.7552289260968565,0.02481390406526625
1782811677705253600,5.487253662109375,-7.894759562855959,-1.7108599152773618,0.4568562445644289
1782811677715324700,5.49732470703125,-9.885955591905116,-1.9415502468705177,-0.13640665852576495
1782811677725396700,5.507396728515625,-9.720562785130738,-2.606962951827049,-1.3346259712398052
1782811677735468500,5.517468505859375,-7.951197489392757,-3.218612502413988,-2.607721661239862
1782811677745539600,5.52753955078125,-7.46442461079657,-3.544382333627343,-3.298559314832091
1782811677755611600,5.537611572265625,-7.493533216381072,-4.26226581505537,-2.8760557870507237
1782811677765683700,5.54768359375,-6.5621104446470735,-4.755031212064623,-1.9982475549958645
1782811677775754800,5.557754638671875,-4.911476157751679,-4.895409989091753,-1.2967502679623664
1782811677785826600,5.56782666015625,-3.4609131923019882,-5.356379148867726,-0.4382007535310462
1782811677795897600,5.577897705078125,-3.0952789682120083,-5.869194231215119,-0.04628660794384777
1782811677805969700,5.5879697265625,-4.015502885061502,-5.333018731546401,-0.4418894519811496
1782811677816041700,5.598041748046875,-6.139172617101669,-3.880876387950778,-1.209842238229513
1782811677826112800,5.60811279296875,-8.116921135556698,-2.397125146387517,-1.797886164562404
1782811677836184800,5.618184814453125,-8.812890306818485,-1.1080322613105178,-1.963090463027358
1782811677846256600,5.628256591796875,-8.40767050679326,-0.02522913380265236,-1.693305846147239
1782811677856327700,5.63832763671875,-6.3419531975060695,0.7738464839294552,-1.105033152559772
1782811677866399700,5.648399658203125,-2.7497727553933857,1.1550748752534388,-0.11870138088930397
1782811677876470500,5.658470458984375,0.48825113445520396,1.5847414265319704,1.1706759106196463
1782811677886542600,5.66854248046875,-0.38616672450900075,1.8485420005664228,1.20830932957381
1782811677896614700,5.67861474609375,0.14410568859577177,0.961943874464929,0.42280689464211463
1782811677906685700,5.688685791015625,0.2794564083278179,0.1873059478968382,-0.449258044520393
1782811677916759800,5.698759765625,-0.23261574669778345,-0.12951865257769823,-1.0140519551038742
1782811677926830800,5.708830810546875,-0.4242062400460243,-0.12170505621731281,-1.2043724285162984
1782811677936902700,5.718902587890625,0.7691027965337037,0.04561287340074777,-0.9543956510424614
1782811677946974700,5.728974609375,2.753591436898708,0.37287089734524487,-0.12842398920878767
