time,seconds_elapsed,z,y,x
1782811672296785200,0.07878515625,-0.04755325987935066,0.13017290830612183,0.23127293586730957
1782811672306856000,0.08885595703125,-0.051700372248888016,0.16246116161346436,0.1446579098701477
1782811672316928300,0.09892822265625,-0.0337301604449749,0.17538762092590332,0.04735559597611427
1782811672327000000,0.109,0.000607155030593276,0.12210389971733093,-0.06360402703285217
1782811672337070800,0.11907080078125,0.04031142219901085,0.021686481311917305,-0.16251464188098907
1782811672347143000,0.129142822265625,0.07232186198234558,-0.07199481874704361,-0.24140973389148712
1782811672357215000,0.139215087890625,0.08801347017288208,-0.1484467089176178,-0.2850267291069031
1782811672367286000,0.1492861328125,0.08780916780233383,-0.23135456442832947,-0.29285985231399536
1782811672377358000,0.159358154296875,0.058516524732112885,-0.2815713882446289,-0.25227993726730347
1782811672387430000,0.169429931640625,0.008846632204949856,-0.2654707431793213,-0.18076610565185547
1782811672397501000,0.1795009765625,-0.04375213012099266,-0.21424375474452972,-0.10810842365026474
1782811672407573000,0.189572998046875,-0.09246469289064407,-0.17278970777988434,-0.055624861270189285
1782811672417645000,0.19964501953125,-0.11621370166540146,-0.15420377254486084,-0.03315044566988945
1782811672427716400,0.20971630859375,-0.11230383813381195,-0.11516407132148743,-0.03890833258628845
1782811672437788200,0.2197880859375,-0.08845629543066025,-0.05829758942127228,-0.05723274499177933
1782811672447859200,0.229859130859375,-0.04846189171075821,0.006565936841070652,-0.08361712098121643
1782811672457931300,0.23993115234375,-0.001957773230969906,0.0697033628821373,-0.09733452647924423
1782811672468003300,0.25000341796875,0.054076503962278366,0.13923361897468567,-0.08210580796003342
1782811672478074400,0.260074462890625,0.12563537061214447,0.23382563889026642,-0.035042956471443176
1782811672488146400,0.270146484375,0.20962056517601013,0.35091692209243774,0.04598363861441612
1782811672498218200,0.28021826171875,0.28520292043685913,0.4663713276386261,0.15309543907642365
1782811672508289300,0.290289306640625,0.35501137375831604,0.566213071346283,0.2562718391418457
1782811672518361300,0.300361328125,0.4360596239566803,0.6070142984390259,0.3499964773654938
1782811672528433400,0.310433349609375,0.5269550681114197,0.5378690361976624,0.4267429709434509
1782811672538504400,0.32050439453125,0.6086959838867188,0.4096631407737732,0.48413410782814026
1782811672548576300,0.330576171875,0.6929455995559692,0.2534120976924896,0.524840235710144
1782811672558648300,0.3406484375,0.8310571312904358,0.14130209386348724,0.5699102878570557
1782811672568719400,0.35071923828125,1.0095683336257935,0.12977014482021332,0.6358668804168701
1782811672578791400,0.36079150390625,1.181534767150879,0.2601744830608368,0.7708050012588501
1782811672588863500,0.370863525390625,1.3003864288330078,0.426644504070282,0.9797882437705994
1782811672598934300,0.380934326171875,1.3356517553329468,0.48004087805747986,1.1906781196594238
1782811672609006000,0.391006103515625,1.288703203201294,0.4633775055408478,1.3585578203201294
1782811672619078400,0.401078369140625,1.138954758644104,0.43928974866867065,1.4467360973358154
1782811672629149200,0.411149169921875,0.9099448323249817,0.3890138864517212,1.4110075235366821
1782811672639221200,0.42122119140625,0.6232302784919739,0.28392288088798523,1.2374751567840576
1782811672649293300,0.431293212890625,0.3020942211151123,0.15983706712722778,0.9329304099082947
1782811672659364000,0.441364013671875,-0.013707412406802177,-0.1397528499364853,0.4869252145290375
1782811672669436200,0.451436279296875,-0.32252517342567444,-0.6379745602607727,-0.09232544898986816
1782811672679508200,0.46150830078125,-0.6787266731262207,-1.1745200157165527,-0.7403447031974792
1782811672689579300,0.471579345703125,-1.0808416604995728,-1.5284234285354614,-1.377733826637268
1782811672699651300,0.4816513671875,-1.4993046522140503,-1.8043079376220703,-1.9679094552993774
1782811672709723100,0.49172314453125,-1.8703721761703491,-1.8958550691604614,-2.415753126144409
1782811672719794200,0.501794189453125,-2.1604552268981934,-1.715812087059021,-2.6421711444854736
1782811672729866200,0.5118662109375,-2.3566880226135254,-1.340288519859314,-2.673518419265747
1782811672739938300,0.521938232421875,-2.4281458854675293,-0.8774824738502502,-2.5436906814575195
1782811672750009300,0.53200927734375,-2.292168617248535,-0.41146424412727356,-2.282686233520508
1782811672760081400,0.542081298828125,-1.9420671463012695,0.015797056257724762,-1.9599462747573853
1782811672770153200,0.5521533203125,-1.550999402999878,0.26477721333503723,-1.6741700172424316
1782811672780224300,0.562224365234375,-1.2320767641067505,0.3338814675807953,-1.4475758075714111
1782811672790296300,0.57229638671875,-0.9802414178848267,0.222734272480011,-1.2293767929077148
1782811672800367400,0.582367431640625,-0.7805421948432922,-0.02847718819975853,-0.9592516422271729
1782811672810439400,0.592439453125,-0.6509829163551331,-0.2961841821670532,-0.6172115802764893
1782811672820511200,0.60251123046875,-0.5739811062812805,-0.37836745381355286,-0.24459567666053772
1782811672830582300,0.612582275390625,-0.5329427719116211,-0.19417499005794525,0.08364790678024292
1782811672840654300,0.622654296875,-0.5099285244941711,0.14460252225399017,0.31346699595451355
1782811672850726400,0.632726318359375,-0.4988762140274048,0.47620388865470886,0.4025600552558899
1782811672860797200,0.642797119140625,-0.464828759431839,0.6745702624320984,0.34786751866340637
1782811672870869500,0.652869384765625,-0.3795587122440338,0.7528881430625916,0.18673047423362732
1782811672880941300,0.66294140625,-0.2483982890844345,0.7405720949172974,-0.0042946068570017815
1782811672891012000,0.67301220703125,-0.09231186658143997,0.6403048038482666,-0.14794987440109253
1782811672901084200,0.683084228515625,0.05041012912988663,0.46873408555984497,-0.1987731158733368
1782811672911156200,0.69315625,0.18224577605724335,0.3173266351222992,-0.13437120616436005
1782811672921227300,0.703227294921875,0.316371351480484,0.1953727751970291,0.022086309269070625
1782811672931299300,0.71329931640625,0.4392315447330475,0.09387188404798508,0.23857347667217255
1782811672941371100,0.72337109375,0.557429850101471,0.031270284205675125,0.49088162183761597
1782811672951442200,0.733442138671875,0.6733649373054504,0.04885992780327797,0.7520085573196411
1782811672961514200,0.74351416015625,0.7779079079627991,0.13492609560489655,0.9755979776382446
1782811672971586300,0.75358642578125,0.8575160503387451,0.24822162091732025,1.1489741802215576
1782811672981657300,0.7636572265625,0.8908250331878662,0.3325596749782562,1.2492480278015137
1782811672991729200,0.773729248046875,0.8907759785652161,0.36454516649246216,1.2862266302108765
1782811673001801200,0.78380126953125,0.8740148544311523,0.33238109946250916,1.2826638221740723
1782811673011872300,0.793872314453125,0.8505738377571106,0.25298333168029785,1.261006474494934
1782811673021944300,0.8039443359375,0.8391507863998413,0.17274227738380432,1.2392462491989136
1782811673032016400,0.814016357421875,0.8294571042060852,0.11520610749721527,1.2479612827301025
1782811673042087400,0.82408740234375,0.8265641331672668,0.13816015422344208,1.3073532581329346
1782811673052159200,0.8341591796875,0.8430368304252625,0.2921322286128998,1.4237706661224365
1782811673062231300,0.844231201171875,0.86137455701828,0.5427234768867493,1.5881104469299316
1782811673072302300,0.85430224609375,0.9072601795196533,0.7962932586669922,1.7532793283462524
1782811673082374400,0.86437451171875,1.0316567420959473,0.9493120908737183,1.8976807594299316
1782811673092445400,0.874445556640625,1.2344611883163452,0.9841163754463196,2.0100605487823486
1782811673102517200,0.884517333984375,1.3878504037857056,0.9742293953895569,2.0565664768218994
1782811673112589300,0.89458935546875,1.3310112953186035,0.7451152801513672,1.9412925243377686
1782811673122660400,0.904660400390625,1.0374844074249268,0.266046404838562,1.5740735530853271
1782811673132732400,0.914732421875,0.6994019150733948,-0.2852722406387329,1.0143754482269287
1782811673142804500,0.924804443359375,0.4498290717601776,-0.8083577752113342,0.40070056915283203
1782811673152875300,0.934875244140625,0.24003393948078156,-1.2840752601623535,-0.1323760449886322
1782811673162947000,0.944947021484375,0.011449226178228855,-1.6422946453094482,-0.5129747986793518
1782811673173019100,0.95501904296875,-0.17020532488822937,-1.712834358215332,-0.7144623398780823
1782811673183090200,0.965090087890625,-0.3192765712738037,-1.4845335483551025,-0.7827404141426086
1782811673193162200,0.975162353515625,-0.4404376149177551,-1.118529200553894,-0.8140084743499756
1782811673203234300,0.985234375,-0.482400506734848,-0.6936036944389343,-0.8585916757583618
1782811673213305300,0.995305419921875,-0.4191160500049591,-0.2974543571472168,-0.9409539699554443
1782811673223377200,1.005377197265625,-0.29108700156211853,0.00044872250873595476,-1.0308265686035156
1782811673233449200,1.01544921875,-0.2172398418188095,0.11982811242341995,-1.0819952487945557
1782811673243520300,1.025520263671875,-0.23260973393917084,0.07970891892910004,-1.0965843200683594
1782811673253592300,1.03559228515625,-0.35301893949508667,-0.06210467219352722,-1.086366057395935
1782811673263664000,1.0456640625,-0.5581715703010559,-0.12999635934829712,-1.077691674232483
1782811673273735200,1.055735107421875,-0.7869756817817688,-0.015840677544474602,-1.130481243133545
1782811673283807200,1.06580712890625,-0.9936342835426331,0.23071503639221191,-1.2858599424362183
1782811673293879300,1.07587939453125,-1.1583203077316284,0.5092598795890808,-1.5032098293304443
1782811673303950300,1.085950439453125,-1.2561967372894287,0.8009119629859924,-1.7157559394836426
1782811673314022400,1.0960224609375,-1.251050353050232,1.0510672330856323,-1.8479516506195068
1782811673324093400,1.106093505859375,-1.1410719156265259,1.169298529624939,-1.8793522119522095
1782811673334165200,1.116165283203125,-0.9377580285072327,1.1180119514465332,-1.8030273914337158
1782811673344237300,1.1262373046875,-0.6718912124633789,0.8971144556999207,-1.6173675060272217
1782811673354308400,1.136308349609375,-0.3820534348487854,0.5695546865463257,-1.3461918830871582
1782811673364380400,1.14638037109375,-0.10142818093299866,0.1686387062072754,-0.996738612651825
1782811673374452500,1.156452392578125,0.155827596783638,-0.25712332129478455,-0.5883092284202576
1782811673384523300,1.166523193359375,0.3739628493785858,-0.6115346550941467,-0.15729710459709167
1782811673394595300,1.17659521484375,0.5508599281311035,-0.8661800026893616,0.26742932200431824
1782811673404667400,1.18666748046875,0.7070138454437256,-0.9976930022239685,0.6615537405014038
1782811673414738200,1.19673828125,0.8399604558944702,-1.0083131790161133,0.9949047565460205
1782811673424810200,1.206810302734375,0.9705137014389038,-0.9152905344963074,1.2500146627426147
1782811673434881800,1.2168818359375,1.0850694179534912,-0.7647726535797119,1.4201829433441162
1782811673444952800,1.226952880859375,1.1436578035354614,-0.5683877468109131,1.482897400856018
1782811673455024600,1.237024658203125,1.1636362075805664,-0.3751903474330902,1.4395910501480103
1782811673465096700,1.2470966796875,1.1170761585235596,-0.2982676029205322,1.3212069272994995
1782811673475167700,1.257167724609375,0.9933602809906006,-0.3033420741558075,1.1656347513198853
1782811673485239800,1.26723974609375,0.8109702467918396,-0.3210992217063904,1.015397310256958
1782811673495311600,1.2773115234375,0.595088541507721,-0.3592119812965393,0.8565429449081421
1782811673505382700,1.287382568359375,0.349527508020401,-0.4041594862937927,0.6891247034072876
1782811673515454700,1.297454833984375,0.07636503130197525,-0.3796014189720154,0.5508285760879517
1782811673525525800,1.30752587890625,-0.2171744406223297,-0.25573432445526123,0.447903573513031
1782811673535597800,1.317597900390625,-0.4972264766693115,-0.07002135366201401,0.403763085603714
1782811673545670000,1.327669921875,-0.6779073476791382,0.14474926888942719,0.41614973545074463
1782811673555741000,1.337740966796875,-0.7474187612533569,0.341004341840744,0.4931330978870392
1782811673565812700,1.347812744140625,-0.7217623591423035,0.440084844827652,0.629622220993042
1782811673575884800,1.357884765625,-0.6304101347923279,0.4400841295719147,0.8354355096817017
1782811673585955800,1.367955810546875,-0.5133583545684814,0.46575355529785156,1.1015353202819824
1782811673596028000,1.37802783203125,-0.46050599217414856,0.6063077449798584,1.4251964092254639
1782811673606100000,1.388099853515625,-0.44464072585105896,0.9048262238502502,1.7745888233184814
1782811673616171000,1.3981708984375,-0.3921816647052765,1.1639232635498047,2.009472131729126
1782811673626242800,1.408242919921875,-0.31664562225341797,1.1134907007217407,2.0179619789123535
1782811673636315000,1.41831494140625,-0.3803587257862091,0.637981116771698,1.7496718168258667
1782811673646385700,1.4283857421875,-0.5975179076194763,0.020702503621578217,1.2500241994857788
1782811673656458000,1.4384580078125,-0.7737495303153992,-0.49548521637916565,0.6337374448776245
1782811673666528800,1.44852880859375,-0.8172554969787598,-0.8820478916168213,0.013796942308545113
1782811673676600600,1.4586005859375,-0.890985906124115,-1.205403208732605,-0.5941790342330933
1782811673686672600,1.468672607421875,-1.0658581256866455,-1.537205696105957,-1.1408168077468872
1782811673696743700,1.47874365234375,-1.2325495481491089,-1.6059452295303345,-1.4922982454299927
1782811673706815700,1.488815673828125,-1.301190733909607,-1.327508807182312,-1.608811855316162
1782811673716887800,1.4988876953125,-1.2589102983474731,-0.8000714182853699,-1.5300039052963257
1782811673726958800,1.508958740234375,-1.140072226524353,-0.26168593764305115,-1.310144305229187
1782811673737030700,1.51903076171875,-1.0101027488708496,0.11013011634349823,-1.0624154806137085
1782811673747102700,1.529102783203125,-0.9079363942146301,0.3522314429283142,-0.8286557793617249
1782811673757173800,1.539173828125,-0.8321501016616821,0.46568483114242554,-0.6583613157272339
1782811673767245800,1.549245849609375,-0.7925605773925781,0.46476632356643677,-0.5977733135223389
1782811673777318000,1.55931787109375,-0.7671094536781311,0.3488323390483856,-0.6469558477401733
1782811673787389000,1.569388916015625,-0.7580645680427551,0.13399888575077057,-0.7739676237106323
1782811673797460700,1.579460693359375,-0.7554519176483154,-0.08137903362512589,-0.94012451171875
1782811673807532800,1.58953271484375,-0.702876627445221,-0.2333587110042572,-1.0793501138687134
1782811673817603800,1.599603759765625,-0.6004044413566589,-0.2447388470172882,-1.1556742191314697
1782811673827676000,1.609676025390625,-0.4677902162075043,-0.09995529055595398,-1.1585878133773804
1782811673837747000,1.619746826171875,-0.32053127884864807,0.14667002856731415,-1.090843915939331
1782811673847818800,1.62981884765625,-0.13239918649196625,0.42729291319847107,-0.9687806367874146
1782811673857890800,1.639890869140625,0.08709574490785599,0.6408736705780029,-0.8313053846359253
1782811673867961900,1.6499619140625,0.31036636233329773,0.7346342206001282,-0.6833497285842896
1782811673878034000,1.660033935546875,0.473631888628006,0.75710129737854,-0.5361243486404419
1782811673888106000,1.67010595703125,0.5935382843017578,0.7328904867172241,-0.39627805352211
1782811673898176800,1.6801767578125,0.6959818005561829,0.6309904456138611,-0.2712651789188385
1782811673908248800,1.690248779296875,0.7789052128791809,0.4888964295387268,-0.15158776938915253
1782811673918321000,1.70032080078125,0.833224892616272,0.3115994334220886,-0.02608216367661953
1782811673928391700,1.7103916015625,0.8699517846107483,0.11393082141876221,0.11181685328483582
1782811673938463700,1.720463623046875,0.8969560265541077,-0.042714815586805344,0.2616690397262573
1782811673948535800,1.730535888671875,0.9468581080436707,-0.11129254847764969,0.4262270927429199
1782811673958606600,1.740606689453125,1.0031189918518066,-0.08972075581550598,0.5966716408729553
1782811673968678700,1.7506787109375,1.0593916177749634,0.005899508483707905,0.7479953765869141
1782811673978750700,1.760750732421875,1.0865498781204224,0.10447516292333603,0.8556727170944214
1782811673988821800,1.77082177734375,1.0780783891677856,0.14411471784114838,0.9078187346458435
1782811673998893800,1.780893798828125,1.0406514406204224,0.13838937878608704,0.9138525724411011
1782811674008964900,1.79096484375,0.966853678226471,0.10368704795837402,0.9090290069580078
1782811674019036700,1.80103662109375,0.8709606528282166,0.0664428249001503,0.9181842803955078
1782811674029108700,1.811108642578125,0.783357560634613,0.050426844507455826,0.9430717825889587
1782811674039179800,1.8211796875,0.7577767968177795,0.11400893330574036,0.9695733189582825
1782811674049251800,1.831251953125,0.7849714159965515,0.31885290145874023,0.9298474788665771
1782811674059324000,1.841323974609375,0.7524443864822388,0.4032101035118103,0.8059514760971069
1782811674069395000,1.85139501953125,0.6512932777404785,0.2820996642112732,0.6745766997337341
1782811674079466800,1.861466796875,0.5709460377693176,0.24482500553131104,0.6343158483505249
1782811674089538800,1.871538818359375,0.5132914781570435,0.37166231870651245,0.6847678422927856
1782811674099609900,1.88160986328125,0.43878471851348877,0.5857837200164795,0.7947858572006226
1782811674109682000,1.891681884765625,0.3404392600059509,0.8041072487831116,0.9608427286148071
1782811674119753700,1.901753662109375,0.21480980515480042,0.8518263101577759,1.1910682916641235
1782811674129824800,1.91182470703125,0.11968434602022171,0.7763547301292419,1.5034198760986328
1782811674139896800,1.921896728515625,0.13105398416519165,0.7567052245140076,1.864370584487915
1782811674149967600,1.931967529296875,0.2168668955564499,0.6571586728096008,2.153993606567383
1782811674160040000,1.9420400390625,0.2675215005874634,0.36387550830841064,2.2624258995056152
1782811674170112000,1.952112060546875,0.26543599367141724,-0.02930588833987713,2.1595511436462402
1782811674180182800,1.962182861328125,0.2720547318458557,-0.34309712052345276,1.9195364713668823
1782811674190254600,1.972254638671875,0.3270285129547119,-0.513717532157898,1.5825198888778687
1782811674200326700,1.98232666015625,0.3987489938735962,-0.573218584060669,1.1846734285354614
1782811674210397700,1.992397705078125,0.4150259792804718,-0.6776379346847534,0.7042387127876282
1782811674220469800,2.0024697265625,0.3337155878543854,-0.7731289267539978,0.17955537140369415
1782811674230541800,2.012541748046875,0.16443336009979248,-0.7698737382888794,-0.35702311992645264
1782811674240612900,2.02261279296875,-0.05573168024420738,-0.7140800952911377,-0.8918560147285461
1782811674250684700,2.0326845703125,-0.28308549523353577,-0.6136693358421326,-1.3906054496765137
1782811674260756700,2.0427568359375,-0.4700895845890045,-0.5280171632766724,-1.834099531173706
1782811674270827800,2.052827880859375,-0.5911765694618225,-0.537462592124939,-2.1998610496520996
1782811674280899800,2.06289990234375,-0.6348237991333008,-0.6316789388656616,-2.4541590213775635
1782811674290971000,2.072970947265625,-0.6122617721557617,-0.848778486251831,-2.597203254699707
1782811674301042700,2.083042724609375,-0.5687922835350037,-1.1288402080535889,-2.6274821758270264
1782811674311114800,2.09311474609375,-0.5568796992301941,-1.3941594362258911,-2.559065580368042
1782811674321185800,2.103185791015625,-0.5956085920333862,-1.5455504655838013,-2.4269185066223145
1782811674331257900,2.1132578125,-0.6801540851593018,-1.5004210472106934,-2.2683942317962646
1782811674341330000,2.123329833984375,-0.793684720993042,-1.2870126962661743,-2.1192915439605713
1782811674351401000,2.13340087890625,-0.9082136750221252,-1.0214515924453735,-2.010056734085083
1782811674361472800,2.14347265625,-0.9952444434165955,-0.7730394601821899,-1.9389525651931763
1782811674371544800,2.153544921875,-1.0440272092819214,-0.55545574426651,-1.8808366060256958
1782811674381615900,2.163615966796875,-1.0595951080322266,-0.39629843831062317,-1.8105868101119995
1782811674391688000,2.17368798828125,-1.0262912511825562,-0.3423191010951996,-1.7142868041992188
1782811674401759700,2.183759765625,-0.9536635279655457,-0.375632643699646,-1.5862375497817993
1782811674411830800,2.193830810546875,-0.8669083714485168,-0.43014276027679443,-1.3995989561080933
1782811674421902800,2.20390283203125,-0.8110232353210449,-0.4384204149246216,-1.1919238567352295
1782811674431974100,2.21397412109375,-0.8047088384628296,-0.38694363832473755,-1.017863392829895
1782811674442046200,2.224046142578125,-0.7974054217338562,-0.3331511616706848,-0.916850745677948
1782811674452118300,2.2341181640625,-0.7499524354934692,-0.2727924883365631,-0.8801502585411072
1782811674462189300,2.244189208984375,-0.6486132144927979,-0.2917339503765106,-0.8731765747070312
1782811674472261000,2.25426123046875,-0.4921777546405792,-0.3728644847869873,-0.863191545009613
1782811674482333200,2.264333251953125,-0.30299490690231323,-0.3469587564468384,-0.7688777446746826
1782811674492404200,2.274404296875,-0.12031402438879013,-0.08091136813163757,-0.5506380796432495
1782811674502476300,2.284476318359375,0.03864127770066261,0.2692478597164154,-0.2667234539985657
1782811674512548000,2.294548095703125,0.1407356858253479,0.4838792085647583,0.011999537236988544
1782811674522619100,2.304619140625,0.17318066954612732,0.4837777614593506,0.2331477403640747
1782811674532691200,2.314691162109375,0.15408261120319366,0.42635467648506165,0.43544039130210876
1782811674542762000,2.324761962890625,0.11190962791442871,0.4322250783443451,0.6477445363998413
1782811674552834300,2.334834228515625,0.08985785394906998,0.5187724828720093,0.9068608283996582
1782811674562906400,2.34490625,0.0943850725889206,0.6271693110466003,1.222711443901062
1782811674572977200,2.35497705078125,0.1107797622680664,0.776553213596344,1.560271978378296
1782811674583049000,2.365049072265625,0.1473088562488556,0.984230101108551,1.8463174104690552
1782811674593121000,2.37512109375,0.23925741016864777,1.2628483772277832,2.0433273315429688
1782811674603192000,2.385192138671875,0.39873749017715454,1.56654691696167,2.1164467334747314
1782811674613264100,2.39526416015625,0.5233592987060547,1.797589659690857,2.0771360397338867
1782811674623336200,2.405336181640625,0.5268658995628357,1.8583191633224487,1.9753867387771606
1782811674633407200,2.4154072265625,0.49864864349365234,1.7210696935653687,1.8686150312423706
1782811674643479000,2.42547900390625,0.5320358276367188,1.4359843730926514,1.807605504989624
1782811674653551000,2.435551025390625,0.6234586834907532,0.9993463158607483,1.7872822284698486
1782811674663622100,2.4456220703125,0.6452444195747375,0.4291732907295227,1.7242904901504517
1782811674673694200,2.455694091796875,0.514690101146698,-0.009459743276238441,1.5160562992095947
1782811674683765200,2.46576513671875,0.37465041875839233,-0.15490198135375977,1.259245753288269
1782811674693837000,2.475837158203125,0.3403259813785553,-0.19148927927017212,1.0508073568344116
1782811674703909000,2.4859091796875,0.36358997225761414,-0.21425177156925201,0.9015412926673889
1782811674713980200,2.495980224609375,0.32719919085502625,-0.15417751669883728,0.7726008892059326
1782811674724052200,2.50605224609375,0.18964502215385437,0.05398287624120712,0.6392210721969604
1782811674734124300,2.516124267578125,-0.003979573491960764,0.32577311992645264,0.4666498899459839
1782811674744195300,2.5261953125,-0.23982998728752136,0.5270605087280273,0.21582338213920593
1782811674754267100,2.53626708984375,-0.4709140658378601,0.5208569169044495,-0.12381327152252197
1782811674764339200,2.546339111328125,-0.6613262891769409,0.3345912992954254,-0.5103597044944763
1782811674774410200,2.55641015625,-0.7835363149642944,-0.011064918711781502,-0.8676624298095703
1782811674784482300,2.566482421875,-0.8231562376022339,-0.4566761255264282,-1.1559138298034668
1782811674794553000,2.576552978515625,-0.7787842154502869,-0.8436499834060669,-1.333274006843567
1782811674804625200,2.586625244140625,-0.6824426651000977,-1.0907658338546753,-1.4018659591674805
1782811674814697200,2.596697265625,-0.5794838070869446,-1.2223206758499146,-1.3906774520874023
1782811674824768000,2.60676806640625,-0.49864670634269714,-1.2206846475601196,-1.3213859796524048
1782811674834840000,2.616840087890625,-0.42120805382728577,-1.0763310194015503,-1.1987297534942627
1782811674844912000,2.626912109375,-0.33488190174102783,-0.8401601314544678,-1.0611900091171265
1782811674854983200,2.636983154296875,-0.25063014030456543,-0.6237751245498657,-0.9335841536521912
1782811674865055000,2.647054931640625,-0.19163410365581512,-0.44179534912109375,-0.8351208567619324
1782811674875127000,2.657126953125,-0.15541617572307587,-0.3097616732120514,-0.7766519784927368
1782811674885198000,2.667197998046875,-0.13737496733665466,-0.24708934128284454,-0.7291391491889954
1782811674895270100,2.677270263671875,-0.10971669852733612,-0.23080624639987946,-0.6455681324005127
1782811674905342200,2.68734228515625,-0.07675109803676605,-0.24757564067840576,-0.5206975340843201
1782811674915413200,2.697413330078125,-0.06053777411580086,-0.23476077616214752,-0.38300177454948425
1782811674925485000,2.707485107421875,-0.05039588734507561,-0.14181636273860931,-0.27404433488845825
1782811674935556000,2.71755615234375,-0.0023748339153826237,0.03560103476047516,-0.22912238538265228
1782811674945628200,2.727628173828125,0.05804532766342163,0.1793697476387024,-0.26498982310295105
1782811674955700200,2.7377001953125,0.1055808886885643,0.23788179457187653,-0.3650628924369812
1782811674965771300,2.747771240234375,0.1406347006559372,0.23828129470348358,-0.4639326333999634
1782811674975843000,2.757843017578125,0.1871236264705658,0.2666684687137604,-0.5299582481384277
1782811674985915100,2.7679150390625,0.24881798028945923,0.3721511960029602,-0.5364837646484375
1782811674995986200,2.777986083984375,0.33031657338142395,0.45273950695991516,-0.4882539212703705
1782811675006058200,2.788058349609375,0.41627445816993713,0.4115128815174103,-0.4103849232196808
1782811675016130300,2.79813037109375,0.4740040898323059,0.24525944888591766,-0.31225302815437317
1782811675026201300,2.808201416015625,0.49057525396347046,0.09699711948633194,-0.2157822847366333
1782811675036273200,2.818273193359375,0.48129600286483765,0.02930009365081787,-0.1127762719988823
1782811675046344000,2.828343994140625,0.4349517226219177,-0.022771624848246574,-0.024241579696536064
1782811675056416300,2.838416259765625,0.31885841488838196,-0.07038521766662598,0.15693166851997375
1782811675066488300,2.84848828125,0.19079002737998962,0.04460864141583443,0.532742977142334
1782811675076559000,2.85855908203125,0.1364642083644867,0.30341944098472595,1.116972804069519
1782811675086631200,2.868631103515625,0.16692325472831726,0.6656495332717896,1.807468295097351
1782811675096703000,2.878702880859375,0.25408026576042175,1.0549386739730835,2.442876100540161
1782811675106774000,2.88877392578125,0.34741219878196716,1.4433200359344482,2.9176459312438965
1782811675116846000,2.89884619140625,0.3176364600658417,1.6575175523757935,3.059755563735962
1782811675126918100,2.908918212890625,0.141138955950737,1.6531301736831665,2.777878761291504
1782811675136989200,2.9189892578125,-0.04227800294756889,1.7587143182754517,2.1872754096984863
1782811675147061000,2.92906103515625,-0.12438751757144928,1.9307528734207153,1.4182465076446533
1782811675157132000,2.939132080078125,-0.08834802359342575,1.8446651697158813,0.6452201008796692
1782811675167204000,2.9492041015625,0.07121649384498596,1.3525155782699585,0.028065167367458344
1782811675177276200,2.959276123046875,0.26825231313705444,0.6751466393470764,-0.41698792576789856
1782811675187347200,2.96934716796875,0.3916453421115875,0.06140068545937538,-0.6935091614723206
1782811675197419300,2.979419189453125,0.4563215374946594,-0.43574222922325134,-0.7440932393074036
1782811675207491000,2.989490966796875,0.4770366847515106,-0.7389856576919556,-0.5865206122398376
1782811675217562000,2.99956201171875,0.446557879447937,-0.7511901259422302,-0.2907525897026062
1782811675227634200,3.00963427734375,0.30779287219047546,-0.5833814144134521,0.034410879015922546
1782811675237706200,3.019706298828125,0.023429058492183685,-0.3597147464752197,0.2492866963148117
1782811675247777300,3.02977734375,-0.3178657293319702,-0.2075495421886444,0.2927561104297638
1782811675257849300,3.039849365234375,-0.5927310585975647,-0.1562195122241974,0.1587599366903305
1782811675267920100,3.049920166015625,-0.7584662437438965,-0.23227806389331818,-0.0994764044880867
1782811675277992200,3.0599921875,-0.8334619402885437,-0.4300859570503235,-0.41964027285575867
1782811675288064300,3.070064208984375,-0.8444856405258179,-0.6984826922416687,-0.7441834807395935
1782811675298135000,3.080135009765625,-0.8079121708869934,-1.0255883932113647,-1.0140119791030884
1782811675308207400,3.090207275390625,-0.7231558561325073,-1.308617353439331,-1.2218705415725708
1782811675318279200,3.100279052734375,-0.6316443085670471,-1.42047119140625,-1.3883763551712036
1782811675328350000,3.110349853515625,-0.5623637437820435,-1.335117220878601,-1.5067346096038818
1782811675338422000,3.120422119140625,-0.5300417542457581,-1.109106183052063,-1.5435900688171387
1782811675348494000,3.130494140625,-0.5070465207099915,-0.8080651164054871,-1.4876168966293335
1782811675358565000,3.140565185546875,-0.48065781593322754,-0.5133629441261292,-1.3568992614746094
1782811675368637200,3.15063720703125,-0.44226697087287903,-0.2659354507923126,-1.1525644063949585
1782811675378708200,3.160708251953125,-0.4138561189174652,-0.10801959037780762,-0.9188538789749146
1782811675388780000,3.170780029296875,-0.41510286927223206,-0.04067801311612129,-0.6804375648498535
1782811675398852000,3.18085205078125,-0.44068625569343567,-0.02869059145450592,-0.45874297618865967
1782811675408923100,3.190923095703125,-0.4530351161956787,-0.004760010167956352,-0.27114972472190857
1782811675418995200,3.2009951171875,-0.4183381199836731,0.07720223069190979,-0.12709936499595642
1782811675429067000,3.21106689453125,-0.3688235580921173,0.11006525158882141,-0.05732203647494316
1782811675439138000,3.221137939453125,-0.33195823431015015,0.07871798425912857,-0.060470957309007645
1782811675449209900,3.2312099609375,-0.29160135984420776,0.059329014271497726,-0.11418477445840836
1782811675459282000,3.241281982421875,-0.22575125098228455,0.10879722982645035,-0.19166013598442078
1782811675469353000,3.25135302734375,-0.15614540874958038,0.21876226365566254,-0.25769639015197754
1782811675479425000,3.261425048828125,-0.09765680879354477,0.3711211681365967,-0.2616157531738281
1782811675489496000,3.27149609375,-0.05482282117009163,0.6260378360748291,-0.16103842854499817
1782811675499567900,3.28156787109375,-0.04061752185225487,0.8395280241966248,-0.00425281235948205
1782811675509640000,3.291639892578125,-0.05003754794597626,0.8823836445808411,0.13911305367946625
1782811675519711000,3.3017109375,-0.035592298954725266,0.8323236703872681,0.2418559491634369
1782811675529783000,3.311782958984375,0.021699033677577972,0.8040077090263367,0.35686397552490234
1782811675539855000,3.321855224609375,0.09942685812711716,0.7830685973167419,0.49640244245529175
1782811675549926000,3.33192578125,0.19047118723392487,0.681174099445343,0.6698297262191772
1782811675559997700,3.341997802734375,0.28439316153526306,0.4477594196796417,0.8616476058959961
1782811675570069800,3.35206982421875,0.3923499584197998,0.1941833347082138,1.0646483898162842
1782811675580140800,3.362140869140625,0.5457898378372192,0.0625600516796112,1.259405255317688
1782811675590212900,3.372212890625,0.7488840818405151,0.14489343762397766,1.403462529182434
1782811675600284000,3.382283935546875,0.9438274502754211,0.40739113092422485,1.4738317728042603
1782811675610356000,3.39235595703125,1.0540013313293457,0.7306267619132996,1.5364822149276733
1782811675620427800,3.402427734375,1.0186418294906616,0.9922314882278442,1.6036579608917236
1782811675630498800,3.412498779296875,0.8786276578903198,1.0999082326889038,1.6806726455688477
1782811675640571000,3.42257080078125,0.6824666857719421,0.9745095372200012,1.74468195438385
1782811675650643000,3.432642822265625,0.5192191004753113,0.7978546023368835,1.7802374362945557
1782811675660714000,3.4427138671875,0.454753041267395,0.6854314208030701,1.7280349731445312
1782811675670785800,3.452785888671875,0.36861082911491394,0.3751814365386963,1.477291464805603
1782811675680856800,3.46285693359375,0.27725985646247864,-0.043353255838155746,1.090786099433899
1782811675690929000,3.472928955078125,0.32595521211624146,-0.4063006341457367,0.7466349005699158
1782811675701001000,3.4830009765625,0.45126891136169434,-0.7318580150604248,0.4879031777381897
1782811675711072000,3.493072021484375,0.5472066402435303,-0.9723121523857117,0.3278874158859253
1782811675721144000,3.50314404296875,0.5673484206199646,-1.0334625244140625,0.23477905988693237
1782811675731216000,3.5132158203125,0.4733971357345581,-0.9523424506187439,0.1356751173734665
1782811675741287000,3.523286865234375,0.26464763283729553,-0.8008953928947449,-0.03908071294426918
1782811675751359000,3.53335888671875,-0.00414146576076746,-0.6356760859489441,-0.31115832924842834
1782811675761431000,3.54343115234375,-0.26790574193000793,-0.4974270761013031,-0.6511521339416504
1782811675771502000,3.553502197265625,-0.4916255474090576,-0.41622552275657654,-1.0202586650848389
1782811675781574000,3.563573974609375,-0.6502971649169922,-0.4597357213497162,-1.3640499114990234
1782811675791645000,3.57364501953125,-0.7205515503883362,-0.6694379448890686,-1.621118426322937
1782811675801716700,3.583716796875,-0.6972781419754028,-0.9785640835762024,-1.7898672819137573
1782811675811788800,3.593788818359375,-0.6616858243942261,-1.219673991203308,-1.8907276391983032
1782811675821859800,3.60385986328125,-0.6034166812896729,-1.270198941230774,-1.927491545677185
1782811675831932000,3.613931884765625,-0.5025576949119568,-1.1182197332382202,-1.894904613494873
1782811675842003700,3.624003662109375,-0.3787204623222351,-0.8818650841712952,-1.7986118793487549
1782811675852074800,3.63407470703125,-0.26359185576438904,-0.7043365240097046,-1.6364229917526245
1782811675862146800,3.644146728515625,-0.1659071147441864,-0.5893252491950989,-1.3935989141464233
1782811675872219000,3.654218994140625,-0.065015509724617,-0.4515947997570038,-1.066494107246399
1782811675882290000,3.6642900390625,0.03911515697836876,-0.3094664216041565,-0.6986228823661804
1782811675892362000,3.674362060546875,0.12559789419174194,-0.17468418180942535,-0.34062886238098145
1782811675902433000,3.68443310546875,0.14493884146213531,-0.10325741022825241,-0.07157661020755768
1782811675912504800,3.6945048828125,0.09657296538352966,-0.08838099241256714,0.06258176267147064
1782811675922577000,3.704576904296875,0.02610466070473194,-0.07942584902048111,0.060070138424634933
1782811675932648000,3.71464794921875,-0.026395417749881744,-0.05694102868437767,-0.03696313127875328
1782811675942720000,3.724719970703125,-0.023946374654769897,-0.016755256801843643,-0.1730075180530548
1782811675952791800,3.734791748046875,0.04350138455629349,0.05957260727882385,-0.28676292300224304
1782811675962862800,3.74486279296875,0.15306410193443298,0.18316513299942017,-0.33982667326927185
1782811675972935000,3.754934814453125,0.2516433298587799,0.29082074761390686,-0.31081289052963257
1782811675983006000,3.765005859375,0.309091180562973,0.343485027551651,-0.2104729861021042
1782811675993078000,3.775078125,0.32865938544273376,0.32060378789901733,-0.05697281286120415
1782811676003150000,3.785150146484375,0.29977792501449585,0.23151570558547974,0.10764861851930618
1782811676013221000,3.79522119140625,0.24735502898693085,0.14550001919269562,0.2590574622154236
1782811676023293000,3.80529296875,0.20317956805229187,0.0688241571187973,0.36232367157936096
1782811676033365000,3.815364990234375,0.15401563048362732,-0.004151847213506699,0.41118454933166504
1782811676043435800,3.825435791015625,0.08908217400312424,-0.03786160796880722,0.3758537471294403
1782811676053507800,3.8355078125,0.003612130181863904,-0.0018451032228767872,0.25916439294815063
1782811676063580000,3.845579833984375,-0.04654158279299736,0.20555734634399414,0.08484054356813431
1782811676073651000,3.85565087890625,-0.025182461366057396,0.5464307069778442,-0.08566942811012268
1782811676083722800,3.86572265625,0.03431229293346405,0.7320346832275391,-0.1542503535747528
1782811676093793800,3.875793701171875,0.10271516442298889,0.5325779318809509,-0.08933126926422119
1782811676103865900,3.885865966796875,0.1284615397453308,0.23109714686870575,0.12903915345668793
1782811676113938000,3.89593798828125,0.09068939089775085,0.08606106787919998,0.5174450278282166
1782811676124009000,3.906009033203125,-0.008422015234827995,0.08319151401519775,0.9539730548858643
1782811676134080800,3.916080810546875,-0.1272481083869934,0.1703164428472519,1.3284181356430054
1782811676144152800,3.92615283203125,-0.18717268109321594,0.2709072232246399,1.624005913734436
1782811676154223900,3.936223876953125,-0.18894070386886597,0.37862810492515564,1.9017918109893799
1782811676164296000,3.9462958984375,-0.1739548295736313,0.5019583106040955,2.1530396938323975
1782811676174367000,3.956366943359375,-0.2402152568101883,0.5366292595863342,2.235118865966797
1782811676184439000,3.96643896484375,-0.40086883306503296,0.34042221307754517,2.048529863357544
1782811676194510800,3.9765107421875,-0.5495367050170898,-0.042479630559682846,1.5952147245407104
1782811676204582000,3.986581787109375,-0.5916021466255188,-0.5593137145042419,0.9442289471626282
1782811676214654000,3.996654052734375,-0.45971834659576416,-0.923895001411438,0.24492208659648895
1782811676224726000,4.00672607421875,-0.21387609839439392,-0.8907514214515686,-0.3162094056606293
1782811676234797000,4.016797119140625,-0.015652569010853767,-0.5730925798416138,-0.7022156715393066
1782811676244869000,4.026869140625,0.05501706898212433,-0.22984416782855988,-0.913343608379364
1782811676254941000,4.03694091796875,0.0315740704536438,0.036946576088666916,-0.9739924073219299
1782811676265012000,4.047011962890625,-0.04428687319159508,0.16544516384601593,-0.9140158891677856
1782811676275084000,4.057083984375,-0.13728800415992737,0.1357385218143463,-0.7846716642379761
1782811676285154800,4.06715478515625,-0.23881275951862335,-0.04824462905526161,-0.6454061269760132
1782811676295227000,4.077226806640625,-0.349290668964386,-0.2972913980484009,-0.5496075749397278
1782811676305298700,4.087298583984375,-0.4529683291912079,-0.5450538396835327,-0.5600572824478149
1782811676315369700,4.09736962890625,-0.5495442748069763,-0.7192407250404358,-0.7322684526443481
1782811676325441800,4.10744189453125,-0.6245729923248291,-0.7588901519775391,-1.0638247728347778
1782811676335513900,4.117513916015625,-0.6145623922348022,-0.6177554130554199,-1.4535330533981323
1782811676345585000,4.1275849609375,-0.5214290022850037,-0.30415570735931396,-1.8033483028411865
1782811676355657000,4.137656982421875,-0.404052197933197,0.021848157048225403,-2.0358307361602783
1782811676365728000,4.14772802734375,-0.28920552134513855,0.22430512309074402,-2.0887858867645264
1782811676375799800,4.1577998046875,-0.19043366611003876,0.31079205870628357,-1.9446372985839844
1782811676385872000,4.167871826171875,-0.1221078634262085,0.28914883732795715,-1.636240005493164
1782811676395943000,4.17794287109375,-0.09786637127399445,0.1901405155658722,-1.2523914575576782
1782811676406015000,4.188014892578125,-0.10637810081243515,0.06833044439554214,-0.8604667782783508
1782811676416087000,4.198087158203125,-0.11659416556358337,-0.008097334764897823,-0.5155832767486572
1782811676426157800,4.20815771484375,-0.0823001116514206,-0.06462213397026062,-0.25189414620399475
1782811676436230400,4.21823046875,-0.004494645167142153,-0.06323035061359406,-0.06804648786783218
1782811676446301200,4.22830126953125,0.08033688366413116,-0.014949634671211243,0.05986274778842926
1782811676456373200,4.238373291015625,0.15499575436115265,0.03886448219418526,0.1544671505689621
1782811676466445300,4.2484453125,0.2214757204055786,0.09118867665529251,0.241069957613945
1782811676476516400,4.258516357421875,0.26501816511154175,0.1554446518421173,0.32546380162239075
1782811676486588200,4.268588134765625,0.2777549922466278,0.22620244324207306,0.4119057357311249
1782811676496660200,4.27866015625,0.257954865694046,0.25200092792510986,0.4845086336135864
1782811676506731300,4.288731201171875,0.20327748358249664,0.24013149738311768,0.5695084929466248
1782811676516803300,4.29880322265625,0.14081518352031708,0.26144590973854065,0.6914822459220886
1782811676526875100,4.308875244140625,0.07756857573986053,0.2835048735141754,0.8409883975982666
1782811676536946200,4.3189462890625,0.036952320486307144,0.27836480736732483,0.9972516894340515
1782811676547018200,4.329018310546875,0.03350246325135231,0.2787195146083832,1.1429297924041748
1782811676557089300,4.33908935546875,0.05844513699412346,0.24917033314704895,1.2407525777816772
1782811676567161300,4.349161376953125,0.10469651967287064,0.15549764037132263,1.2584880590438843
1782811676577233400,4.3592333984375,0.18597841262817383,-0.06036880239844322,1.2192333936691284
1782811676587304400,4.369304443359375,0.3264809250831604,-0.2983219623565674,1.2020748853683472
1782811676597376300,4.379376220703125,0.4989908039569855,-0.49301260709762573,1.2547322511672974
1782811676607448300,4.3894482421875,0.610541582107544,-0.7302033305168152,1.3482539653778076
1782811676617519400,4.399519287109375,0.6140308976173401,-1.0333449840545654,1.50593900680542
1782811676627591400,4.40959130859375,0.49849414825439453,-1.1959965229034424,1.7234539985656738
1782811676637662500,4.419662353515625,0.27732181549072266,-1.0891308784484863,1.8880195617675781
1782811676647734500,4.429734619140625,0.07679323852062225,-0.710432767868042,1.9732651710510254
1782811676657806300,4.439806396484375,-0.025028642266988754,-0.216286301612854,1.991756796836853
1782811676667877400,4.44987744140625,-0.048145413398742676,0.11258985847234726,1.9568957090377808
1782811676677949400,4.459949462890625,-0.10804195702075958,0.1621895134449005,1.8322937488555908
1782811676688021500,4.470021484375,-0.2206534594297409,0.016601430252194405,1.557115912437439
1782811676698092300,4.48009228515625,-0.25259071588516235,-0.3347334861755371,1.1459718942642212
1782811676708164000,4.4901640625,-0.09883899241685867,-0.7777955532073975,0.6941962838172913
1782811676718235100,4.500235107421875,0.15194974839687347,-1.2797999382019043,0.27804863452911377
1782811676728307200,4.51030712890625,0.34777143597602844,-1.7812803983688354,-0.059747759252786636
1782811676738379300,4.520379150390625,0.42034560441970825,-2.0149457454681396,-0.3056389391422272
1782811676748450300,4.5304501953125,0.4042870104312897,-1.7861844301223755,-0.4642842411994934
1782811676758522400,4.5405224609375,0.3050757646560669,-1.140884518623352,-0.607239305973053
1782811676768594200,4.55059423828125,0.14512310922145844,-0.37530985474586487,-0.823005199432373
1782811676778665200,4.560665283203125,-0.026391280815005302,0.2400626391172409,-1.1265980005264282
1782811676788737300,4.5707373046875,-0.17912329733371735,0.6360579133033752,-1.4756345748901367
1782811676798808300,4.580808349609375,-0.3077215850353241,0.7966917157173157,-1.7956769466400146
1782811676808880400,4.59088037109375,-0.38213032484054565,0.7183322310447693,-1.9932962656021118
1782811676818952400,4.600952392578125,-0.3683570921421051,0.36365199089050293,-2.008070468902588
1782811676829023500,4.6110234375,-0.27638110518455505,-0.21410562098026276,-1.853933572769165
1782811676839095300,4.62109521484375,-0.15957632660865784,-0.7336453199386597,-1.58787202835083
1782811676849167400,4.63116748046875,-0.05965026840567589,-0.9784060716629028,-1.2729047536849976
1782811676859238400,4.64123828125,0.057513829320669174,-0.9993387460708618,-0.9474947452545166
1782811676869310500,4.651310546875,0.1638309508562088,-0.8254886865615845,-0.6635919213294983
1782811676879382300,4.66138232421875,0.25745055079460144,-0.46933630108833313,-0.3904588222503662
1782811676889453300,4.671453369140625,0.3303263485431671,-0.025320498272776604,-0.1182326227426529
1782811676899525400,4.681525390625,0.34043368697166443,0.3333278298377991,0.1342724710702896
1782811676909596400,4.691596435546875,0.3058432340621948,0.6042881608009338,0.3715854287147522
1782811676919668500,4.70166845703125,0.2594178020954132,0.7888835072517395,0.5868119597434998
1782811676929740500,4.711740478515625,0.20090095698833466,0.878572404384613,0.7367074489593506
1782811676939811300,4.721811279296875,0.12021341919898987,0.842566192150116,0.7810021638870239
1782811676949883100,4.731883056640625,0.04312502592802048,0.7522184252738953,0.728483259677887
1782811676959955200,4.741955078125,0.017719227820634842,0.659928560256958,0.6353166103363037
1782811676970026200,4.752026123046875,0.043429650366306305,0.5465306043624878,0.5311004519462585
1782811676980098300,4.762098388671875,0.10493201017379761,0.4224405288696289,0.44621723890304565
1782811676990169300,4.77216943359375,0.17742431163787842,0.33457112312316895,0.39373937249183655
1782811677000241200,4.7822412109375,0.2374662309885025,0.31630319356918335,0.3776204288005829
1782811677010313200,4.792313232421875,0.25165048241615295,0.3810584843158722,0.4029763638973236
1782811677020384300,4.80238427734375,0.21091453731060028,0.5288486480712891,0.48385053873062134
1782811677030456300,4.812456298828125,0.1347891390323639,0.6467904448509216,0.6057663559913635
1782811677040528400,4.8225283203125,0.031163884326815605,0.657394528388977,0.724115788936615
1782811677050599400,4.832599365234375,-0.05276910215616226,0.5548298358917236,0.8297016024589539
1782811677060671200,4.842671142578125,-0.09248137474060059,0.42184731364250183,0.9216989874839783
1782811677070742300,4.8527421875,-0.11942298710346222,0.3272837996482849,1.0086570978164673
1782811677080814300,4.862814453125,-0.154451385140419,0.27204111218452454,1.082751989364624
1782811677090886400,4.872886474609375,-0.17903076112270355,0.2652577757835388,1.1410748958587646
1782811677100957400,4.88295751953125,-0.16262201964855194,0.33850371837615967,1.1868338584899902
1782811677111029500,4.893029541015625,-0.12134728580713272,0.42104655504226685,1.1726733446121216
1782811677121101300,4.903101318359375,-0.07204641401767731,0.42200252413749695,1.06150221824646
1782811677131172400,4.91317236328125,-0.0416451022028923,0.3462217450141907,0.8478413224220276
1782811677141244400,4.923244384765625,-0.0991048514842987,0.14185215532779694,0.5788633823394775
1782811677151315200,4.933315185546875,-0.2873722314834595,-0.21047233045101166,0.31171685457229614
1782811677161387500,4.943387451171875,-0.4792914092540741,-0.4644489586353302,0.1298660784959793
1782811677171459300,4.953459228515625,-0.5164192914962769,-0.4314737021923065,0.0727258250117302
1782811677181530000,4.963530029296875,-0.41049903631210327,-0.1454625278711319,0.08853922039270401
1782811677191602200,4.973602294921875,-0.270762175321579,0.2529999315738678,0.14718762040138245
1782811677201674200,4.98367431640625,-0.24655643105506897,0.4977087378501892,0.16947561502456665
1782811677211745300,4.993745361328125,-0.3649190366268158,0.36629825830459595,0.08194443583488464
1782811677221817300,5.0038173828125,-0.5409934520721436,0.07919841259717941,-0.0837370902299881
1782811677231888400,5.013888427734375,-0.6371873617172241,-0.12150219827890396,-0.2755565941333771
1782811677241960200,5.023960205078125,-0.6408652663230896,-0.3076561391353607,-0.48859551548957825
1782811677252032300,5.0340322265625,-0.6050947308540344,-0.458710640668869,-0.7070268988609314
1782811677262103300,5.044103271484375,-0.5719236731529236,-0.5709619522094727,-0.916494607925415
1782811677272175400,5.05417529296875,-0.5214415788650513,-0.6002910733222961,-1.1038687229156494
1782811677282247400,5.064247314453125,-0.41717174649238586,-0.5034284591674805,-1.2470057010650635
1782811677292318500,5.074318359375,-0.2683958411216736,-0.3835241496562958,-1.3253002166748047
1782811677302390300,5.084390380859375,-0.13891690969467163,-0.3360210359096527,-1.3142712116241455
1782811677312461300,5.09446142578125,-0.04614810273051262,-0.3835986852645874,-1.1930201053619385
1782811677322533400,5.104533447265625,0.013570821844041348,-0.5300743579864502,-0.9932636618614197
1782811677332605400,5.11460546875,0.002420433098450303,-0.7612902522087097,-0.8513928055763245
1782811677342676500,5.124676513671875,-0.08575724810361862,-0.9459992051124573,-0.922470211982727
1782811677352748300,5.134748291015625,-0.18452617526054382,-0.9314104318618774,-1.2278492450714111
1782811677362820400,5.1448203125,-0.2508294880390167,-0.6588436961174011,-1.6206481456756592
1782811677372891400,5.154891357421875,-0.26955097913742065,-0.2122555375099182,-1.9421108961105347
1782811677382963500,5.16496337890625,-0.26136937737464905,0.21147677302360535,-2.106523036956787
1782811677393034200,5.1750341796875,-0.209422305226326,0.47105348110198975,-2.043128252029419
1782811677403106300,5.185106201171875,-0.1340649574995041,0.5557348132133484,-1.753607988357544
1782811677413178400,5.195178466796875,-0.0644666850566864,0.5221292972564697,-1.3017054796218872
1782811677423249200,5.205249267578125,-0.036347124725580215,0.4426596462726593,-0.7942238450050354
1782811677433321700,5.21532177734375,-0.06563470512628555,0.309679239988327,-0.33656761050224304
1782811677443393800,5.225393798828125,-0.10506957769393921,0.15137697756290436,0.01225995272397995
1782811677453464800,5.23546484375,-0.11558746546506882,0.01563272811472416,0.25977975130081177
1782811677463536600,5.24553662109375,-0.09706339985132217,-0.12062851339578629,0.40082210302352905
1782811677473607400,5.255607421875,-0.05859404057264328,-0.24216799437999725,0.4398297071456909
1782811677483679700,5.2656796875,0.0207508634775877,-0.28542667627334595,0.45375707745552063
1782811677493751800,5.275751708984375,0.11648617684841156,-0.21296603977680206,0.4825751483440399
1782811677503822600,5.285822509765625,0.1966659128665924,-0.059843096882104874,0.5439749956130981
1782811677513894700,5.295894775390625,0.24324539303779602,0.15224039554595947,0.634609580039978
1782811677523966500,5.305966552734375,0.23636148869991302,0.3708943724632263,0.7626733779907227
1782811677534035700,5.31603564453125,0.1696719378232956,0.5000134706497192,0.9078198671340942
1782811677544107800,5.326107666015625,0.06273742020130157,0.5289366841316223,1.0545947551727295
1782811677554179600,5.3361796875,-0.056203875690698624,0.47556743025779724,1.2317922115325928
1782811677564250600,5.346250732421875,-0.17240265011787415,0.3685464560985565,1.4341508150100708
1782811677574322700,5.35632275390625,-0.2509821355342865,0.2918817698955536,1.6032572984695435
1782811677584393700,5.366393798828125,-0.25823432207107544,0.27271682024002075,1.6786640882492065
1782811677594465800,5.3764658203125,-0.2138809859752655,0.3213581144809723,1.6691677570343018
1782811677604537600,5.38653759765625,-0.14374175667762756,0.41061803698539734,1.6105153560638428
1782811677614608600,5.396608642578125,-0.05912701040506363,0.4504038095474243,1.534423828125
1782811677624680700,5.4066806640625,0.03320949897170067,0.4407398998737335,1.468827486038208
1782811677634751500,5.41675146484375,0.13041913509368896,0.4410246014595032,1.4403047561645508
1782811677644823600,5.426823486328125,0.16722993552684784,0.4641970098018646,1.4111942052841187
1782811677654895600,5.4368955078125,0.0928126871585846,0.3803948163986206,1.3452825546264648
1782811677664966700,5.446966552734375,-0.10333491861820221,0.11978711932897568,1.2087093591690063
1782811677675038500,5.45703857421875,-0.3485790193080902,-0.13455834984779358,1.0532009601593018
1782811677685110500,5.467110595703125,-0.47198325395584106,-0.26280146837234497,0.9649381637573242
1782811677695181600,5.477181640625,-0.38345739245414734,-0.2849019765853882,0.9993866682052612
1782811677705253600,5.487253662109375,-0.16719922423362732,-0.07762647420167923,1.0883018970489502
1782811677715324700,5.49732470703125,-0.002575390739366412,0.3417404294013977,1.0797914266586304
1782811677725396700,5.507396728515625,-0.010673531331121922,0.6191701889038086,0.8687682151794434
1782811677735468500,5.517468505859375,-0.17865827679634094,0.7895104885101318,0.5202182531356812
1782811677745539600,5.52753955078125,-0.3901222050189972,1.034582257270813,0.19991452991962433
1782811677755611600,5.537611572265625,-0.5673089623451233,1.1236772537231445,-0.0835009440779686
1782811677765683700,5.54768359375,-0.6453939080238342,1.0447618961334229,-0.4024381935596466
1782811677775754800,5.557754638671875,-0.6468208432197571,0.7048149704933167,-0.7926096320152283
1782811677785826600,5.56782666015625,-0.6443488597869873,0.1766725778579712,-1.2503974437713623
1782811677795897600,5.577897705078125,-0.6683082580566406,-0.3054823577404022,-1.7202235460281372
1782811677805969700,5.5879697265625,-0.6772342324256897,-0.49856799840927124,-2.0968217849731445
1782811677816041700,5.598041748046875,-0.6472414135932922,-0.3857128322124481,-2.2577993869781494
1782811677826112800,5.60811279296875,-0.6002525687217712,-0.15113940834999084,-2.2057273387908936
1782811677836184800,5.618184814453125,-0.5174775719642639,0.11476443707942963,-1.9465105533599854
1782811677846256600,5.628256591796875,-0.41680973768234253,0.1641692966222763,-1.4949562549591064
1782811677856327700,5.63832763671875,-0.3922783136367798,-0.02469783090054989,-0.7524046897888184
1782811677866399700,5.648399658203125,-0.29273656010627747,-1.1945120096206665,-0.24786695837974548
1782811677876470500,5.658470458984375,0.01325424574315548,-1.7875372171401978,0.12587866187095642
1782811677886542600,5.66854248046875,0.3054462969303131,-1.9481717348098755,0.20134536921977997
1782811677896614700,5.67861474609375,0.4769163429737091,-1.721116542816162,-0.06883684545755386
1782811677906685700,5.688685791015625,0.4589183032512665,-1.268500804901123,-0.4323103427886963
1782811677916759800,5.698759765625,0.37177062034606934,-0.7596114873886108,-0.7060353755950928
1782811677926830800,5.708830810546875,0.28656330704689026,-0.26161476969718933,-0.8730613589286804
1782811677936902700,5.718902587890625,0.20498616993427277,0.14736048877239227,-0.953937828540802
1782811677946974700,5.728974609375,0.1830960214138031,0.36343374848365784,-0.9594662189483643
