time,seconds_elapsed,z,y,x
1782812017874042400,0.07304248046875,-0.0068231240183115,-0.035763305100193245,0.004579907102207653
1782812017884113400,0.083113525390625,0.0003565583527088165,-0.025651642664195968,-0.01250983701837249
1782812017894184400,0.093184326171875,0.012772972333431243,-0.045036973208934065,-0.007060065446188673
1782812017904256300,0.10325634765625,-0.0051864627271890635,-0.028526211719820276,-0.00019728983750101178
1782812017914327300,0.113327392578125,-0.007285480833053588,-0.014370945581980049,0.008114282640279271
1782812017924398300,0.1233984375,0.004831657940149307,-0.027759866989823058,0.0029981360697885974
1782812017934469000,0.13346923828125,-0.01163198560476303,-0.03811494626025669,0.009609649464301765
1782812017944540200,0.1435400390625,-0.0013087445110082625,-0.0228700034558773,0.005089875051495619
1782812017954611200,0.153611083984375,-0.005053776258230209,-0.02269594379691407,0.0010314436732791364
1782812017964682200,0.16368212890625,-0.0026624972075223923,-0.02508391664568335,-0.010789853958506136
1782812017974753300,0.173753173828125,-0.003116670715808868,-0.015557050094008444,-0.012895977658592165
1782812017984825300,0.183825439453125,0.0004734627306461334,-0.035091552451625464,-0.010430286231380887
1782812017994896400,0.193896484375,0.0031663550764322278,-0.028840739295398814,-0.006590333609166554
1782812018004967200,0.20396728515625,-0.0049181671798229215,-0.021054478466510772,0.014272261847322805
1782812018015038200,0.2140380859375,0.0045078328132629394,-0.02028493713242933,-0.014184104073257185
1782812018025109200,0.224109130859375,0.001513327172398567,-0.03283509702803567,0.006219915694463998
1782812018035180300,0.23418017578125,-0.003575520399212837,-0.028871435827761888,0.0074036318865837525
1782812018045251300,0.244251220703125,0.005697919380664825,-0.01737977200914174,-0.016595800290908663
1782812018055322400,0.254322265625,0.0031540801167488095,-0.023559474424226207,-0.01078997268951498
1782812018065394400,0.26439453125,-0.003433481580018997,-0.028245330685516816,-0.007866354027506895
1782812018075465200,0.27446533203125,0.0024006314009428023,-0.0224131174006965,0.003005579590727575
1782812018085536300,0.284536376953125,0.0070364745080471035,-0.03147366334856488,0.011934352385089731
1782812018095607300,0.294607177734375,-0.0055360068172216415,-0.03136499707601033,0.0008650193314999341
1782812018105678300,0.30467822265625,0.006431494352221488,-0.027074551606783643,0.0016255142760230228
1782812018115749400,0.314749267578125,0.011368950754404068,-0.010209186260029673,-0.0005073513005161657
1782812018125820400,0.3248203125,0.0044815293282270425,-0.004851020227745175,-0.0053303373104427
1782812018135891200,0.33489111328125,0.003880640825629234,-0.018968383774301035,-0.00012336608476471155
1782812018145962200,0.344962158203125,-0.00450257211625576,-0.014379466815153136,0.000566780737019144
1782812018156034300,0.355034423828125,0.006868132203817367,-0.012805970420734955,-0.0026783249643165617
1782812018166105300,0.365105224609375,-0.0034586160212755203,-0.024732655522599813,-0.004789978789468296
1782812018176176400,0.37517626953125,-0.016330372554063798,-0.013473905410710722,0.0011366758797317742
1782812018186247400,0.385247314453125,0.000727145230770111,-0.011877804458839817,-0.001908952593593858
1782812018196318500,0.395318359375,0.0023719898283481597,-0.018663491676747797,0.0025841895406134427
1782812018206389500,0.405389404296875,0.0007236380994319916,-0.02045607418194413,-0.0024537909268634393
1782812018216460300,0.415460205078125,-0.016935352709889412,-0.009419031396182253,0.007719241740973666
1782812018226531300,0.42553125,-0.0015232640445232391,-0.01685910000274889,-0.0060063094764016564
1782812018236602400,0.435602294921875,0.018376783689856527,-0.026595563317649066,-0.0007830629693577066
1782812018246674200,0.445674072265625,-0.008410100948810577,-0.019159832959482447,-0.0027543950083665546
1782812018256745200,0.4557451171875,-0.011104162338376045,-0.013873736649565397,0.0011344884892227128
1782812018266816300,0.465816162109375,-0.01499649360179901,-0.024785025030653923,0.019182419250626116
1782812018276887300,0.47588720703125,-0.009310264658927916,-0.020577070213109255,-0.0015182088434929028
1782812018286958300,0.485958251953125,0.002363222000002861,-0.017351395298028365,-0.004334859999688342
1782812018297029400,0.496029296875,-0.00003039513826370239,-0.01062997808852233,0.012933058265969157
1782812018307100400,0.506100341796875,0.008347557106614112,-0.018451237165555356,-0.006392103056749329
1782812018317171500,0.51617138671875,0.009393851289153099,-0.016839856446161865,0.004042740618740208
1782812018327242500,0.526242431640625,0.003553893089294433,-0.028410129325790328,-0.00882086914021056
1782812018337314300,0.536314208984375,-0.005727145475149155,-0.018325080902082843,0.005802060175151564
1782812018347385300,0.54638525390625,-0.00019347674548625944,-0.019709027807461095,0.010908731097821145
1782812018357456100,0.5564560546875,0.007285480833053588,-0.004150817802827805,-0.0020405293842777608
1782812018367527200,0.566527099609375,-0.004087561574578285,-0.010370085043320432,0.00352983636027202
1782812018377597700,0.57659765625,-0.010222118806838989,-0.015144934762315824,0.017280914744548497
1782812018387668700,0.586668701171875,-0.0013929156631231306,-0.01263003846509382,0.004628559416369535
1782812018397739800,0.59673974609375,0.00025368250012397763,-0.03271196383871138,0.003389793135342188
1782812018407810600,0.606810546875,0.0024959084689617156,-0.030377693938557056,0.0016290625065565108
1782812018417881600,0.616881591796875,0.006385901644825935,-0.031894975766865535,-0.0007691668747458607
1782812018427953400,0.626953369140625,-0.00573649782538414,-0.01277227821368724,-0.00139323075695429
1782812018438024400,0.6370244140625,-0.0018447510838508604,-0.02469410447734408,0.0044568424115423114
1782812018448095500,0.647095458984375,-0.012920856371521948,-0.010712687935912981,0.008991385135217569
1782812018458166500,0.65716650390625,0.009974866047501564,-0.01957517229472287,-0.007647194851492531
1782812018468237600,0.667237548828125,-0.0004985971719026565,-0.015430665501672774,-0.003874717974918894
1782812018478308600,0.67730859375,-0.0031926585614681243,-0.009084721407899633,-0.007632828399422578
1782812018488379400,0.68737939453125,-0.008581365862488746,-0.023193033998319876,-0.011281624097400344
1782812018498450400,0.697450439453125,-0.0019990648627281186,-0.015556666501518338,-0.01359681940432638
1782812018508522500,0.7075224609375,-0.008283259698748588,-0.016633712015347555,0.003088992691016756
1782812018518593500,0.717593505859375,-0.0015507365733385084,-0.016553093660343438,0.0017358427827013656
1782812018528664600,0.72766455078125,-0.01815875702500343,-0.015759495597239583,0.0014329919451847673
1782812018538735600,0.737735595703125,0.008476151922345162,-0.009031000192975624,0.011032051516813225
1782812018548806700,0.747806640625,-0.007684709283709526,-0.018442578935064374,-0.009454043344059027
1782812018558877400,0.75787744140625,-0.0009516016364097595,-0.027684874658007175,-0.0003190530536463484
1782812018568948500,0.767948486328125,-0.001104161849617958,-0.0195723410168197,-0.01476764871540945
1782812018579019500,0.77801953125,-0.006043371817469597,-0.013577347518876194,0.004867121979175135
1782812018589090600,0.788090576171875,-0.0014057751446962356,-0.019156051833508537,0.003484860140806995
1782812018599162600,0.79816259765625,-0.0027542671442031858,-0.006507390866335481,-0.003915707572433166
1782812018609233700,0.808233642578125,-0.006796236011385917,-0.019066300323978064,-0.014281678129639475
1782812018619304700,0.8183046875,-0.00350654681622982,-0.03340928931995295,-0.006993840942718088
1782812018629375500,0.82837548828125,0.0005313303977251052,-0.03177871984289959,-0.010776478453702294
1782812018639446500,0.838446533203125,0.0008294365614652633,-0.021194398393854497,-0.005348000831296667
1782812018649517600,0.848517578125,0.01265022273659706,-0.029777864881884306,-0.0017064979572081937
1782812018659588600,0.858588623046875,0.005619593447446823,-0.01837309389542788,-0.005732575135515071
1782812018669659600,0.86865966796875,-0.00485679238140583,-0.012873957623029127,-0.0019464852921199053
1782812018679730700,0.878730712890625,-0.008597147953510284,-0.01921053110025823,-0.011654457731475122
1782812018689802800,0.888802734375,-0.005455927318334579,-0.01213042751303874,0.013092089319159277
1782812018699873500,0.89887353515625,-0.00291442614197731,-0.022322918366594238,0.0034300201144535094
1782812018709944600,0.908944580078125,0.004864975687861442,-0.016712768600927665,-0.008363129135081544
1782812018720015600,0.919015625,-0.003067570877075195,-0.014769498179201037,-0.011853734030085616
1782812018730086700,0.929086669921875,0.0156330379396677,-0.0015113087452482432,-0.0014659717661794274
1782812018740157700,0.93915771484375,-0.002323474511504173,-0.009150196992699056,-0.010548181556584314
1782812018750228700,0.949228759765625,-0.0024719430714845655,-0.013260235260566695,-0.0017491954546188934
1782812018760299500,0.959299560546875,-0.005316226586699485,-0.014978610885236412,-0.0029611833265749737
1782812018770370600,0.96937060546875,0.007852467066049576,-0.017803723909100518,-0.001986675738613121
1782812018780442400,0.9794423828125,-0.0023240590333938596,-0.02695312631735578,-0.011539498715451919
1782812018790513400,0.989513427734375,-0.010402736070752143,-0.028244846628326922,-0.002640445205918513
1782812018800584400,0.99958447265625,-0.012945990812778472,-0.019334778534434733,0.019414853466744535
1782812018810655500,1.009655517578125,-0.000675122782588005,-0.032709753615316,-0.01509140534363687
1782812018820726500,1.0197265625,-0.0060632455617189406,-0.013961515397718175,-0.009369022808573208
1782812018830797600,1.029797607421875,-0.015489830076694487,-0.023825632813433185,0.005045392022375017
1782812018840868400,1.039868408203125,0.00815291131734848,-0.015590897564683109,-0.007875354751292616
1782812018850939400,1.049939453125,-0.0021750059515237806,-0.01499231061702594,-0.021824755019531582
1782812018861010400,1.060010498046875,-0.004720014259219169,-0.011471315150335431,0.0024857569677056743
1782812018871081500,1.07008154296875,-0.005320902761816978,-0.012817651725374161,-0.01019259131825529
1782812018881153500,1.080153564453125,-0.019238368955254555,-0.020344932824512944,0.001567728807334788
1782812018891224600,1.090224609375,-0.01026128177344799,-0.01706585635491647,-0.0008025942203123122
1782812018901295600,1.100295654296875,0.00021218144595623015,-0.016215331339649856,0.006784915466350503
1782812018911366400,1.110366455078125,-0.008767828345298767,-0.02746594381085597,-0.006455427783657796
1782812018921437400,1.1204375,-0.0023357494711875914,-0.01997303990535438,-0.00521148757059127
1782812018931508500,1.130508544921875,-0.013262217155098914,-0.01729433134854771,0.017065322065376677
1782812018941579500,1.14057958984375,-0.009372223979234694,-0.02224373391685076,-0.005231680975249037
1782812018951650600,1.150650634765625,0.0075362407237291335,-0.01969725517127663,0.005392657390353269
1782812018961721600,1.1607216796875,-0.009520692539215087,-0.02443148975209333,-0.012821834710147232
1782812018971793700,1.170793701171875,-0.0018903437912464142,-0.01684693464091979,-0.003849556134198792
1782812018981864400,1.180864501953125,-0.006681669721007347,-0.023989326342009006,0.0017541182249085976
1782812018991935500,1.190935546875,-0.01610883875787258,-0.018608957611070946,-0.00833303539091721
1782812019002006500,1.201006591796875,-0.0006944120049476623,0.006000582988513633,0.0000026075156172737477
1782812019012077600,1.21107763671875,0.011125789648294448,-0.023108853713050482,-0.007351495273970067
1782812019022148600,1.221148681640625,0.004539396995306015,-0.031052935452153905,-0.005627247030939906
1782812019032219600,1.2312197265625,-0.0029430677145719526,-0.01172602056376636,0.0072549852300900965
1782812019042290400,1.24129052734375,-0.0015980828464031219,-0.022235760672949252,-0.0004308063324308023
1782812019052361500,1.251361572265625,-0.0038432314246892928,-0.0253235888867639,-0.01113341126574669
1782812019062433500,1.26143359375,0.008576105165481566,0.0052539110733661794,-0.005188325890712439
1782812019072504600,1.271504638671875,0.013214286360144614,-0.018181973503809422,-0.004594556682067923
1782812019082575600,1.28157568359375,-0.011774608945846556,-0.02017522968025878,-0.024846961518074383
1782812019092646700,1.291646728515625,-0.011626724907755851,-0.02079727056873962,0.01913824674875941
1782812019102717700,1.3017177734375,0.012316460737586021,-0.01993287229174748,-0.008927763580786995
1782812019112788700,1.311788818359375,0.008426467561721801,-0.022192149860085917,-0.0037959445171291007
1782812019122859500,1.321859619140625,-0.0024988310784101486,-0.026844679240509865,0.008004876582208088
1782812019132930600,1.3319306640625,-0.006391746863722801,-0.008600499821221455,0.002932619385793805
1782812019143001600,1.342001708984375,0.0036351416319608688,-0.012958895960124209,-0.0033013431003317234
1782812019153073700,1.35207373046875,-0.008633388310670852,-0.015011901233484967,-0.0001128127247095108
1782812019163144700,1.362144775390625,-0.010728314763307571,-0.021589571723900733,0.003512565565062687
1782812019173215700,1.3722158203125,-0.005040916776657104,-0.013383039656328036,-0.002067650286643766
1782812019183286800,1.382286865234375,-0.0007008417457342147,-0.02333556600785814,0.0020531194377923384
1782812019193357600,1.392357666015625,-0.00713467418551445,-0.009946261007525025,-0.009178920763684437
1782812019203428600,1.4024287109375,-0.007733809122443198,0.0015011252779513597,0.004011797491204925
1782812019213499600,1.412499755859375,-0.008182137411832808,-0.007600474199512973,0.01376575993017759
1782812019223570700,1.42257080078125,0.0027408231407403945,-0.01940771590648219,0.008012078074552119
1782812019233641700,1.432641845703125,-0.006837152543663978,-0.009670302743511274,-0.0005421531858388334
1782812019243713500,1.442713623046875,-0.002496492990851402,-0.009718133073765784,-0.008194124677148647
1782812019253784600,1.45278466796875,0.00034486791491508483,-0.015176453278586268,-0.009622550045070238
1782812019263855400,1.46285546875,-0.007287818920612334,-0.013587658850336446,-0.005309920143499039
1782812019273926400,1.472926513671875,-0.020754618737101552,-0.012849928293470293,-0.005358019901812076
1782812019283997400,1.48299755859375,-0.005189969858527183,-0.01196126322490163,-0.00823704137026798
1782812019294068500,1.493068359375,-0.002345686343312263,-0.011119305108580738,-0.01793220912697725
1782812019304139500,1.503139404296875,-0.003096212449669838,-0.023203902452206236,0.004315515978401526
1782812019314210600,1.51321044921875,-0.01387070444226265,-0.010249280808400362,0.0001921478715026751
1782812019324281300,1.52328125,0.00573123712837696,-0.01741573837166652,0.0009765716808848083
1782812019334353400,1.533353515625,0.015457681372761725,-0.0088990169769153,-0.005399457023898139
1782812019344424400,1.543424560546875,-0.004296235889196396,-0.022091164570488035,-0.017985254488466305
1782812019354495500,1.55349560546875,-0.004147182807326316,-0.01144474680381827,0.008893226556945591
1782812019364566500,1.56356640625,-0.00369651643037796,-0.00009688450321555137,0.006717485386482439
1782812019374637600,1.573637451171875,-0.014170564171671866,-0.01001136213298887,0.004453970034443773
1782812019384708600,1.58370849609375,0.0045353053420782085,-0.005970534910121932,0.013275830121920443
1782812019394779600,1.593779541015625,0.007528057417273521,-0.017906426231749355,0.0029968163289595395
1782812019404850700,1.6038505859375,0.00019523031115531922,-0.0024720435361843553,0.002315843760897405
1782812019414921700,1.613921630859375,-0.00010638298392295837,-0.0019344843270722775,-0.0015988682976923881
1782812019424992500,1.623992431640625,-0.0013046528577804564,-0.009657059669448062,0.005865572131727822
1782812019435064600,1.634064697265625,-0.004895955348014831,-0.010108383633522317,-0.0032678472561063245
1782812019445135600,1.644135498046875,-0.0141734867811203,-0.030325507093593475,0.0012291810353519395
1782812019455206700,1.65420654296875,0.0030348376512527465,-0.022660397559497503,0.006207818831293843
1782812019465277700,1.664277587890625,-0.0005558803170919418,-0.0048452024083118885,0.004955055990954861
1782812019475348700,1.6743486328125,-0.018960136535763738,-0.0036076508368365462,-0.008504989857762121
1782812019485419800,1.684419677734375,-0.010428455033898353,-0.011068451704178004,-0.004428954324196092
1782812019495490600,1.694490478515625,-0.00010053776502609253,-0.014029849659884347,-0.0010130403669085352
1782812019505561600,1.7045615234375,-0.011622048732638359,-0.013274893973581493,-0.02807243093717843
1782812019515632600,1.714632568359375,-0.006533785682916641,-0.00556833818424493,-0.022814839202538132
1782812019525704700,1.72470458984375,0.004987725284695625,-0.011183291989192367,-0.0051339333889307455
1782812019535775700,1.734775634765625,-0.0068348144561052315,-0.007102909074071794,-0.0012327109995763747
1782812019545846800,1.7448466796875,-0.007582417953014373,-0.016868278823047877,-0.011400040012411773
1782812019555917800,1.754917724609375,0.0016939444363117217,-0.015125828203046693,-0.013609496222808956
1782812019565988600,1.764988525390625,0.0012432780593633651,-0.013885235291114077,0.0026875174843473356
1782812019576059600,1.7750595703125,-0.008333528581261634,-0.01578068451574072,0.011747277980926446
1782812019586130700,1.785130615234375,0.0016898527830839156,-0.01914777719550766,0.0006860232025152072
1782812019596201700,1.79520166015625,-0.008183890977501869,-0.012755783736612647,-0.016534548790077677
1782812019606272800,1.805272705078125,-0.0065390463799238204,-0.0065375028768088666,-0.009447417240450158
1782812019616343800,1.81534375,0.0061801499396562576,-0.01315161465378478,0.00450694233069662
1782812019626415600,1.82541552734375,-0.004892448216676712,0.006106308385310694,-0.0016602567958412691
1782812019636486700,1.835486572265625,-0.013121931901574135,-0.004453782804775983,-0.0016254503439413384
1782812019646557700,1.8455576171875,0.004234276568889618,-0.015260724895400925,-0.002793375311885029
1782812019656628700,1.855628662109375,-0.012974632385373115,-0.008022626868030056,-0.0011155782927758991
1782812019666699500,1.865699462890625,-0.017464929541945458,-0.013300905197672545,0.008375499992887489
1782812019676770600,1.8757705078125,-0.0008557400465011596,-0.018075216060550882,-0.010308573247585445
1782812019686841600,1.885841552734375,0.0010889642804861068,-0.02285382863921113,-0.02582436431602109
1782812019696912600,1.89591259765625,-0.01447451555430889,-0.01127185618863441,0.0038977152580162507
1782812019706983700,1.905983642578125,-0.019115034836530684,-0.02603473283080384,-0.004202840251009911
1782812019717055500,1.916055419921875,0.000187047004699707,-0.019080675909202545,-0.0011311640209751203
1782812019727126500,1.92612646484375,0.009015665626525879,-0.02277627902412787,-0.0002317492295289412
1782812019737197600,1.936197509765625,0.00168225399851799,-0.002515462552802637,-0.006337482226104476
1782812019747268600,1.9462685546875,-0.0008615852653980255,-0.017943863032152875,-0.013751548741734586
1782812019757339600,1.956339599609375,0.014102175110578536,-0.01301010555755347,-0.00011291318940930068
1782812019767410700,1.96641064453125,-0.011187748968601226,-0.01780101136220619,-0.007573065602779388
1782812019777481500,1.9764814453125,-0.015225626182556152,-0.012099685314903035,-0.002626439513452351
1782812019787552500,1.986552490234375,-0.011485855132341384,-0.009771443296736106,-0.00764656009725295
1782812019797623600,1.99662353515625,-0.005350713378190994,-0.01035579165648669,-0.005814636528934352
1782812019807694600,2.006694580078125,0.008265724042057991,-0.02734553230158053,-0.007533350080321542
1782812019817766700,2.0167666015625,-0.009841010534763335,-0.0011246840478386728,-0.004714397369185462
1782812019827837700,2.026837646484375,0.004223170652985573,-0.011157865286991,-0.005839168181992135
1782812019837908700,2.03690869140625,-0.004157704201340675,-0.027102745654806495,-0.004875602113152854
1782812019847979500,2.0469794921875,-0.00774900669157505,-0.021860817280178888,0.006656663143914192
1782812019858050600,2.057050537109375,-0.0074503160059452055,-0.009402381655480713,-0.008897044215537607
1782812019868121600,2.06712158203125,0.008258709779381751,-0.011758963852142914,0.001414638871164061
1782812019878192600,2.077192626953125,-0.0074526540935039515,-0.01525424948884174,-0.008380098536191507
1782812019888263700,2.087263671875,0.00032967034578323365,-0.019650255958084017,0.006595754136377945
1782812019898334700,2.097334716796875,-0.0016150339812040328,-0.007379926784010603,-0.005412156675267033
1782812019908406800,2.10740673828125,-0.01194002864062786,-0.019978474132297558,-0.008829600435937755
1782812019918477600,2.1174775390625,-0.006404606345295906,-0.011792035004682839,-0.0006682135511888191
1782812019928548600,2.127548583984375,0.005115735578536987,-0.015818139582453296,0.008622528989939019
1782812019938619600,2.13761962890625,-0.001169043779373169,-0.012971408381825313,0.001180382590717636
1782812019948690700,2.147690673828125,0.0019715923339128495,-0.0019822872578632083,-0.006325152467493899
1782812019958761700,2.15776171875,-0.0053606502503156656,-0.018428504743939266,0.003645937020611018
1782812019968832800,2.167832763671875,0.002421089667081833,-0.01322025944320485,0.004790197985176928
1782812019978903600,2.177903564453125,-0.0074549921810626975,-0.012170202401001006,0.012806755872024223
1782812019988974600,2.187974609375,-0.004313771545886993,-0.011075904358271509,0.006461250169668346
1782812019999045600,2.198045654296875,0.013044775012135504,-0.02293061106931418,-0.004937278305669315
1782812020009117700,2.20811767578125,-0.0031160861939191816,-0.013632822299469261,-0.014582656670478172
1782812020019188700,2.218188720703125,0.002571311792731285,-0.01635169846988283,-0.004231216962123289
1782812020029259800,2.228259765625,0.0019727613776922225,-0.012720748955849558,0.0008483695907983928
1782812020039330800,2.238330810546875,-0.00895019917488098,-0.019931173525005577,-0.0023750129024963824
1782812020049401900,2.24840185546875,0.0030190555602312087,-0.013242462141858414,0.0021980123677756637
1782812020059472600,2.25847265625,0.0024199206233024594,-0.010940130883082747,0.015165735521749593
1782812020069543700,2.268543701171875,0.0030190555602312087,-0.011506733523588627,0.0012425885061966254
1782812020079614700,2.27861474609375,-0.004464578193426132,-0.010389136803662404,-0.011100833303551189
1782812020089685800,2.288685791015625,-0.0052151042997837065,-0.015215990704530849,-0.00003978858769405633
1782812020099757600,2.298757568359375,-0.002221183180809021,-0.005077595525234937,-0.01615599323469214
1782812020109828600,2.30882861328125,-0.005812485671043395,-0.008059689209097996,0.004354194887820631
1782812020119899600,2.318899658203125,-0.014192191481590271,-0.019757068200269713,-0.0023120946009643375
1782812020129970400,2.328970458984375,0.007203647768497467,-0.013900962583208457,0.007182874408527277
1782812020140041500,2.33904150390625,0.007951835787296295,-0.013479778029071167,-0.01075074122424703
1782812020150112500,2.349112548828125,-0.00880816035568714,-0.01077216303818859,0.0060118441680446265
1782812020160183600,2.35918359375,-0.006414543217420578,-0.013172940569603815,-0.014797107705334201
1782812020170254600,2.369254638671875,0.0018166940331459044,-0.0066382872370071705,-0.008012667163019068
1782812020180325600,2.37932568359375,-0.0037210663497447964,-0.018706865027593448,0.00013552688001655042
1782812020190396700,2.389396728515625,0.002563128486275673,-0.009965705493511631,-0.0030502407163614407
1782812020200468500,2.399468505859375,-0.005969137537479401,-0.01786296154935844,-0.0067530818562489
1782812020210539500,2.40953955078125,-0.00746843618452549,-0.022168504123017192,0.012578372209938243
1782812020220610600,2.419610595703125,-0.0005874444991350174,-0.016827965078968554,0.0030735302604036406
1782812020230681600,2.429681640625,0.008539280286431312,-0.02365150008923374,-0.009965650694584473
1782812020240752600,2.439752685546875,0.004347673815488815,-0.021282779930206015,0.009433658143156208
1782812020250823700,2.44982373046875,-0.0040343700826168056,-0.015075723717315121,-0.008071187850646673
1782812020260894500,2.45989453125,-0.01061900916993618,-0.015162315155379474,0.001328348827199079
1782812020270965500,2.469965576171875,-0.0025397476106882094,-0.00786384697658941,-0.00471174875437282
1782812020281036500,2.48003662109375,-0.0011953472644090652,-0.010880308720935136,0.0031083732449216765
1782812020291107600,2.490107666015625,-0.0028419454276561737,-0.006333586935698986,-0.004129852646612562
1782812020301179600,2.5001796875,-0.005684475377202034,-0.014090740401111542,-0.0010257491514319554
1782812020311250700,2.510250732421875,-0.011369535276293754,-0.020583545619668436,0.00166944474929478
1782812020321321700,2.52032177734375,-0.005084755918383598,-0.014149484851025044,0.003557327155396342
1782812020331392500,2.530392578125,0.0004512508988380432,-0.010990299300896003,-0.01642876859435346
1782812020341463600,2.540463623046875,0.0026946459114551543,-0.029787153300037606,-0.00412011670388747
1782812020351534600,2.55053466796875,-0.013467968860268593,-0.007734183581778779,0.011466999734821728
1782812020361605600,2.560605712890625,-0.01212473755776882,-0.008531069580512122,-0.014875419938820413
1782812020371676700,2.5706767578125,-0.012720949885249137,-0.014349510068306698,-0.006363096157973632
1782812020381748200,2.580748291015625,0.0005950432837009429,-0.011890307747386395,-0.0015053310956107452
1782812020391819300,2.5908193359375,-0.0032978725016117095,-0.014115546048805118,0.012611589492950588
1782812020401891300,2.600891357421875,0.0020879121899604796,-0.0034101646365132183,0.00572610429553315
1782812020411962000,2.610962158203125,-0.008539280286431312,-0.009698971715569495,-0.00244134243724402
1782812020422033200,2.621033203125,0.005973229190707206,-0.005511000240128487,-0.006161869930871762
1782812020432104200,2.631104248046875,0.014353519523143768,-0.0001502769245766103,-0.011816274396795778
1782812020442175200,2.64117529296875,0.0016337386816740035,-0.0010828815995715558,-0.0024448358688503504
1782812020452246300,2.651246337890625,-0.00495265397131443,-0.00945357298660092,0.011763635460683144
1782812020462317300,2.6613173828125,-0.0046533787637948985,-0.004804066680325195,0.0037952686636941505
1782812020472388000,2.67138818359375,0.0035766894429922103,-0.017215649222303182,-0.006395244861906394
1782812020482459100,2.681459228515625,-0.015876783567667006,-0.015070673082862049,0.00010071129496209323
1782812020492530200,2.6915302734375,-0.010936989077925681,-0.004397714369138703,-0.008319262593891472
1782812020502602000,2.70160205078125,0.001931260323524475,-0.011825517149176448,-0.013199312553298658
1782812020512673000,2.711673095703125,-0.007495908713340759,-0.02109773308634758,-0.010514251887518911
1782812020522744000,2.721744140625,-0.0034568624556064603,-0.008034299039514735,-0.006131356061599217
1782812020532815000,2.731815185546875,-0.004953238493204117,-0.008677273118169978,-0.009703702689614147
1782812020542886100,2.74188623046875,-0.0015121581286191938,-0.014310913357278332,-0.00788144199878443
1782812020552957200,2.751957275390625,0.0047714521855115885,-0.002120636282628402,-0.002652998726814985
1782812020563028200,2.7620283203125,-0.0007657236754894256,-0.0061206931036897,-0.004988533568871207
1782812020573099300,2.772099365234375,0.003723404437303543,-0.017965380744216962,-0.008585722377197817
1782812020583170000,2.782170166015625,-0.0001689268261194229,-0.021284314300166442,0.012283184089069255
1782812020593241000,2.792240966796875,-0.006755904000997543,-0.009303405659878626,0.005437336782296188
1782812020603313200,2.802313232421875,-0.016335633251070975,-0.006723673098674043,0.000814339457033202
1782812020613384200,2.81238427734375,-0.014091069194674491,-0.012362711032107471,-0.00013096030275337397
1782812020623455000,2.822455078125,-0.0018231237739324568,-0.001342171856574714,-0.0061122632020618765
1782812020633526000,2.832526123046875,0.00895195274055004,0.0017093429348431527,-0.005912388681829907
1782812020643597000,2.84259716796875,0.004912321960926056,-0.01489620243194513,0.006346405318076722
1782812020653668000,2.852668212890625,0.007605798828601837,-0.007538697542296722,0.004361834771581925
1782812020663739100,2.8627392578125,-0.009153612792491913,-0.009951229443587362,-0.009072916805674321
1782812020673810200,2.87281005859375,0.009103928431868552,-0.018713733159797265,-0.01056089947426226
1782812020683881000,2.882880859375,-0.0028688334345817563,-0.009593428981862962,-0.0018146801725728435
1782812020693952000,2.892951904296875,0.0023696517407894133,-0.0174652218028903,-0.0004384918819647282
1782812020704024000,2.903024169921875,-0.004364040428400039,-0.012080058165825903,-0.010266391773405483
1782812020714095000,2.91309521484375,-0.0075064301073551176,-0.012110234108380972,-0.02249584094781894
1782812020724166100,2.923166259765625,-0.0004734627306461334,-0.01673774777855724,0.0029865917624672875
1782812020734237200,2.9332373046875,-0.01454115104973316,-0.008562505898391828,0.002092917158640921
1782812020744308200,2.94330810546875,-0.0031698622077703472,-0.006376485362509265,-0.0037945791105274108
1782812020754379000,2.95337890625,-0.0009252981513738632,-0.012776525130541994,0.010196829101955518
1782812020764450000,2.963449951171875,-0.00032850130200386043,-0.016979063987452536,-0.0002659026608802378
1782812020774521000,2.97352099609375,0.0056529111951589585,-0.02093255085358396,-0.00520471533650998
1782812020784592100,2.983592041015625,-0.003475567156076431,-0.01613570849848911,-0.014220682357135228
1782812020794663200,2.9936630859375,-0.010357727885246276,-0.0069340553131885824,0.0015366030167089774
1782812020804735200,3.0037353515625,-0.003324760508537292,-0.008600719016930087,-0.012941081742220558
1782812020814806300,3.01380615234375,-0.004672667986154556,-0.007648130999831483,-0.00927556323830504
1782812020824877000,3.023876953125,0.006999065107107162,-0.0033224589535966512,0.010241882953234017
1782812020834948000,3.033947998046875,0.0002665419816970825,-0.0018916589654982088,0.012765090421075001
1782812020845019100,3.04401904296875,-0.00841477712392807,-0.010612369366595521,0.007179444909002631
1782812020855090200,3.054090087890625,0.005499766460061073,-0.01363565357737243,0.008834002616419456
1782812020865161200,3.0641611328125,-0.013206103053689001,-0.016270185065735132,0.007056768377404659
1782812020875232300,3.074232177734375,-0.004828150808811187,-0.0016575122829061001,-0.017748048199107868
1782812020885303300,3.08430322265625,-0.010215689066052436,-0.018225081993173808,0.001243926513334736
1782812020895374000,3.0943740234375,-0.004828150808811187,0.0026977329176850616,-0.0036932056618621573
1782812020905446100,3.104446044921875,0.008491349491477012,-0.015656491880491376,0.0004754309254465624
1782812020915517200,3.11451708984375,-0.006173720198869705,-0.017143670831480995,-0.0030915180082432925
1782812020925588200,3.124588134765625,0.008940262302756309,0.00023079481488093732,-0.0058690746964886785
1782812020935659300,3.1346591796875,-0.002730301746726036,-0.00012020144672133028,-0.0103000839804532
1782812020945730300,3.144730224609375,0.004902385088801383,-0.004951822854252532,0.005313303977251053
1782812020955801300,3.15480126953125,-0.001980360162258148,-0.0089057755112648,0.0034146581485401837
1782812020965872000,3.1648720703125,-0.0070697922557592385,-0.0014509385938290505,0.002390584930963814
1782812020975943200,3.174943115234375,-0.003777180451154709,-0.002288065271405503,-0.0021757777030812575
1782812020986014200,3.18501416015625,0.009688450321555138,-0.006069775767205282,-0.004106622468074784
1782812020996085200,3.195085205078125,0.0032552024036645887,-0.013435993686271831,0.005529106718976982
1782812021006157000,3.205156982421875,0.004003390422463417,-0.020189121208293363,0.013192846279894001
1782812021016228000,3.21522802734375,-0.009461655828356742,-0.01599407153809443,0.0059718318180646745
1782812021026299100,3.225299072265625,-0.0007832593321800232,-0.0052100171327125275,-0.01192621474440675
1782812021036370000,3.235369873046875,0.006548983252048492,0.001828768063429743,-0.007452617560885846
1782812021046441000,3.24544091796875,-0.005868599772453307,-0.010730890312884002,0.006725129836820997
1782812021056512000,3.255511962890625,0.00341068522632122,-0.008426147901313378,0.010751987899839877
1782812021066583000,3.2655830078125,-0.0027250410497188567,-0.013909410751145332,0.006507121438276953
1782812021076654000,3.275654052734375,0.006403437301516533,-0.007389315666863694,-0.0037324279939755793
1782812021086725000,3.28572509765625,0.00041851767301559446,0.001477114214701578,-0.0043846493915887545
1782812021096796200,3.295796142578125,0.003113748106360435,-0.004573993384651839,0.010102246153680607
1782812021106868000,3.305867919921875,-0.001225157880783081,-0.021677797996625302,-0.015889264023327267
1782812021116939000,3.31593896484375,0.0014677344650030136,-0.022426798866176975,-0.00097428839225322
1782812021127010000,3.326010009765625,-0.008109072175621986,-0.005656856717914343,0.0034180008830968288
1782812021137081000,3.3360810546875,0.00011924246549606323,-0.005976142667001113,-0.013824636810831724
1782812021147152100,3.346152099609375,-0.003921557357907295,-0.007144574525021016,-0.010125133838923647
1782812021157223200,3.35622314453125,-0.012749006935954094,-0.010569991529593243,0.0031332154252333563
1782812021167294000,3.3662939453125,-0.006014145722985267,0.0038858467237092554,0.005524594940640963
1782812021177365000,3.376364990234375,-0.01633797133862972,-0.0029239520221482963,0.005691156279738061
1782812021187436000,3.38643603515625,-0.000029226094484329223,-0.007636778488755226,-0.00901197126551997
1782812021197507000,3.396507080078125,0.004458732974529266,-0.005326556184468791,0.0006573816299205646
1782812021207578000,3.406578125,-0.0010778583645820617,-0.022203885963652283,0.005886331791966222
1782812021217650200,3.416650146484375,-0.0033241759866476056,-0.006524460732145234,-0.002654966921615414
1782812021227721200,3.42672119140625,0.004606617012619972,-0.013406986787496133,0.0011823827515589072
1782812021237792300,3.436792236328125,-0.007062777993083,-0.018934728099871425,0.005451525137852877
1782812021247863000,3.446863037109375,0.0002706336349248886,-0.01762869613575749,0.009195611603581346
1782812021257934000,3.45693408203125,-0.013048282143473625,-0.031034605211019514,-0.008206696464354173
1782812021268005000,3.467005126953125,-0.0010801964521408081,-0.018141970286983996,0.004296276988391764
1782812021278076200,3.477076171875,-0.0033259295523166655,-0.022585998882725833,-0.015235453456826507
1782812021288147200,3.487147216796875,-0.006168459501862526,-0.007313565283222124,-0.013513497635582461
1782812021298218200,3.49721826171875,0.010439560949802399,0.010181138342479244,-0.0017219923538621515
1782812021308289000,3.5072890625,-0.012755436676740646,-0.0084610548179131,-0.007704473430104553
1782812021318361000,3.517361083984375,0.004900047001242637,-0.01749847561852075,0.0023414439930347724
1782812021328432000,3.52743212890625,0.00116027595102787,-0.004862747198157012,0.003695242355321534
1782812021338503200,3.537503173828125,-0.005126841494441032,-0.018000589054916052,-0.0003810763060348108
1782812021348574200,3.54757421875,0.005944587618112564,-0.009027164268074556,0.004808295330870896
1782812021358645200,3.557645263671875,-0.00019172317981719968,-0.01808035802654922,-0.013001995316334067
1782812021368716300,3.56771630859375,0.004296235889196396,-0.004080181985720992,-0.013943459151219575
1782812021378787000,3.577787109375,-0.0009387421548366546,-0.01271162493447773,-0.0007497863208409399
1782812021388858600,3.587858642578125,-0.015750526839494704,-0.004765753097087145,0.015398229103372432
1782812021398929700,3.5979296875,-0.018892331996560097,-0.025294718985306098,0.006324709509499371
1782812021409000700,3.608000732421875,0.005799626189470291,-0.012496548278536647,0.00026431805856991556
1782812021419072500,3.618072509765625,0.006398176604509353,-0.0016122392359189687,-0.00870280941822566
1782812021429143600,3.6281435546875,-0.0028811083942651746,-0.01778713810048066,-0.011370010200329125
1782812021439214600,3.638214599609375,-0.0015337854385375975,-0.015857859671488405,0.003171382877998985
1782812021449285600,3.64828564453125,-0.01275660572052002,-0.013794543066667391,0.004639414170524105
1782812021459356700,3.658356689453125,0.009689619365334511,-0.0091957166348584,-0.0007209209859604015
1782812021469427700,3.668427734375,0.003703530693054199,-0.012455257286923005,-0.002482121972204186
1782812021479498800,3.678498779296875,0.005649988585710525,-0.005059977670153603,-0.002956114425812848
1782812021489569500,3.688569580078125,-0.01125906063914299,-0.012981646648049353,0.0028190120766405013
1782812021499640600,3.698640625,0.00639876112639904,-0.011366046411264687,0.0014436457699397577
1782812021509711600,3.708711669921875,0.007296002227067947,-0.011526744265155866,-0.004210192440403625
1782812021519782700,3.71878271484375,0.006247954478859901,-0.011489855454023926,0.001456021194322966
1782812021529854500,3.7288544921875,0.0028057050704956054,0.0031228538614232093,-0.009857281249552033
1782812021539925500,3.738925537109375,0.0011579378634691238,-0.0028864604228176173,0.0001528159415349364
1782812021549996500,3.74899658203125,-0.008420037820935249,-0.0016425704421009868,0.0004531277620932087
1782812021560067300,3.7590673828125,-0.005427870267629623,0.007092442478984594,-0.006150115560996346
1782812021570138400,3.769138427734375,-0.009168810361623763,-0.020870865527912973,0.004310725638852454
1782812021580209400,3.77920947265625,-0.005727145475149155,-0.012043936539674177,0.0035854755376465617
1782812021590280400,3.789280517578125,-0.015604396367073059,-0.009008012043032795,-0.014044115647254512
1782812021600351500,3.7993515625,-0.0048310734182596205,-0.008663427255908027,-0.005614579345611855
1782812021610422500,3.809422607421875,-0.0036363106757402418,-0.003433043188601732,0.009465907311788759
1782812021620493300,3.819493408203125,-0.01934825907051563,0.007824318683799356,-0.004023497062153183
1782812021630564400,3.829564453125,-0.004234276568889618,-0.002827177116787061,0.013252928736945613
1782812021640636400,3.839636474609375,0.013573767322301864,-0.012799157087458296,0.0014661818287335336
1782812021650707500,3.84970751953125,0.006240355694293975,-0.012425063078058882,-0.005122749841213226
1782812021660778500,3.859778564453125,0.005341361027956008,-0.004890027930727228,-0.007621608319086953
1782812021670849500,3.869849609375,-0.003488426637649536,-0.0004660557423252612,0.003458072598581202
1782812021680920600,3.879920654296875,-0.002590601015090942,-0.012605817339289933,0.0029691748367855326
1782812021690991400,3.889991455078125,-0.0015437223106622695,-0.008720071080280467,-0.00453983538672328
1782812021701062400,3.9000625,-0.00393792397081852,-0.007867664635181426,0.019502691580401733
1782812021711133400,3.910133544921875,0.008332359537482261,-0.004252415013778954,-0.004954562800610437
1782812021721204500,3.92020458984375,0.009380991807579994,-0.0077555186307523396,0.000522886796365492
1782812021731275500,3.930275634765625,-0.0043839141726493835,-0.00831092402380891,-0.005448059105710126
1782812021741347600,3.94034765625,-0.001242109015583992,-0.018400328962225466,-0.006019415553146973
1782812021751418600,3.950418701171875,-0.004385667738318443,-0.009406254112999887,0.004987620253418572
1782812021761489700,3.96048974609375,-0.011270166555047034,0.009661617113556712,-0.0031814658805960788
1782812021771560400,3.970560546875,-0.007079729127883911,-0.005487792894477025,-0.0012146593196550384
1782812021781631500,3.980631591796875,-0.0033376199901103973,-0.012405143668036907,-0.007006933319731615
1782812021791702500,3.99070263671875,0.003994038072228432,0.0003024170126765966,-0.006140548581629992
1782812021801773600,4.000773681640625,0.002496492990851402,-0.013752110430737957,-0.0037227468501776456
1782812021811844600,4.0108447265625,0.003394318613409996,-0.005365390357514843,-0.004214288660208694
1782812021821915600,4.02091552734375,-0.00917465558052063,-0.01617009482528083,-0.006686665556533262
1782812021831986400,4.030986328125,-0.00887830298244953,-0.02349873894662596,-0.011271280799899249
1782812021842057500,4.041057373046875,-0.008577858731150627,-0.011582794434484093,-0.008806269792700185
1782812021852129500,4.051129638671875,-0.012767127114534378,0.00011886800616048276,-0.0025191021148813888
1782812021862200600,4.06120068359375,-0.0010971475869417189,-0.008286255373433232,-0.0126195992694702
1782812021872271600,4.071271728515625,-0.004089899662137031,-0.0019550247916020453,-0.01703958026934415
1782812021882342700,4.0813427734375,-0.011273089164495468,-0.00970612297556363,-0.010996665109600871
1782812021892413700,4.09141357421875,0.003991115462779998,-0.005473901366442441,-0.0003805922488449141
1782812021902484500,4.101484375,-0.01052314758002758,-0.00011241999906487762,-0.008813854877534322
1782812021912555500,4.111555419921875,-0.020848726761341092,-0.007566097005875781,-0.022059810450999064
1782812021922626600,4.12162646484375,-0.010674538749456406,-0.012745381073607131,-0.004029232683195732
1782812021932697600,4.131697509765625,-0.012321136912703513,-0.01246190622341819,-0.012451069735572673
1782812021942768600,4.1417685546875,-0.005586860221624374,-0.0038206816661637273,-0.001444737181905657
1782812021952839700,4.151839599609375,0.0011456629037857055,0.0074405069979839025,0.007707843564124777
1782812021962911500,4.161911376953125,-0.007833177843689918,-0.00763063187575899,-0.007382863093190826
1782812021972982500,4.171982421875,-0.006336217284202575,-0.007937368870526552,-0.00877072355528362
1782812021983053600,4.182053466796875,-0.011273089164495468,-0.00993939287532121,-0.00540585479864385
1782812021993124600,4.19212451171875,0.01012450365126133,-0.01110950523377396,0.008720084780012257
1782812022003195600,4.202195556640625,-0.0036409868508577347,-0.005384158990066498,-0.00047990617116447533
1782812022013266700,4.2122666015625,-0.004840425768494605,0.005069658813951537,-0.0017815176884876562
1782812022023337700,4.222337646484375,0.0006961655706167221,-0.004488525324594229,-0.0011162450130563228
1782812022033408500,4.232408447265625,0.0002478372812271118,0.003229017649637535,-0.017965271146362646
1782812022043479600,4.2424794921875,-0.01022679498195648,0.0045870629287790505,0.006916062998771667
1782812022053550600,4.252550537109375,-0.00139817636013031,-0.005143162441579625,0.023394041029713115
1782812022063621600,4.26262158203125,-0.005288754057884216,-0.009143931648693978,-0.008568465281720273
1782812022073693400,4.272693359375,0.00772854842543602,-0.009985268710507079,-0.013935997363971546
1782812022083764500,4.282764404296875,-0.012024784314632416,-0.0021275135479867455,-0.007682060668896883
1782812022093835500,4.29283544921875,-0.006190086811780929,-0.017627901551313697,0.002206099776108749
1782812022103906600,4.302906494140625,-0.008882979157567023,-0.009716041581379248,0.0062800940496381364
1782812022113977300,4.312977294921875,-0.0025976152777671814,-0.0057647010065615175,0.00789354799510911
1782812022124048400,4.32304833984375,0.012667758393287657,-0.021916164196608585,0.007869162472523748
1782812022134119400,4.333119384765625,-0.0013964227944612503,-0.026013735708547755,0.0024750392108689994
1782812022144190500,4.3431904296875,0.0005482815325260162,-0.025837767220288514,0.002024897990305908
1782812022154261500,4.353261474609375,-0.001247369712591171,-0.013731652164598927,0.0027723188241245223
1782812022164332500,4.36333251953125,0.0008493103057146072,-0.000785844014910981,-0.0019591255779843777
1782812022174403300,4.3734033203125,0.0035457097828388213,-0.00004875277886167168,0.0005385638561099768
1782812022184475400,4.383475341796875,0.0011497545570135115,-0.007254263710882515,0.0016363507638685404
1782812022194546400,4.39354638671875,-0.00528290883898735,-0.0031651038342621176,-0.0043866267195437104
1782812022204617500,4.403617431640625,-0.0013929156631231306,0.00029855368831194933,-0.01639353745076805
1782812022214688500,4.4136884765625,-0.005882628297805786,-0.023082431497005746,-0.004734033651417121
1782812022224759600,4.423759521484375,0.0011468319475650788,-0.00698875377564691,-0.0021942951738834378
1782812022234830600,4.43383056640625,-0.012470774516463279,-0.004853796706721186,-0.01830662736336235
1782812022244901400,4.4439013671875,-0.004542904126644134,-0.008465402199467644,-0.01503660184990149
1782812022254972400,4.453972412109375,-0.004392682000994682,0.002715652166865766,0.007003768681688234
1782812022265043500,4.46404345703125,-0.001550152051448822,0.0008220113068353384,0.0136706289926311
1782812022275114500,4.474114501953125,-0.0008019640326499939,-0.018172895148210227,-0.0020181805551517753
1782812022285185500,4.484185546875,-0.009628829088807106,-0.005692841346748173,-0.005052534149214625
1782812022295257600,4.494257568359375,0.0027940146327018736,-0.01723268255549483,0.011174245599634014
1782812022305328600,4.50432861328125,-0.0003495440900325775,-0.003198759508691728,0.005514461705693975
1782812022315399400,4.5143994140625,-0.017857143729925154,-0.0021853812150657175,-0.009844691196037456
1782812022325470500,4.524470458984375,-0.02354337267279625,-0.010435962486919016,-0.00039668486712034787
1782812022335541500,4.53454150390625,-0.0003495440900325775,-0.011022164877038448,-0.010669990438502282
1782812022345612500,4.544612548828125,0.0005465279668569565,-0.002271232867613435,-0.0064205847991397605
1782812022355683600,4.55468359375,-0.006336217284202575,-0.0009135620478074997,-0.006821466350764967
1782812022365754600,4.564754638671875,-0.026387071666121482,-0.0047039490404073145,-0.015738155981688758
1782812022375825400,4.574825439453125,-0.009628244566917419,-0.015284060105215757,-0.007696436254121363
1782812022385895200,4.584895263671875,0.005035656079649925,-0.015253984627360478,-0.013331510398490353
1782812022395966200,4.59496630859375,0.01595803211033344,-0.0037951636324170973,-0.004225527006853372
1782812022406038300,4.605038330078125,0.005783844098448753,-0.017902919100411235,0.005964589226525276
1782812022416109300,4.615109375,-0.01651274338364601,-0.012663127883942797,-0.009348925302037969
1782812022426180400,4.625180419921875,0.004587912312150002,-0.0017025387347210197,0.005451625602552667
1782812022436251100,4.635251220703125,-0.004838087680935859,0.004199707579007372,0.0033235229660989714
1782812022446322200,4.645322265625,-0.01052490114569664,-0.005932294392120093,-0.009175089405360631
1782812022456393200,4.655393310546875,-0.0000526069700717926,-0.012283590514445678,-0.00003904880217742175
1782812022466464300,4.66546435546875,-0.005738835912942886,-0.0053736284628976136,-0.004736106877494603
1782812022476535300,4.675535400390625,-0.008884148201346398,-0.013716719456948339,0.006014716545143164
1782812022486606300,4.6856064453125,0.012214169406890869,-0.018641562972730025,-0.007674489283794537
1782812022496677000,4.695677001953125,-0.0033463878184556957,-0.013319381569279356,-0.01751082364344038
1782812022506748200,4.705748046875,-0.013220131579041481,-0.002369332080380991,-0.0031099761135410515
1782812022516820200,4.7158203125,-0.016359598648548124,-0.0026919607640244064,0.0028658879922470078
1782812022526891300,4.725891357421875,-0.004835165071487427,-0.0036130576643161475,-0.0077852881479309865
1782812022536962300,4.73596240234375,-0.007827332624793052,-0.013772194237541406,-0.009983492311951704
1782812022547033300,4.746033447265625,0.0008510638713836669,0.0016349990569986402,0.01376078236096073
1782812022557104400,4.7561044921875,-0.005134440279006958,-0.006622139819804578,-0.002936683639558032
1782812022567175200,4.766175048828125,-0.0013935001850128173,-0.005170160046359524,-0.010751882868562825
1782812022577246200,4.77624609375,-0.008875964894890785,-0.009724142689444125,0.0020676457200665024
1782812022587317200,4.786317138671875,-0.01052139401435852,0.007166247500712051,-0.003820028645615093
1782812022597388300,4.79638818359375,0.005342530071735381,-0.0026686894862912596,-0.01159814270066563
1782812022607459300,4.806459228515625,0.018512977290153502,0.0005138038741890341,-0.0053092625563731415
1782812022617530400,4.8165302734375,-0.002587678405642509,-0.0036232045989949254,-0.0045719521246152
1782812022627601400,4.826601318359375,-0.015904256096482276,-0.01613811051812954,0.003729519084258936
1782812022637673500,4.836673583984375,-0.013058219015598296,-0.009480415327753872,-0.0016197603886714204
1782812022647744300,4.846744140625,-0.008718728506565094,-0.013502236456051468,0.0014780366633087396
1782812022657815300,4.856815185546875,-0.01111176112294197,-0.005007114971755072,-0.0005457699150312692
1782812022667886300,4.86688623046875,-0.015448913544416427,-0.004388060624804347,-0.009618376193451695
1782812022677957400,4.876957275390625,-0.004822890111804009,-0.01105198462656699,-0.006421310884924605
1782812022688028400,4.8870283203125,-0.006916647520661354,-0.0126131877949927,-0.004323717551166191
1782812022698099500,4.897099365234375,-0.0012310030996799469,0.001751748171309009,-0.013960761912469751
1782812022708170200,4.907170166015625,-0.01843815848827362,-0.0032084041198715565,-0.013185128764319232
1782812022718241300,4.9172412109375,-0.0027267946153879162,-0.010333470226824282,-0.0031304024136392396
1782812022728312300,4.927312255859375,-0.006916647520661354,-0.00209702707817778,0.015736050789570435
1782812022738383400,4.93738330078125,0.00026420389413833614,-0.00754128222502768,0.01589013167300727
1782812022748455200,4.947455078125,0.0011614449948072433,-0.00672125281272456,0.0019804514938034116
1782812022758526200,4.957526123046875,-0.0007844283759593963,0.0031551121632102876,-0.014869761949591338
1782812022768597200,4.96759716796875,0.00026069676280021664,-0.009403833827050402,0.006993968806881457
1782812022778668300,4.977668212890625,-0.010515548795461654,-0.01045210077096708,-0.005425929472292773
1782812022788739300,4.9877392578125,-0.008122516179084778,-0.011988854484725742,-0.0035303752163890747
1782812022798810400,4.997810302734375,-0.006026420682668686,-0.011631236686091869,-0.011362205919786355
1782812022808881400,5.00788134765625,-0.002732639834284782,0.0011572346105705946,-0.011277920603239908
1782812022818952400,5.017952392578125,0.0034030864417552947,-0.010668127274978905,-0.016644384106411596
1782812022829023500,5.0280234375,-0.0025818331867456436,0.012366181630827486,-0.010283169378270394
1782812022839094300,5.03809423828125,-0.022784078738093374,-0.00549674338591285,-0.0014698761897394433
1782812022849165300,5.048165283203125,0.004300912064313888,0.0046494880399666726,0.007051430048584007
1782812022859236400,5.058236328125,-0.0012368483185768127,-0.016695972729753702,-0.010400270119030029
1782812022869308200,5.06830810546875,0.0025029227316379545,-0.013513305839337408,-0.008358772620372474
1782812022879379200,5.078379150390625,-0.001985036337375641,-0.02257111184084788,0.0023736063966993243
1782812022889450200,5.0884501953125,-0.013953122028708458,-0.002824409770965576,0.006502280866377987
1782812022899521300,5.098521240234375,0.0029547581523656843,-0.01159387295092456,-0.0013475101853953674
1782812022909592000,5.108592041015625,0.0008615852653980255,0.0030594971684738993,0.010251367734209633
1782812022919663000,5.1186630859375,0.00011398176848888397,-0.011212636814685538,-0.000299476136919111
1782812022929734100,5.128734130859375,-0.0067693480044603346,-0.016632488172641024,0.00845294914327096
1782812022939805200,5.13880517578125,-0.01634849273264408,-0.009026789808738975,0.0024090293365297837
1782812022949876200,5.148876220703125,0.0032516952723264693,-0.0025554931690916416,0.00319985548723489
1782812022959947300,5.158947265625,-0.003931494230031967,-0.011673495792085304,-0.0009958837361307815
1782812022970018300,5.169018310546875,-0.0009387421548366546,-0.009624253378389402,-0.009587035773694515
1782812022980089000,5.179089111328125,-0.011861702707409858,-0.009202913560625164,-0.006287925729644484
1782812022990161200,5.1891611328125,-0.006322773280739784,-0.011710412002680822,-0.003702676743105985
1782812023000232200,5.199232177734375,0.008039514070749283,-0.012885008740006015,-0.0021856415099697187
1782812023010303200,5.20930322265625,0.008040683114528656,-0.0069560570824425665,-0.00041880080080591137
1782812023020374300,5.219374267578125,-0.018445172750949857,-0.005651522955670952,-0.005403000687854364
1782812023030445300,5.2294453125,0.004303250151872635,-0.02310367521443404,-0.00027198534179478885
1782812023040516400,5.239516357421875,0.002208323699235916,-0.016212655325373634,-0.008215436893235891
1782812023050587100,5.249587158203125,-0.019340660285949707,-0.020496689320122823,-0.001400920873065479
1782812023060658200,5.259658203125,-0.01290682784616947,-0.013585183765459806,0.0087462832337711
1782812023070729200,5.269729248046875,-0.01829436610341072,0.00020506671858020126,-0.002364683304727077
1782812023080800300,5.27980029296875,0.0008598316997289657,0.011491654685465619,-0.016695511505450122
1782812023090871300,5.289871337890625,-0.010213935500383376,-0.00399990155743435,-0.010772811492159962
1782812023100942300,5.2999423828125,-0.015451251631975173,0.0075358571312390266,0.017354267675126902
1782812023111014400,5.310014404296875,-0.005577507871389388,-0.00788636020249687,0.0033292448874097315
1782812023121084200,5.320084228515625,-0.0025847557961940766,-0.00310682517522946,0.00229407032050658
1782812023131155200,5.3301552734375,-0.002285480588674545,0.001993173978058621,-0.0057807342593325295
1782812023141226200,5.340226318359375,0.005493336719274521,-0.0002865892558824271,0.000379372972715646
1782812023151297300,5.35029736328125,0.007291326051950454,-0.016561432230426,0.012098945529386401
1782812023161368300,5.360368408203125,-0.00767184980213642,-0.020637339899828657,0.003341935405624099
1782812023171439000,5.370439208984375,-0.014703063613176345,-0.010286032622214406,0.006012346491543576
1782812023181510100,5.38051025390625,-0.014701310047507285,-0.020361317703733218,-0.0022360336900688707
1782812023191581200,5.390581298828125,0.01073708259165287,-0.0030064974727574733,0.0035965997198596595
1782812023201652200,5.40065234375,0.0045984337061643595,-0.009444713826710359,-0.0000858881851658225
1782812023211724300,5.410724365234375,-0.004677928683161735,-0.012717168759275227,-0.010515799957211129
1782812023221795300,5.42079541015625,-0.001384147834777832,-0.01640486256238073,-0.008189649431430733
1782812023231866400,5.430866455078125,-0.005125087928771972,0.006500796728767454,-0.008226287080813199
1782812023241937200,5.440937255859375,0.002655482944846153,0.0010127663722727448,-0.005272821269812994
1782812023252008200,5.45100830078125,-0.010211012890934944,-0.01895938761709258,-0.004002477107010781
1782812023262079200,5.461079345703125,0.005348959812521934,-0.012376995285786688,-0.002218858792982064
1782812023272150300,5.471150390625,-0.0024351181924343107,-0.005179603728139773,-0.007344745872775092
1782812023282221300,5.48122119140625,0.010284662649035454,-0.009885233268979936,0.0070815557587891815
1782812023292292400,5.491292236328125,-0.008568506380915641,-0.014902239447087049,0.013684881280269474
1782812023302363100,5.501363037109375,-0.002435702714323997,-0.010914950776053593,-0.009469898500316775
1782812023312434200,5.51143408203125,-0.013510054436326026,-0.012102425261260942,-0.0027619937929324804
1782812023322505200,5.521505126953125,0.0045960956186056135,-0.020916494767926633,-0.0041088829238200555
1782812023332577300,5.531577392578125,-0.0016916063487529753,-0.005487427568295971,0.011202010389394126
1782812023342648300,5.5416484375,-0.009924597164988518,-0.0003225647515617311,-0.011994005583878605
1782812023352719400,5.55171923828125,-0.009325462228059769,-0.004476414761692285,-0.0152413078088779
1782812023362790400,5.561790283203125,-0.06602408552765845,-0.011137571417633444,-0.008952308933576568
1782812023372861400,5.571861328125,0.010883797585964201,-0.002056165344826877,-0.00013310202748980371
1782812023382932200,5.58193212890625,0.03842237737476825,0.00943511488130316,0.0214146444152575
1782812023393004500,5.592004638671875,-0.022782909694314003,-0.026704074326576663,-0.021323463567043652
1782812023403075600,5.60207568359375,-0.006024667116999626,0.02655290235285647,-0.024499623084859923
1782812023413146400,5.612146484375,0.02465162617564201,-0.012228755054669454,-0.00084156539067626
1782812023423217400,5.622217529296875,-0.010218027153611182,-0.015755778403347357,-0.00603317008386366
1782812023433288400,5.632288330078125,0.007585925084352493,-0.007316834952542558,0.009839444198762067
1782812023443359500,5.642359375,-0.040299861684441565,0.01852692361711524,0.011726988678146153
1782812023453430500,5.652430419921875,-0.028179800301790237,0.005179859456466511,-0.006843614250491373
