time,seconds_elapsed,z,y,x
1782812017874042400,0.07304248046875,-0.002353042596951127,0.0008937168167904019,0.0029211926739662886
1782812017884113400,0.083113525390625,-0.00044614076614379883,-0.0011164708994328976,0.0005992492660880089
1782812017894184400,0.093184326171875,0.001523000537417829,0.0014500173274427652,0.00033692788565531373
1782812017904256300,0.10325634765625,-0.00018906733021140099,0.0006369209149852395,-0.000812691985629499
1782812017914327300,0.113327392578125,0.00004102976527065039,0.00009390234481543303,0.0005846685962751508
1782812017924398300,0.1233984375,-0.00008881371468305588,-0.0004811743274331093,-0.0013951396103948355
1782812017934469000,0.13346923828125,-0.00070799863897264,-0.0006255176849663258,0.0003194034215994179
1782812017944540200,0.1435400390625,-0.0007454957813024521,-0.001900288974866271,0.000610534509178251
1782812017954611200,0.153611083984375,-0.0010794562986120582,-0.0015293105971068144,0.0006611345452256501
1782812017964682200,0.16368212890625,-0.0011585549218580127,0.0013796904822811484,-0.00024198289611376822
1782812017974753300,0.173753173828125,0.0004886102979071438,0.0008973920485004783,-0.00037087989039719105
1782812017984825300,0.183825439453125,-0.0002763286465778947,0.00018583249766379595,0.0014586434699594975
1782812017994896400,0.193896484375,-0.002170635387301445,0.000426848535425961,0.001439202344045043
1782812018004967200,0.20396728515625,0.0007748064817860723,0.0016766145126894116,-0.00031571841100230813
1782812018015038200,0.2140380859375,-0.001421768800355494,0.0001343779731541872,-0.001820937031880021
1782812018025109200,0.224109130859375,-0.002240518108010292,0.002015616511926055,0.000629471440333873
1782812018035180300,0.23418017578125,0.0010394308483228087,-0.00093223643489182,0.0003690143348649144
1782812018045251300,0.244251220703125,0.0005598444258794188,-0.0005366329569369555,0.0008827421115711331
1782812018055322400,0.254322265625,-0.000867343507707119,0.00031531229615211487,-0.001845666440203786
1782812018065394400,0.26439453125,-0.0011330333072692156,0.001622942159883678,0.0008835073094815016
1782812018075465200,0.27446533203125,0.0009444987517781556,-0.0008836251217871904,0.0021066972985863686
1782812018085536300,0.284536376953125,0.0002765720128081739,-0.0011208655778318644,0.0009167504031211138
1782812018095607300,0.294607177734375,0.001475793425925076,-0.0014998333062976599,-0.0018593285931274295
1782812018105678300,0.30467822265625,0.0007740864530205727,-0.0003735234495252371,-0.0016142078675329685
1782812018115749400,0.314749267578125,-0.0013801445020362735,0.0008278284221887589,0.0003104586503468454
1782812018125820400,0.3248203125,0.001199530204758048,-0.002322769956663251,0.0017034827033057809
1782812018135891200,0.33489111328125,-0.0011496441438794136,0.001920444774441421,0.0004241000860929489
1782812018145962200,0.344962158203125,0.0011322596110403538,-0.0016864622011780739,-0.00013556820340454578
1782812018156034300,0.355034423828125,0.00151974952314049,0.0006379447877407074,-0.0020021777600049973
1782812018166105300,0.365105224609375,-0.0004904910456389189,-0.0006998321041464806,0.0012589457910507917
1782812018176176400,0.37517626953125,-0.0010124705731868744,-0.00014909054152667522,-0.0032785478979349136
1782812018186247400,0.385247314453125,-0.0006262101233005524,0.000444748904556036,-0.0006048764917068183
1782812018196318500,0.395318359375,-0.0009644316742196679,0.00037710461765527725,0.0027136884164065123
1782812018206389500,0.405389404296875,-0.00021016341634094715,0.000022150808945298195,-0.00045533099910244346
1782812018216460300,0.415460205078125,0.00035176356323063374,-0.001096643041819334,-0.000014311517588794231
1782812018226531300,0.42553125,0.0012030404759570956,0.0005345429526641965,-0.00015679062926210463
1782812018236602400,0.435602294921875,-0.0018675841856747866,0.00023813312873244286,0.0000157821923494339
1782812018246674200,0.445674072265625,-0.0014637940330430865,0.0014424859546124935,-0.0018815891817212105
1782812018256745200,0.4557451171875,-0.0015609991969540715,0.0007013282738626003,0.0007842350169084966
1782812018266816300,0.465816162109375,0.00046391476644203067,0.003312824061140418,-0.0005995434476062655
1782812018276887300,0.47588720703125,0.0025907151866704226,-0.00005287886597216129,-0.0018222006037831306
1782812018286958300,0.485958251953125,-0.00038285378832370043,0.0010934758465737104,-0.0009433418163098395
1782812018297029400,0.496029296875,-0.0014539770781993866,0.00040265184361487627,-0.0010522650554776192
1782812018307100400,0.506100341796875,-0.001087190117686987,0.001329023507423699,0.000772905012127012
1782812018317171500,0.51617138671875,-0.0012339302338659763,-0.0009008413180708885,-0.0008779885247349739
1782812018327242500,0.526242431640625,-0.00003237859345972538,-0.0012452071532607079,0.0025905920192599297
1782812018337314300,0.536314208984375,-0.0003940359456464648,-0.00003772997297346592,-0.0004464768571779132
1782812018347385300,0.54638525390625,-0.0006557989399880171,0.00010686169844120741,0.000041690131183713675
1782812018357456100,0.5564560546875,0.002104567363858223,0.00025253649801015854,0.0018313344335183501
1782812018367527200,0.566527099609375,0.0015009569469839334,0.0018295624759048223,-0.001786995679140091
1782812018377597700,0.57659765625,-0.00032863463275134563,0.0003933197585865855,-0.0011278633028268814
1782812018387668700,0.586668701171875,-0.0010417901212349534,0.0017705346690490842,-0.000763213902246207
1782812018397739800,0.59673974609375,-0.00008704699575901031,-0.0014633417595177889,-0.0022069134283810854
1782812018407810600,0.606810546875,-0.0005775290774181485,0.0005232591647654772,-0.002229193691164255
1782812018417881600,0.616881591796875,0.0013956070179119706,-0.00046796933747828007,-0.0006145191146060824
1782812018427953400,0.626953369140625,0.0014410415897145867,-0.001101919449865818,0.00020077702356502414
1782812018438024400,0.6370244140625,-0.00009267288260161877,-0.0008832740131765604,0.0008894704515114427
1782812018448095500,0.647095458984375,0.001309922314248979,-0.000041943276301026344,0.0005221839528530836
1782812018458166500,0.65716650390625,-0.0013271396746858954,0.0015847154427319765,-0.0018323167460039258
1782812018468237600,0.667237548828125,0.0011626342311501503,0.0017560719279572368,-0.0003994433500338346
1782812018478308600,0.67730859375,0.00010908767580986023,-0.0014538359828293324,-0.0021946802735328674
1782812018488379400,0.68737939453125,0.00033961498411372304,-0.0016786307096481323,-0.0014596558175981045
1782812018498450400,0.697450439453125,0.001529515371657908,0.0018766893772408366,-0.00034991660504601896
1782812018508522500,0.7075224609375,0.0008772533037699759,0.0013299996498972178,-0.0015797149389982224
1782812018518593500,0.717593505859375,0.002473285887390375,-0.0025563514791429043,0.001265872735530138
1782812018528664600,0.72766455078125,-0.0018777316436171532,0.00004827231168746948,-0.0012837807880714536
1782812018538735600,0.737735595703125,0.0017244599293917418,-0.00014347536489367485,0.00030159897869452834
1782812018548806700,0.747806640625,0.0005125500028952956,0.000706603517755866,0.00001696654362604022
1782812018558877400,0.75787744140625,-0.002348217647522688,0.0010653313947841525,0.0005490661133080721
1782812018568948500,0.767948486328125,-0.0009089435916393995,-0.00006895349361002445,-0.0008252706611528993
1782812018579019500,0.77801953125,-0.00041146506555378437,0.00041973660700023174,-0.0013171564787626266
1782812018589090600,0.788090576171875,0.0022370449732989073,-0.0008488055318593979,-0.0007172221667133272
1782812018599162600,0.79816259765625,0.0009605918894521892,0.002349917311221361,0.0002260694745928049
1782812018609233700,0.808233642578125,-0.002619097474962473,-0.000592320691794157,0.0037906523793935776
1782812018619304700,0.8183046875,0.001308532664552331,-0.0012605078518390656,0.0008926006266847253
1782812018629375500,0.82837548828125,-0.00046363496221601963,0.0022286130115389824,-0.0000508915982209146
1782812018639446500,0.838446533203125,-0.0005672320257872343,0.00013643363490700722,0.0002388603170402348
1782812018649517600,0.848517578125,-0.00009532994590699673,0.003331458196043968,-0.00131032126955688
1782812018659588600,0.858588623046875,-0.0011142552830278873,-0.0001626091543585062,-0.002139895921573043
1782812018669659600,0.86865966796875,-0.000645968597382307,-0.0004991467576473951,-0.001004899968393147
1782812018679730700,0.878730712890625,-0.0000986889936029911,0.0006417514523491263,-0.0018605736549943686
1782812018689802800,0.888802734375,0.00047578284284099936,0.0005784728564321995,-0.0016322508454322815
1782812018699873500,0.89887353515625,-0.0011732465354725718,-0.0011757512111216784,-0.0005281041958369315
1782812018709944600,0.908944580078125,-0.00097583734896034,0.00033564562909305096,0.0008617941057309508
1782812018720015600,0.919015625,0.00044842110946774483,0.0008483041310682893,0.0004021325148642063
1782812018730086700,0.929086669921875,-0.0004709443310275674,-0.0011827510315924883,-0.00011927005834877491
1782812018740157700,0.93915771484375,0.0020984734874218702,-0.00005942978896200657,-0.000699839205481112
1782812018750228700,0.949228759765625,0.0002741068019531667,0.0008537148823961616,-0.0008975969394668937
1782812018760299500,0.959299560546875,-0.0013650688342750072,0.00005396758206188679,-0.00014472129987552762
1782812018770370600,0.96937060546875,-0.00031894107814878225,0.00014673825353384018,0.00044764677295461297
1782812018780442400,0.9794423828125,-0.0004097549244761467,0.00045912701170891523,-0.001075415057130158
1782812018790513400,0.989513427734375,-0.003386180615052581,0.0020832379814237356,-0.002333488781005144
1782812018800584400,0.99958447265625,-0.0025739166885614395,0.0004912003641948104,-0.002087678760290146
1782812018810655500,1.009655517578125,-0.0006371799390763044,0.0005482019623741508,0.002417418174445629
1782812018820726500,1.0197265625,-0.00008217711001634598,-0.0002187883947044611,-0.0006297707441262901
1782812018830797600,1.029797607421875,-0.0006635910831391811,-0.0005576591938734055,0.00006419018609449267
1782812018840868400,1.039868408203125,-0.00017356942407786846,-0.00021251337602734566,0.00025647046277299523
1782812018850939400,1.049939453125,-0.0012050443328917027,-0.0024391519837081432,0.0017375275492668152
1782812018861010400,1.060010498046875,0.001311376690864563,-0.0006750740576535463,-0.0011325610103085637
1782812018871081500,1.07008154296875,0.00030339532531797886,-0.0015832730568945408,0.0011107861064374447
1782812018881153500,1.080153564453125,-0.0013373782858252525,0.00006282702088356018,-0.0003747251757886261
1782812018891224600,1.090224609375,-0.0011517321690917015,0.001722351647913456,-0.0014136424288153648
1782812018901295600,1.100295654296875,0.0013407203368842602,0.001094644539989531,0.0005182147142477334
1782812018911366400,1.110366455078125,0.0015443789307028055,-0.0010209842585027218,0.0013611644972115755
1782812018921437400,1.1204375,0.0013491692952811718,0.0013596154749393463,0.0005489004543051124
1782812018931508500,1.130508544921875,-0.0002678522141650319,-0.0016496505122631788,0.00102114281617105
1782812018941579500,1.14057958984375,0.0003406801261007786,-0.002472034888342023,-0.001041209208779037
1782812018951650600,1.150650634765625,0.000994071364402771,0.0014902434777468443,-0.0010766497580334544
1782812018961721600,1.1607216796875,-0.0010621552355587482,0.0013344485778361559,-0.0020737373270094395
1782812018971793700,1.170793701171875,0.001578181516379118,-0.001436946913599968,0.004048003349453211
1782812018981864400,1.180864501953125,-0.0015851210337132215,-0.0005386627744883299,-0.000056993099860846996
1782812018991935500,1.190935546875,0.0017649137880653143,-0.0003976365551352501,-0.0012483997270464897
1782812019002006500,1.201006591796875,-0.0004116877680644393,0.00043113913852721453,-0.0007535843760706484
1782812019012077600,1.21107763671875,-0.0002230192767456174,-0.00027214433066546917,0.00009503198089078069
1782812019022148600,1.221148681640625,-0.000652853399515152,-0.0029579419642686844,-0.0020698516163975
1782812019032219600,1.2312197265625,-0.00039376423228532076,0.0011892253533005714,0.001905660959891975
1782812019042290400,1.24129052734375,-0.0006646077381446958,0.000019298866391181946,-0.0002909143513534218
1782812019052361500,1.251361572265625,0.0005027665174566209,0.0002590904477983713,0.00039800500962883234
1782812019062433500,1.26143359375,-0.0015268286224454641,-0.00010496354661881924,-0.0010113398311659694
1782812019072504600,1.271504638671875,-0.0020446779672056437,0.001379196299239993,-0.002316999714821577
1782812019082575600,1.28157568359375,-0.0019248356111347675,0.000200747512280941,0.0005040868418291211
1782812019092646700,1.291646728515625,0.0007428050739690661,0.0026469265576452017,-0.0007059152703732252
1782812019102717700,1.3017177734375,-0.0005174027755856514,0.002069819485768676,0.000633388408459723
1782812019112788700,1.311788818359375,-0.0014460014645010233,-0.001561502693220973,0.000057051831390708685
1782812019122859500,1.321859619140625,-0.00048966018948704,-0.0002610811498016119,0.0011992816580459476
1782812019132930600,1.3319306640625,-0.0015192150603979826,-0.0005190987139940262,0.0002069842885248363
1782812019143001600,1.342001708984375,0.0001923984964378178,0.0024527227506041527,-0.0022681576665490866
1782812019153073700,1.35207373046875,0.0005289466353133321,0.0007134045008569956,-0.0002675619616638869
1782812019163144700,1.362144775390625,0.0005366698023863137,0.001158152474090457,-0.0008918069070205092
1782812019173215700,1.3722158203125,-0.0006262167589738965,0.0012072431854903698,-0.0014446547720581293
1782812019183286800,1.382286865234375,-0.00034072587732225657,-0.001338472357019782,-0.004308085888624191
1782812019193357600,1.392357666015625,0.0005934907239861786,-0.0007610637694597244,-0.00014405749971047044
1782812019203428600,1.4024287109375,0.00011678494047373533,0.0013742587761953473,0.0007217361708171666
1782812019213499600,1.412499755859375,0.0020429466385394335,0.0013053236762061715,-0.0008085744921118021
1782812019223570700,1.42257080078125,-0.0003256687195971608,-0.0011583666782826185,0.0000636107288300991
1782812019233641700,1.432641845703125,-0.0009698739740997553,-0.0009219711646437645,-0.0007879780023358762
1782812019243713500,1.442713623046875,0.001262121251784265,-0.00030678114853799343,-0.0007853148854337633
1782812019253784600,1.45278466796875,-0.00026393646840006113,-0.000539327273145318,0.001866231090389192
1782812019263855400,1.46285546875,0.0006207656115293503,-0.00020217103883624077,-0.0020651272498071194
1782812019273926400,1.472926513671875,-0.001923985779285431,-0.0008846286218613386,-0.00013632973423227668
1782812019283997400,1.48299755859375,-0.002346096793189645,0.0003896938869729638,-0.00039332479354925454
1782812019294068500,1.493068359375,-0.000895881443284452,0.0010718677658587694,0.0010894362349063158
1782812019304139500,1.503139404296875,-0.0022176080383360386,0.0006428324850276113,0.0010292486986145377
1782812019314210600,1.51321044921875,0.00015673297457396984,0.0016844271449372172,-0.00044005748350173235
1782812019324281300,1.52328125,-0.0015668648993596435,-0.0016322736628353596,0.0007740776636637747
1782812019334353400,1.533353515625,-0.0010084881214424968,0.0006569906836375594,-0.0006767038139514625
1782812019344424400,1.543424560546875,-0.0011158135021105409,-0.0016421163454651833,0.0008466242579743266
1782812019354495500,1.55349560546875,-0.001192911178804934,-0.0007130939047783613,-0.0004390657413750887
1782812019364566500,1.56356640625,-0.0008815877372398973,0.0002869230229407549,-0.0009674369357526302
1782812019374637600,1.573637451171875,0.0005843085236847401,0.003014374990016222,-0.001739397761411965
1782812019384708600,1.58370849609375,-0.000195198692381382,0.0006108720554038882,0.0017972801579162478
1782812019394779600,1.593779541015625,0.0010990190785378218,0.0014099976979196072,-0.0011945943115279078
1782812019404850700,1.6038505859375,0.0004193803179077804,-0.0008997619152069092,0.0003772033378481865
1782812019414921700,1.613921630859375,0.0003062498290091753,-0.0013721499126404524,-0.0009656601469032466
1782812019424992500,1.623992431640625,0.0007571229944005609,-0.0013801392633467913,0.0009941600728780031
1782812019435064600,1.634064697265625,-0.001517975702881813,-0.0010055715683847666,0.001108140335418284
1782812019445135600,1.644135498046875,0.0016868722159415483,0.000017082085832953453,0.0007414231076836586
1782812019455206700,1.65420654296875,0.0007916154572740197,0.0007753472309559584,0.001571271801367402
1782812019465277700,1.664277587890625,0.0014169256901368499,0.00037986773531883955,-0.0006580603658221662
1782812019475348700,1.6743486328125,-0.0011463150149211287,0.0009927252540364861,-0.0033577601425349712
1782812019485419800,1.684419677734375,0.00041962374234572053,0.0026444178074598312,-0.0007609117892570794
1782812019495490600,1.694490478515625,-0.000145095051266253,-0.0003804194275289774,-0.0009787450544536114
1782812019505561600,1.7045615234375,-0.00005294964648783207,0.001355162588879466,0.0006772084743715823
1782812019515632600,1.714632568359375,0.00046413502423092723,0.001307948143221438,-0.0013471976853907108
1782812019525704700,1.72470458984375,0.0005056803347542882,0.0003081974573433399,-0.0010065794922411442
1782812019535775700,1.734775634765625,0.0008005547570064664,-0.0036153129767626524,0.0007091236766427755
1782812019545846800,1.7448466796875,0.0009446317562833428,0.0008081976557150483,-0.0012328533921390772
1782812019555917800,1.754917724609375,0.0013806172646582127,-0.0026399276684969664,0.0031197736971080303
1782812019565988600,1.764988525390625,0.0019100536592304707,0.00001710839569568634,0.0013341241283342242
1782812019576059600,1.7750595703125,0.00007010751869529486,-0.000035812146961688995,0.0009760854882188141
1782812019586130700,1.785130615234375,0.00022137508494779468,-0.0007005371153354645,-0.0007067659753374755
1782812019596201700,1.79520166015625,-0.00014908576849848032,-0.0011172310914844275,-0.0006979050231166184
1782812019606272800,1.805272705078125,0.0015167214442044497,0.00023192621301859617,-0.001601249212399125
1782812019616343800,1.81534375,-0.0013761967420578003,-0.0004823659546673298,-0.0015241170767694712
1782812019626415600,1.82541552734375,0.0017386365216225386,-0.001241633202880621,0.0005986886681057513
1782812019636486700,1.835486572265625,0.00011884164996445179,-0.0013991587329655886,-0.002216164255514741
1782812019646557700,1.8455576171875,0.0005753074656240642,0.0012794486247003078,-0.0008579520508646965
1782812019656628700,1.855628662109375,-0.00038519385270774364,-0.0009910252410918474,-0.00036826060386374593
1782812019666699500,1.865699462890625,0.0006574336439371109,-0.0016866428777575493,-0.0005160660366527736
1782812019676770600,1.8757705078125,-0.001386450370773673,0.0008156552212312818,-0.00009281368693336844
1782812019686841600,1.885841552734375,-0.00005620147567242384,-0.0003766418667510152,-0.0004422204219736159
1782812019696912600,1.89591259765625,0.001577210845425725,-0.0008711086120456457,0.001010597450658679
1782812019706983700,1.905983642578125,-0.00012055435217916965,-0.000937154982239008,0.0003511988325044513
1782812019717055500,1.916055419921875,0.001161407446488738,0.00039942876901477575,-0.0010985152330249548
1782812019727126500,1.92612646484375,-0.0009153255959972739,0.0007935767062008381,0.0008695607539266348
1782812019737197600,1.936197509765625,-0.00018181023187935352,-0.0017619376303628087,-0.0006124355713836849
1782812019747268600,1.9462685546875,0.0014453812036663294,0.0007345096673816442,-0.002817799337208271
1782812019757339600,1.956339599609375,-0.0005332545842975378,0.00021680048666894436,0.00014118861872702837
1782812019767410700,1.96641064453125,-0.0005681419279426336,-0.00031609798315912485,-0.0016090408898890018
1782812019777481500,1.9764814453125,-0.0033549433574080467,0.004573968704789877,-0.003241577884182334
1782812019787552500,1.986552490234375,-0.0002166740596294403,-0.0006061458261683583,0.0008921808330342174
1782812019797623600,1.99662353515625,0.0006189821870066226,-0.0013078791089355946,0.0009852275252342224
1782812019807694600,2.006694580078125,0.0015183317009359598,0.0012330429162830114,0.0002672392292879522
1782812019817766700,2.0167666015625,0.0008953221258707345,0.0010112120071426034,0.0001864602672867477
1782812019827837700,2.026837646484375,0.000028196838684380054,-0.0007802965119481087,0.0009052474633790553
1782812019837908700,2.03690869140625,-0.00032941391691565514,0.0009568085661157966,-0.0004964874242432415
1782812019847979500,2.0469794921875,0.0001957614440470934,-0.00007916102185845375,-0.0004797095316462219
1782812019858050600,2.057050537109375,-0.0009461982408538461,0.0019961907528340816,0.00028278911486268044
1782812019868121600,2.06712158203125,0.0017052448820322752,-0.0009612494613975286,0.0017195645486935973
1782812019878192600,2.077192626953125,-0.0014024564297869802,0.0018730155425146222,-0.0006500566378235817
1782812019888263700,2.087263671875,-0.0020016678608953953,0.0006753919878974557,-0.0010844182688742876
1782812019898334700,2.097334716796875,0.0009286788990721107,-0.00009600957855582237,0.000554125988855958
1782812019908406800,2.10740673828125,0.0011638359865173697,0.0003892184467986226,0.00045265955850481987
1782812019918477600,2.1174775390625,0.0005520706763491035,0.0013019852340221405,-0.0005505179287865758
1782812019928548600,2.127548583984375,-0.0008932268247008324,-0.0006322686094790697,0.00024017458781599998
1782812019938619600,2.13761962890625,0.001662504393607378,-0.0002833451144397259,-0.0008946282905526459
1782812019948690700,2.147690673828125,-0.00009518186561763287,-0.0027531604282557964,-0.000862137705553323
1782812019958761700,2.15776171875,0.00004105851985514164,0.0016042370116338134,0.0006396634271368384
1782812019968832800,2.167832763671875,0.0010844849748536944,-0.0005976646207273006,0.0007421951740980148
1782812019978903600,2.177903564453125,-0.0007531886221840978,0.0003888393985107541,-0.0008057893719524145
1782812019988974600,2.187974609375,0.0013720139395445585,0.00028018245939165354,0.0013782690512016416
1782812019999045600,2.198045654296875,-0.0009344394784420729,-0.00009680446237325668,-0.00041713938117027283
1782812020009117700,2.20811767578125,-0.0016231329645961523,-0.0005119913257658482,-0.0001478938211221248
1782812020019188700,2.218188720703125,0.0016663898713886738,0.001205221051350236,0.0010502251097932458
1782812020029259800,2.228259765625,-0.0015773404156789184,0.0019897883757948875,0.00016232725465670228
1782812020039330800,2.238330810546875,-0.0015402132412418723,0.0001826577354222536,-0.0005288316169753671
1782812020049401900,2.24840185546875,0.00012346357107162476,-0.0006826033350080252,0.0009223248343914747
1782812020059472600,2.25847265625,-0.00010635936632752419,0.0014156984398141503,-0.00023818884801585227
1782812020069543700,2.268543701171875,0.0012787507148459554,0.0002755991881713271,-0.0001268687192350626
1782812020079614700,2.27861474609375,-0.0001513586612418294,-0.0026711104437708855,-0.0006930343224667013
1782812020089685800,2.288685791015625,0.0014409453142434359,0.0015358849195763469,0.0015892947558313608
1782812020099757600,2.298757568359375,0.0012646313989534974,-0.0003193020820617676,-0.002169087529182434
1782812020109828600,2.30882861328125,-0.0009921313030645251,0.00036406517028808594,-0.0008130058995448053
1782812020119899600,2.318899658203125,0.000997856492176652,-0.00016835262067615986,-0.000930287700612098
1782812020129970400,2.328970458984375,0.0014058527303859591,0.002432490698993206,0.0006785278674215078
1782812020140041500,2.33904150390625,-0.000298116821795702,0.0002567028859630227,0.001066802884452045
1782812020150112500,2.349112548828125,0.0006289295270107687,-0.0023675758857280016,0.0008542826399207115
1782812020160183600,2.35918359375,0.0007142536342144012,0.002128908410668373,0.00024888128973543644
1782812020170254600,2.369254638671875,-0.0009880389552563429,0.0009067838545888662,-0.0019322475418448448
1782812020180325600,2.37932568359375,0.0004885035450570285,-0.0008110250346362591,0.0013611038448289037
1782812020190396700,2.389396728515625,-0.00041084596887230873,0.0002678214805200696,0.002124365884810686
1782812020200468500,2.399468505859375,0.00218106503598392,-0.0006825232412666082,0.0009367583552375436
1782812020210539500,2.40953955078125,-0.0010192557238042355,-0.0005216684658080339,0.00220522191375494
1782812020220610600,2.419610595703125,-0.00039671885315328836,-0.0016023516654968262,-0.0015817198436707258
1782812020230681600,2.429681640625,0.0027721766382455826,-0.0009229790885001421,0.0008574694511480629
1782812020240752600,2.439752685546875,0.000011669821105897427,-0.00038026366382837296,0.0014554602093994617
1782812020250823700,2.44982373046875,-0.000897533493116498,0.0007667599711567163,0.0007499888306483626
1782812020260894500,2.45989453125,-0.001606040052138269,0.0010545593686401844,-0.000985695980489254
1782812020270965500,2.469965576171875,0.0019463504431769252,-0.0003318821545690298,0.0022583005484193563
1782812020281036500,2.48003662109375,-0.0006542588816955686,-0.0015625127125531435,0.0008924576686695218
1782812020291107600,2.490107666015625,-0.0007943412056192756,0.001404781243763864,0.00025596219347789884
1782812020301179600,2.5001796875,0.0014127756003290415,0.0014649576041847467,-0.0017822585068643093
1782812020311250700,2.510250732421875,0.0011350078275427222,0.00015015504322946072,0.0005621221498586237
1782812020321321700,2.52032177734375,-0.00010683003347367048,-0.001688122283667326,-0.0015763700939714909
1782812020331392500,2.530392578125,0.0003118189051747322,0.00043468340300023556,0.00095816032262519
1782812020341463600,2.540463623046875,0.0011558770202100277,-0.002006969414651394,-0.0004736375412903726
1782812020351534600,2.55053466796875,0.0014275193680077791,-0.0022003152407705784,0.004246016498655081
1782812020361605600,2.560605712890625,-0.00018624216318130493,-0.002143565798178315,-0.0003449088253546506
1782812020371676700,2.5706767578125,0.0006353430799208581,0.00026393181178718805,-0.0017712978878989816
1782812020381748200,2.580748291015625,0.0011382144875824451,-0.002148487139493227,0.0008430422749370337
1782812020391819300,2.5908193359375,-0.0014152242802083492,0.0016076354077085853,0.002743473742157221
1782812020401891300,2.600891357421875,0.00007853866554796696,0.0005791109288111329,-0.000437540584243834
1782812020411962000,2.610962158203125,0.0021808380261063576,-0.0015812453348189592,-0.00023061298998072743
1782812020422033200,2.621033203125,-0.0024519027210772038,0.0010682385182008147,0.0009431480430066586
1782812020432104200,2.631104248046875,0.00027171202236786485,-0.0009456437546759844,0.00045578955905511975
1782812020442175200,2.64117529296875,-0.0003565900260582566,-0.0016912068240344524,-0.00167850311845541
1782812020452246300,2.651246337890625,0.00020879902876913548,0.0024824992287904024,0.0005351162399165332
1782812020462317300,2.6613173828125,0.0014751290436834097,0.0006543248891830444,-0.0002467068552505225
1782812020472388000,2.67138818359375,-0.00016937288455665112,0.00025458435993641615,0.0006955195567570627
1782812020482459100,2.681459228515625,-0.0021558841690421104,0.000393486930988729,0.000014236575225368142
1782812020492530200,2.6915302734375,0.0009887763299047947,-0.000028624199330806732,0.0003218316996935755
1782812020502602000,2.70160205078125,0.00040956755401566625,0.0006658292841166258,-0.0014983010478317738
1782812020512673000,2.711673095703125,0.001164840068668127,-0.001129673793911934,0.0003813581424765289
1782812020522744000,2.721744140625,-0.00022510078269988298,-0.0013813730329275131,-0.00008511199848726392
1782812020532815000,2.731815185546875,0.0021379219833761454,-0.0016250521875917912,0.0011143757728859782
1782812020542886100,2.74188623046875,-0.00037148059345781803,0.0005110971396788955,-0.001556369592435658
1782812020552957200,2.751957275390625,-0.00010915915481746197,-0.00038479012437164783,0.0009446049807593226
1782812020563028200,2.7620283203125,0.0012847322504967451,-0.0013230601325631142,-0.0010468640830367804
1782812020573099300,2.772099365234375,0.0016218884848058224,0.0007435529259964824,-0.0000734787608962506
1782812020583170000,2.782170166015625,0.0007429243414662778,-0.0003761651460081339,-0.0001435282756574452
1782812020593241000,2.792240966796875,-0.000779338413849473,0.00004115223418921232,0.001963298302143812
1782812020603313200,2.802313232421875,-0.0009695327607914805,0.0024349777959287167,0.0013808907242491841
1782812020613384200,2.81238427734375,-0.00008536328095942736,0.0008546579629182816,-0.00019064059597440064
1782812020623455000,2.822455078125,0.0008600977016612887,-0.0027668417897075415,0.0021283344831317663
1782812020633526000,2.832526123046875,-0.00001714751124382019,0.0014457465149462223,-0.002222205512225628
1782812020643597000,2.84259716796875,0.00005779764614999294,0.0008520534029230475,0.0006071378011256456
1782812020653668000,2.852668212890625,0.0008796490728855133,0.0002906590234488249,-0.000954007264226675
1782812020663739100,2.8627392578125,0.0005351011059246957,-0.0004857131280004978,-0.000881200423464179
1782812020673810200,2.87281005859375,-0.0006289666052907705,0.0010852855630218983,0.0007451920537278056
1782812020683881000,2.882880859375,0.00046912155812606215,0.0013520310167223215,0.00046195139293558896
1782812020693952000,2.892951904296875,-0.00022063718643039465,-0.0012568016536533833,-0.001502928789705038
1782812020704024000,2.903024169921875,0.0006964523927308619,-0.0013414097484201193,-0.000734444591216743
1782812020714095000,2.91309521484375,-0.000015676836483180523,0.0006434442475438118,0.0005867496365681291
1782812020724166100,2.923166259765625,-0.0010773000540211797,0.00028027023654431105,-0.0004380021127872169
1782812020734237200,2.9332373046875,0.00006652763113379478,0.00212770514190197,0.0020714944694191217
1782812020744308200,2.94330810546875,0.0010341770248487592,0.000051702139899134636,0.0008586329058744013
1782812020754379000,2.95337890625,-0.0008848968427628279,-0.00012406660243868828,0.0001419762847945094
1782812020764450000,2.963449951171875,-0.0013350358931347728,0.0013160775415599346,0.0011402082163840532
1782812020774521000,2.97352099609375,0.0020695491693913937,-0.001146014779806137,0.0024254496674984694
1782812020784592100,2.983592041015625,-0.002183702075853944,0.0012401621788740158,-0.000800355221144855
1782812020794663200,2.9936630859375,0.0006046275957487524,-0.0009889036882668734,-0.00006319224485196173
1782812020804735200,3.0037353515625,-0.0006020970176905394,0.0005252349656075239,0.00046034244587644935
1782812020814806300,3.01380615234375,-0.0013882621424272656,-0.000557606341317296,0.0002526158932596445
1782812020824877000,3.023876953125,0.0011960255214944482,-0.0004008500836789608,0.0003906256752088666
1782812020834948000,3.033947998046875,0.0000018641585484147072,-0.0015337588265538216,0.0009621399804018438
1782812020845019100,3.04401904296875,0.00006142305210232735,-0.001709002535790205,0.0007647603051736951
1782812020855090200,3.054090087890625,-0.001201181672513485,0.0010260639246553183,0.0010659638792276382
1782812020865161200,3.0641611328125,0.0018500370206311345,0.0006206739926710725,0.0007730118813924491
1782812020875232300,3.074232177734375,-0.0012336371000856161,-0.00008373218588531017,0.0005306642851792276
1782812020885303300,3.08430322265625,0.00013186607975512743,0.0012728297151625156,-0.0008919719839468598
1782812020895374000,3.0943740234375,0.0016820922028273344,0.00004910724237561226,-0.0017748099053278565
1782812020905446100,3.104446044921875,0.0010080470237880945,-0.0007426922675222158,-0.00011021440150216222
1782812020915517200,3.11451708984375,0.0005012475303374231,0.00026637932751327753,-0.0009262069361284375
1782812020925588200,3.124588134765625,0.0011345583479851484,0.002478226087987423,-0.0014140019193291664
1782812020935659300,3.1346591796875,-0.0002939612604677677,-0.000615834491327405,0.0009010839276015759
1782812020945730300,3.144730224609375,-0.001361993607133627,-0.0006309105083346367,-0.0005307809915393591
1782812020955801300,3.15480126953125,0.0016082299407571554,-0.0003177225589752197,-0.000013595155905932188
1782812020965872000,3.1648720703125,-0.0006570741534233093,-0.000006791204214096069,-0.0014971409691497684
1782812020975943200,3.174943115234375,-0.0008847743738442659,0.0003444798057898879,0.002014769474044442
1782812020986014200,3.18501416015625,-0.0012713101459667087,-0.00015623634681105614,-0.00017966108862310648
1782812020996085200,3.195085205078125,0.00151488883420825,-0.000047579407691955566,0.00011488451855257154
1782812021006157000,3.205156982421875,-0.0023342447821050882,-0.00012419791892170906,-0.0016439477913081646
1782812021016228000,3.21522802734375,-0.0007232986390590668,0.0007943264208734035,0.00023411342408508062
1782812021026299100,3.225299072265625,0.0008636992424726486,-0.00037061446346342564,-0.00034006190253421664
1782812021036370000,3.235369873046875,-0.0006761404220014811,0.00022300425916910172,0.0012841999996453524
1782812021046441000,3.24544091796875,-0.0007643820717930794,-0.0014233947731554508,-0.0007357177091762424
1782812021056512000,3.255511962890625,0.000486504752188921,-0.0002039333339780569,-0.0018582402262836695
1782812021066583000,3.2655830078125,0.0004894057055935264,-0.00012515299022197723,-0.0020756623707711697
1782812021076654000,3.275654052734375,-0.0011178120039403439,0.0012266675475984812,-0.0015773847699165344
1782812021086725000,3.28572509765625,0.0014596249675378203,0.00023932498879730701,-0.0007629321771673858
1782812021096796200,3.295796142578125,-0.0006514628184959292,0.0003114965511485934,-0.0020194114185869694
1782812021106868000,3.305867919921875,0.001161060994490981,-0.0023968853056430817,-0.000058889680076390505
1782812021116939000,3.31593896484375,-0.00009808165486901999,-0.0010416025761514902,-0.00014198030112311244
1782812021127010000,3.326010009765625,-0.0015871623763814569,0.00001768302172422409,0.0017491421895101666
1782812021137081000,3.3360810546875,0.001126332557760179,-0.0006214755121618509,0.0017499412642791867
1782812021147152100,3.346152099609375,0.0003830352798104286,-0.0014861319214105606,-0.002005530521273613
1782812021157223200,3.35622314453125,0.0017015662742778659,-0.001227805158123374,-0.00021162521443329751
1782812021167294000,3.3662939453125,-0.001317756250500679,-0.0011373988818377256,-0.00036682680365629494
1782812021177365000,3.376364990234375,0.0017203778261318803,-0.003667668206617236,0.0021650404669344425
1782812021187436000,3.38643603515625,0.0006766664446331561,0.0012103517074137926,-0.0000803290749900043
1782812021197507000,3.396507080078125,-0.0007872732821851969,-0.0001963297836482525,0.0014491244219243526
1782812021207578000,3.406578125,-0.0009602266363799572,-0.0008558661211282015,0.0014890236780047417
1782812021217650200,3.416650146484375,-0.00046088395174592733,0.00013829185627400875,0.0017244471237063408
1782812021227721200,3.42672119140625,-0.0009428695775568485,0.0021496457047760487,-0.0010029516415670514
1782812021237792300,3.436792236328125,-0.0011388780549168587,0.001145900459960103,-0.001311079366132617
1782812021247863000,3.446863037109375,0.0005936750676482916,0.000563407433219254,-0.00029317240114323795
1782812021257934000,3.45693408203125,-0.0023243504110723734,-0.0002390029840171337,0.0006253517931327224
1782812021268005000,3.467005126953125,0.001650082878768444,-0.0006719345692545176,0.001794109703041613
1782812021278076200,3.477076171875,-0.0006940314779058099,0.0005619080038741231,0.0007802443578839302
1782812021288147200,3.487147216796875,0.002813495695590973,-0.000005334150046110153,0.0018324987031519413
1782812021298218200,3.49721826171875,-0.0009072066750377417,-0.00014967750757932663,-0.0005156104452908039
1782812021308289000,3.5072890625,-0.0010418037418276072,-0.00048136082477867603,0.0013512196019291878
1782812021318361000,3.517361083984375,0.0017332101706415415,0.002204170683398843,-0.0012594771105796099
1782812021328432000,3.52743212890625,-0.0001869763946160674,-0.0000145637895911932,-0.0005508702015504241
1782812021338503200,3.537503173828125,-0.00008977099787443876,0.0008216686546802521,0.001049689599312842
1782812021348574200,3.54757421875,0.0010743975872173905,0.0006886153714731336,0.0005682987393811345
1782812021358645200,3.557645263671875,-0.0008542637806385756,0.0004145761486142874,-0.00036567181814461946
1782812021368716300,3.56771630859375,-0.0012677450431510806,0.0030680568888783455,0.0008575024548918009
1782812021378787000,3.577787109375,-0.0016770729562267661,0.0003372514620423317,-0.0018304260447621346
1782812021388858600,3.587858642578125,-0.0006588391261175275,-0.0005326285026967525,0.0014364237431436777
1782812021398929700,3.5979296875,-0.00009611318819224834,0.0022812674287706614,-0.0021023848094046116
1782812021409000700,3.608000732421875,-0.0002688121749088168,-0.0002675820142030716,-0.00005673745181411505
1782812021419072500,3.618072509765625,0.001173555850982666,-0.0023469782900065184,-0.00011293013812974095
1782812021429143600,3.6281435546875,0.001693904516287148,0.001188392285257578,0.0008542259456589818
1782812021439214600,3.638214599609375,-0.00014127977192401886,-0.00014718296006321907,-0.0015388906467705965
1782812021449285600,3.64828564453125,-0.0017911724280565977,-0.0015910763759166002,-0.0010440037585794926
1782812021459356700,3.658356689453125,0.0006498809088952839,-0.0020824293605983257,-0.0001443879446014762
1782812021469427700,3.668427734375,0.00021452573128044605,-0.0013501860667020082,-0.0011405418626964092
1782812021479498800,3.678498779296875,0.0008725927909836173,0.0004138917429372668,-0.00298771052621305
1782812021489569500,3.688569580078125,-0.001167057198472321,-0.0005388376303017139,-0.0008084243163466454
1782812021499640600,3.698640625,0.0007349723600782454,0.0001890042331069708,0.000956985168159008
1782812021509711600,3.708711669921875,-0.000009471201337873936,-0.0010596332140266895,-0.0002809213474392891
1782812021519782700,3.71878271484375,0.002384710591286421,-0.00030649127438664436,0.0019031369592994452
1782812021529854500,3.7288544921875,0.0007294522947631776,0.0004762699827551842,0.001951258396729827
1782812021539925500,3.738925537109375,-0.0018210570560768247,-0.00026195822283625603,0.0003829228808172047
1782812021549996500,3.74899658203125,-0.0003820203710347414,0.0007780002197250724,-0.0008029245072975755
1782812021560067300,3.7590673828125,-0.0002219643210992217,0.0022065197117626667,0.00040774844819679856
1782812021570138400,3.769138427734375,-0.0022809209767729044,0.0006879002321511507,0.000639632111415267
1782812021580209400,3.77920947265625,0.0010363125475123525,0.0007611371111124754,0.0009062144672498107
1782812021590280400,3.789280517578125,-0.002456391928717494,-0.001568809151649475,0.0010961962398141623
1782812021600351500,3.7993515625,-0.0016073761507868767,-0.001366675365716219,0.0019015360157936811
1782812021610422500,3.809422607421875,-0.0020694034174084663,0.0018075508996844292,0.00044564460404217243
1782812021620493300,3.819493408203125,-0.000030221068300306797,-0.0005954194348305464,-0.00035357006709091365
1782812021630564400,3.829564453125,0.00007095152977854013,0.001408454729244113,-0.0014423648826777935
1782812021640636400,3.839636474609375,0.000840871362015605,-0.001274946378543973,-0.0002969392517115921
1782812021650707500,3.84970751953125,0.0011851036688312888,-0.0010170473251491785,0.002658261451870203
1782812021660778500,3.859778564453125,0.0005709786782972515,-0.0019928296096622944,-0.00100358494091779
1782812021670849500,3.869849609375,0.000026301247999072075,0.0003066387725993991,0.000911983719561249
1782812021680920600,3.879920654296875,0.0015301882522180676,-0.0012864640448242426,-0.0008433057810179889
1782812021690991400,3.889991455078125,0.0014777429169043899,-0.0023361947387456894,0.0005591133958660066
1782812021701062400,3.9000625,0.0023105135187506676,0.0007717141415923834,0.0006517914007417858
1782812021711133400,3.910133544921875,-0.0013434210559353232,-0.0001419559121131897,0.0007980676600709558
1782812021721204500,3.92020458984375,0.0011463681003078818,-0.0005400984082370996,-0.0018637619214132428
1782812021731275500,3.930275634765625,0.0015069571090862155,-0.000869769835844636,0.001766720088198781
1782812021741347600,3.94034765625,0.0005583391757681966,0.0021036495454609394,0.0009382108110003173
1782812021751418600,3.950418701171875,-0.0005586480256170034,-0.0005967339966446161,0.0003839077544398606
1782812021761489700,3.96048974609375,0.00002351903822273016,0.0006453644018620253,-0.0007058577029965818
1782812021771560400,3.970560546875,-0.0011037029325962067,-0.0005578692071139812,-0.0006669838912785053
1782812021781631500,3.980631591796875,0.0025027499068528414,-0.0012809173204004765,0.0003751110634766519
1782812021791702500,3.99070263671875,-0.00033804611302912235,0.0002666567452251911,-0.00008759769843891263
1782812021801773600,4.000773681640625,0.002096882089972496,0.00024375354405492544,0.00040082604391500354
1782812021811844600,4.0108447265625,-0.001768304849974811,-0.00004218309186398983,-0.0011709638638421893
1782812021821915600,4.02091552734375,0.0011289480607956648,0.0002289267722517252,0.0009158891043625772
1782812021831986400,4.030986328125,-0.00002012785989791155,0.00033531629014760256,0.001972078811377287
1782812021842057500,4.041057373046875,0.00223370548337698,0.002145466860383749,-0.0017036159988492727
1782812021852129500,4.051129638671875,-0.00013439857866615057,0.0006222083466127515,-0.0008886444848030806
1782812021862200600,4.06120068359375,0.00007971958257257938,0.0014765504747629166,0.0009169786935672164
1782812021872271600,4.071271728515625,-0.00019351369701325893,0.0003390045603737235,0.0009693325846455991
1782812021882342700,4.0813427734375,0.0013367385836318135,-0.0015201482456177473,-0.00024906365433707833
1782812021892413700,4.09141357421875,-0.002791760955005884,0.0005267607048153877,-0.0018665737006813288
1782812021902484500,4.101484375,-0.001827163971029222,-0.0012245341204106808,-0.001545929117128253
1782812021912555500,4.111555419921875,-0.0005929511971771717,0.0008404565742239356,-0.0010842240881174803
1782812021922626600,4.12162646484375,-0.0005583300953730941,-0.001698867417871952,0.0008335181628353894
1782812021932697600,4.131697509765625,0.0036620611790567636,-0.0012333053164184093,0.0005406092968769372
1782812021942768600,4.1417685546875,0.00038930249866098166,0.0007235853699967265,-0.0010951042640954256
1782812021952839700,4.151839599609375,0.001298612100072205,-0.000645199092105031,-0.0013728279154747725
1782812021962911500,4.161911376953125,-0.0003016813425347209,0.0004871769342571497,0.0005904544377699494
1782812021972982500,4.171982421875,-0.0007237475365400314,0.0008947455789893866,-0.001994951395317912
1782812021983053600,4.182053466796875,0.0002794652828015387,-0.0004235191736370325,0.00047220103442668915
1782812021993124600,4.19212451171875,0.004658829420804977,-0.00015519442968070507,0.0008269703248515725
1782812022003195600,4.202195556640625,-0.0009260856313630939,-0.0014542844146490097,-0.000980517128482461
1782812022013266700,4.2122666015625,-0.0005665883654728532,0.000465708551928401,0.0010731802321970463
1782812022023337700,4.222337646484375,-0.000029428862035274506,-0.0016206118743866682,-0.0015095535200089216
1782812022033408500,4.232408447265625,-0.0010053243022412062,-0.0011487780138850212,-0.0011222126195207238
1782812022043479600,4.2424794921875,0.0015379944816231728,0.0005148987984284759,-0.00026920210802927613
1782812022053550600,4.252550537109375,0.00043406226905062795,0.0011836630292236805,0.0015198222827166319
1782812022063621600,4.26262158203125,-0.00024504377506673336,0.0008726057130843401,-0.001728701638057828
1782812022073693400,4.272693359375,0.0017176370602101088,-0.0012652380391955376,0.0006064402405172586
1782812022083764500,4.282764404296875,-0.0009047776693478227,0.0011379984207451344,0.0005667591467499733
1782812022093835500,4.29283544921875,-0.0013588512083515525,-0.0019672063644975424,0.0006607989780604839
1782812022103906600,4.302906494140625,-0.0011386078549548984,0.0014325849479064345,-0.0002971400390379131
1782812022113977300,4.312977294921875,-0.0007043416844680905,0.00026247266214340925,0.0007392089464701712
1782812022124048400,4.32304833984375,0.0016048853285610676,-0.00006110151298344135,-0.00310533051379025
1782812022134119400,4.333119384765625,-0.0019964645616710186,0.0023012738674879074,-0.0009788015158846974
1782812022144190500,4.3431904296875,-0.00039670371916145086,-0.0018095816485583782,0.00007820711471140385
1782812022154261500,4.353261474609375,0.00026309973327443004,0.0014752636197954416,-0.0017775361193343997
1782812022164332500,4.36333251953125,-0.001905512297526002,0.001572202774696052,0.0006139824399724603
1782812022174403300,4.3734033203125,0.00045241968473419547,0.00027915509417653084,-0.0013235467486083508
1782812022184475400,4.383475341796875,-0.00024213269352912903,0.0006847545737400651,0.0011864826083183289
1782812022194546400,4.39354638671875,0.0026595797389745712,0.0011295159347355366,-0.0010772773530334234
1782812022204617500,4.403617431640625,0.0005711287376470864,-0.0047318353317677975,0.000417554983869195
1782812022214688500,4.4136884765625,-0.0008361516520380974,-0.0009984157513827085,-0.000011072959750890732
1782812022224759600,4.423759521484375,-0.0033294029999524355,-0.0001222358550876379,0.0031516971066594124
1782812022234830600,4.43383056640625,0.0009390659397467971,-0.002196041401475668,0.0018783252453431487
1782812022244901400,4.4439013671875,-0.000569348456338048,-0.003793139010667801,0.00029241276206448674
1782812022254972400,4.453972412109375,0.000658492324873805,0.0013253967044875026,-0.0004780006129294634
1782812022265043500,4.46404345703125,-0.002129038330167532,0.00022231542970985174,-0.0008239452727138996
1782812022275114500,4.474114501953125,0.001540420576930046,0.0000730700558051467,-0.0016262158751487732
1782812022285185500,4.484185546875,-0.0011885205749422312,0.0007175550563260913,-0.0019045161316171288
1782812022295257600,4.494257568359375,0.00043623021338135004,0.002020725980401039,0.00017675134586170316
1782812022305328600,4.50432861328125,-0.0002764316741377115,0.0006468011997640133,0.00028434302657842636
1782812022315399400,4.5143994140625,-0.0003522285260260105,-0.0014906299766153097,-0.0006038545398041606
1782812022325470500,4.524470458984375,0.0009710962185636163,-0.00030232733115553856,0.0007895113085396588
1782812022335541500,4.53454150390625,-0.0002806984120979905,-0.0011676221620291471,0.0019921844359487295
1782812022345612500,4.544612548828125,-0.0015800547553226352,-0.0008895881474018097,0.00027231505373492837
1782812022355683600,4.55468359375,0.0005293359863571823,0.0024254433810710907,-0.0017079031094908714
1782812022365754600,4.564754638671875,-0.001956192310899496,-0.0005626233760267496,-0.0023619753774255514
1782812022375825400,4.574825439453125,0.0009527751826681197,0.00030394154600799084,-0.0009191130520775914
1782812022385895200,4.584895263671875,-0.00008159654680639505,-0.0006694437470287085,0.00094749650452286
1782812022395966200,4.59496630859375,0.0002166684134863317,0.00013225304428488016,-0.0005719522596336901
1782812022406038300,4.605038330078125,0.00015062210150063038,0.0030137933790683746,-0.00019458233145996928
1782812022416109300,4.615109375,0.0008159453282132745,-0.0031404488254338503,0.0004515592590905726
1782812022426180400,4.625180419921875,-0.0015127226943150163,0.0019198233494535089,-0.001924779498949647
1782812022436251100,4.635251220703125,0.0020715738646686077,0.001137930783443153,-0.000646374945063144
1782812022446322200,4.645322265625,0.0024822335690259933,-0.002663198858499527,0.0007643014541827142
1782812022456393200,4.655393310546875,-0.002427307888865471,-0.000011255964636802673,-0.0015071745729073882
1782812022466464300,4.66546435546875,-0.001086672767996788,0.0006289678858593106,0.0009674347238615155
1782812022476535300,4.675535400390625,-0.0017469937447458506,-0.00028505222871899605,-0.0013039163313806057
1782812022486606300,4.6856064453125,-0.0009874601382762194,-0.0013921281788498163,-0.0009790107142180204
1782812022496677000,4.695677001953125,0.0024780631065368652,0.0018587171798571944,-0.0017605945467948914
1782812022506748200,4.705748046875,0.002449833555147052,0.0011721542105078697,-0.0031140130013227463
1782812022516820200,4.7158203125,-0.00045887252781540155,-0.00020759319886565208,-0.0006546364165842533
1782812022526891300,4.725891357421875,-0.0014407801209017634,0.0007921574870124459,-0.000802441849373281
1782812022536962300,4.73596240234375,0.0008312263526022434,-0.0013675536029040813,-0.00019289736519567668
1782812022547033300,4.746033447265625,-0.0014292647829279304,-0.0012319989036768675,0.0006886089686304331
1782812022557104400,4.7561044921875,-0.0010108021087944508,0.0010952979791909456,-0.0020422921516001225
1782812022567175200,4.766175048828125,0.0005982797592878342,-0.0008626580238342285,0.0005644098855555058
1782812022577246200,4.77624609375,-0.0005893554771319032,0.0016512898728251457,0.003164083231240511
1782812022587317200,4.786317138671875,-0.0006170523120090365,0.0008270415710285306,-0.0018977870931848884
1782812022597388300,4.79638818359375,0.00004477740731090307,0.0013363789767026901,-0.0020273050758987665
1782812022607459300,4.806459228515625,-0.0000036922283470630646,0.0009294480551034212,-0.00007520790677517653
1782812022617530400,4.8165302734375,-0.0004654413787648082,-0.002911066636443138,-0.0008924174471758306
1782812022627601400,4.826601318359375,0.00018144043860957026,-0.00012326962314546108,-0.0008047994924709201
1782812022637673500,4.836673583984375,-0.002555267186835408,0.000832319026812911,-0.003269787412136793
1782812022647744300,4.846744140625,0.0011811478761956096,0.0004610744072124362,-0.00012885531759820879
1782812022657815300,4.856815185546875,-0.0008611558005213737,0.0008638717699795961,-0.0007343669421970844
1782812022667886300,4.86688623046875,0.0007191640324890614,0.0009759909007698298,-0.001551158493384719
1782812022677957400,4.876957275390625,-0.0011247553629800677,-0.0011811347212642431,-0.0010249372571706772
1782812022688028400,4.8870283203125,-0.00013485841918736696,0.0005901337135583162,0.00007361674215644598
1782812022698099500,4.897099365234375,0.0015591830015182495,-0.000890734139829874,-0.0009513777913525701
1782812022708170200,4.907170166015625,0.002476641908288002,0.0020757608581334352,0.0015618472825735807
1782812022718241300,4.9172412109375,0.000641394522972405,0.0009095413843169808,0.00001091009471565485
1782812022728312300,4.927312255859375,0.0010025191586464643,0.0021543027833104134,0.0025086889509111643
1782812022738383400,4.93738330078125,0.0005827732966281474,0.000888975802809,-0.0003681749803945422
1782812022748455200,4.947455078125,0.00006532110273838043,-0.0022018887102603912,0.001691513927653432
1782812022758526200,4.957526123046875,-0.0005182926543056965,-0.00043892860412597656,-0.00001748255454003811
1782812022768597200,4.96759716796875,-0.00021123024635016918,-0.0010682335123419762,0.001975360792130232
1782812022778668300,4.977668212890625,0.0011439148802310228,0.0014061345718801022,0.0017242339672520757
1782812022788739300,4.9877392578125,0.0013606961583718657,0.0008910791948437691,0.000007560302037745714
1782812022798810400,4.997810302734375,0.001956378109753132,0.00025445851497352123,-0.0019958801567554474
1782812022808881400,5.00788134765625,-0.0019182547694072127,0.0021868483163416386,-0.0022792406380176544
1782812022818952400,5.017952392578125,0.001108489348553121,0.0007837256416678429,0.0015045672189444304
1782812022829023500,5.0280234375,0.0007313857786357403,0.001899323775433004,0.000367663917131722
1782812022839094300,5.03809423828125,0.0020270219538360834,0.0008040209067985415,-0.0004947221605107188
1782812022849165300,5.048165283203125,0.002247797790914774,-0.0013741785660386086,0.0005907822633162141
1782812022859236400,5.058236328125,0.001717841369099915,-0.0013106449041515589,0.0020308461971580982
1782812022869308200,5.06830810546875,0.00008505734149366617,0.0021975371055305004,0.0016084687085822225
1782812022879379200,5.078379150390625,0.0015656312461942434,0.0016096053877845407,-0.002741046715527773
1782812022889450200,5.0884501953125,-0.00019711500499397516,-0.0025939277838915586,0.0007639395771548152
1782812022899521300,5.098521240234375,-0.0017126323655247688,0.001286613056436181,-0.0008497753879055381
1782812022909592000,5.108592041015625,0.0015289672883227468,-0.0006958441808819771,-0.0010170219466090202
1782812022919663000,5.1186630859375,0.00003821833524852991,-0.0017610974609851837,-0.0007619147654622793
1782812022929734100,5.128734130859375,-0.001651557395234704,-0.0006934362463653088,0.0003907013451680541
1782812022939805200,5.13880517578125,0.0008491997723467648,0.0012752148322761059,0.001752485055476427
1782812022949876200,5.148876220703125,-0.0005950324703007936,-0.0008443950209766626,-0.000056067598052322865
1782812022959947300,5.158947265625,0.0004969544243067503,-0.000493958592414856,-0.001471211202442646
1782812022970018300,5.169018310546875,0.00039016164373606443,-0.0016622873954474926,0.0006984660867601633
1782812022980089000,5.179089111328125,-0.0031106965616345406,0.002372360322624445,-0.0015290123410522938
1782812022990161200,5.1891611328125,-0.00039933237712830305,0.00038777280133217573,0.00036449520848691463
1782812023000232200,5.199232177734375,0.0019076569005846977,0.0008876473875716329,0.0016771238297224045
1782812023010303200,5.20930322265625,-0.0014252891996875405,-0.0004726953338831663,-0.002178600989282131
1782812023020374300,5.219374267578125,0.00017650955123826861,-0.0022908595856279135,-0.001543473917990923
1782812023030445300,5.2294453125,0.00035920238588005304,0.0004103847313672304,-0.0019983418751507998
1782812023040516400,5.239516357421875,0.0018869577907025814,-0.0004640384577214718,0.0006666559493169188
1782812023050587100,5.249587158203125,-0.00027393107302486897,0.0013607593718916178,-0.00013788501382805407
1782812023060658200,5.259658203125,-0.001205151667818427,-0.00023653870448470116,0.00030200608307495713
1782812023070729200,5.269729248046875,0.0010308382334187627,-0.0001784816849976778,-0.001983518712222576
1782812023080800300,5.27980029296875,0.0006119078607298434,0.002220769412815571,0.0009950248058885336
1782812023090871300,5.289871337890625,0.002476386958733201,-0.00044931587763130665,0.0007545414264313877
1782812023100942300,5.2999423828125,0.000532032921910286,-0.00101364403963089,-0.00027446314925327897
1782812023111014400,5.310014404296875,0.00048356340266764164,0.00014083634596318007,0.001750870724208653
1782812023121084200,5.320084228515625,-0.000015303841792047024,0.0008972290670499206,-0.001785391941666603
1782812023131155200,5.3301552734375,-0.001558605581521988,-0.0006346211303025484,-0.00046686085988767445
1782812023141226200,5.340226318359375,0.0011748367687687278,0.000481746275909245,0.0019892151467502117
1782812023151297300,5.35029736328125,-0.0012808640021830797,-0.0014770086854696274,-0.0008955209632404149
1782812023161368300,5.360368408203125,0.0032707196660339832,0.00036221742630004883,-0.0018816550727933645
1782812023171439000,5.370439208984375,-0.002260932233184576,-0.0005211532115936279,-0.001818005577661097
1782812023181510100,5.38051025390625,0.00005065754521638155,0.0006717013893648982,0.00036833580816164613
1782812023191581200,5.390581298828125,-0.0024210221599787474,-0.0020577723626047373,0.0013065674575045705
1782812023201652200,5.40065234375,0.0005716676241718233,-0.002354137133806944,-0.00016126336413435638
1782812023211724300,5.410724365234375,-0.0009439373388886452,-0.0010968588758260012,-0.0018787359585985541
1782812023221795300,5.42079541015625,0.003319770097732544,-0.0003002763260155916,0.00023562408750876784
1782812023231866400,5.430866455078125,-0.0012030760990455747,-0.0006006807088851929,-0.00008981418795883656
1782812023241937200,5.440937255859375,0.0019482411444187164,0.0019246836891397834,-0.0002175960980821401
1782812023252008200,5.45100830078125,-0.0002613837132230401,0.0010959079954773188,-0.0003917668364010751
1782812023262079200,5.461079345703125,-0.00020741100888699293,0.001046597957611084,0.0007070460706017911
1782812023272150300,5.471150390625,0.001160388463176787,-0.0006311933975666761,-0.0005347859696485102
1782812023282221300,5.48122119140625,0.00006945524364709854,-0.0006412144284695387,-0.0016148327849805355
1782812023292292400,5.491292236328125,0.0010897122556343675,0.00032631191425025463,-0.000762354873586446
1782812023302363100,5.501363037109375,0.0006918626604601741,-0.0020310119725763798,-0.0009048100910149515
1782812023312434200,5.51143408203125,-0.0012525112833827734,0.0007661060662940145,-0.00017643554019741714
1782812023322505200,5.521505126953125,0.002382432110607624,0.0005043653072789311,0.000030142022296786308
1782812023332577300,5.531577392578125,-0.002196074230596423,-0.0002679515164345503,0.0020456225611269474
1782812023342648300,5.5416484375,0.00035094161285087466,0.0006834025261923671,0.0006220315117388964
1782812023352719400,5.55171923828125,-0.00017236953135579824,0.0036325871478766203,0.0023517548106610775
1782812023362790400,5.561790283203125,0.0018075027037411928,0.03226955607533455,-0.0026990538462996483
1782812023372861400,5.571861328125,0.0005153369274921715,-0.00747785484418273,-0.0016561601078137755
1782812023382932200,5.58193212890625,0.0018692479934543371,-0.0001357856672257185,0.004259700886905193
1782812023393004500,5.592004638671875,-0.000011209980584681034,0.008008693344891071,-0.00013691143249161541
1782812023403075600,5.60207568359375,-0.00017003167886286974,-0.015771420672535896,-0.0010647218441590667
1782812023413146400,5.612146484375,-0.0024129459634423256,-0.003720615990459919,-0.0011912219924852252
1782812023423217400,5.622217529296875,0.0011763633228838444,-0.012094368226826191,-0.0010286277392879128
1782812023433288400,5.632288330078125,-0.0018031811341643333,-0.006384284235537052,0.0002424990525469184
1782812023443359500,5.642359375,0.0013356312410905957,0.0010403585620224476,0.0005764949601143599
1782812023453430500,5.652430419921875,0.0005625156336463988,-0.00044488650746643543,-0.0011295259464532137
