time,seconds_elapsed,z,y,x
1782812036722609200,0.068609130859375,-0.0016935748280957341,0.0007099020294845104,-0.0007231807103380561
1782812036732680000,0.078679931640625,-0.0007084714015945792,-0.0005162172019481659,0.0009293106850236654
1782812036742751000,0.0887509765625,-0.001727455761283636,0.0012789508327841759,0.000986806582659483
1782812036752822000,0.098822021484375,-0.00038948352448642254,0.0011838760692626238,0.0002730793785303831
1782812036762893000,0.10889306640625,-0.0022992424201220274,0.0010106691624969244,0.0005898503004573286
1782812036772964000,0.118964111328125,-0.0003074642736464739,-0.000867924652993679,0.00021248037228360772
1782812036783035100,0.12903515625,-0.0011610136134549975,0.0007999128429219127,-0.0020542817655950785
1782812036793107000,0.13910693359375,0.0010656553786247969,0.0009591698180884123,-0.0007101843366399407
1782812036803177700,0.149177734375,-0.0022828856017440557,-0.0003323585260659456,-0.0008675155695527792
1782812036813248800,0.159248779296875,-0.0009193471632897854,-0.0011291762348264456,0.0028553172014653683
1782812036823319800,0.16931982421875,0.00006739632226526737,0.00134189217351377,-0.00005343282828107476
1782812036833390800,0.179390869140625,0.0005683369236066937,-0.0005920953117311001,0.00038252666126936674
1782812036843462000,0.1894619140625,0.0008391019655391574,-0.0015373511705547571,0.0016398705774918199
1782812036853533000,0.199532958984375,0.0015602860366925597,-0.0016215071082115173,0.0017658380093052983
1782812036863604000,0.20960400390625,0.00006036215927451849,-0.0003170270938426256,0.0022721588611602783
1782812036873674800,0.2196748046875,-0.0008730757981538773,-0.00027468265034258366,-0.00023760402109473944
1782812036883745800,0.229745849609375,-0.0008482885314151645,0.0012366713490337133,-0.001797879347577691
1782812036893816800,0.23981689453125,0.0004782319883815944,-0.0002866568975150585,-0.0010617816587910056
1782812036903888000,0.249887939453125,-0.0008553533116355538,0.00040495279245078564,-0.00196472043171525
1782812036913959000,0.259958984375,-0.0008681364124640822,-0.0003607058897614479,-0.00005709822289645672
1782812036924030000,0.270030029296875,-0.00015359045937657356,0.0024930329527705908,-0.00039209547685459256
1782812036934101000,0.28010107421875,-0.0006348236929625273,0.00020537758246064186,-0.00035134912468492985
1782812036944172000,0.290172119140625,-0.0014521628618240356,0.0033267615363001823,0.000875549390912056
1782812036954243000,0.3002431640625,-0.0010644064750522375,-0.00005944771692156792,0.00027207715902477503
1782812036964313900,0.31031396484375,-0.0017515089130029082,-0.0016901930794119835,-0.003700478933751583
1782812036974385000,0.320385009765625,0.0027284608222544193,0.0013870896073058248,0.00023567292373627424
1782812036984456000,0.3304560546875,-0.0002759906928986311,-0.0001317928545176983,-0.0004392766859382391
1782812036994527000,0.34052685546875,0.0007794200209900737,0.0011198928114026785,0.00012637872714549303
1782812037004598000,0.350597900390625,-0.0012882101582363248,-0.0013589051086455584,-0.0006873692036606371
1782812037014669800,0.360669921875,0.0007070301217027009,0.0013066527899354696,-0.00026765503571368754
1782812037024740900,0.370740966796875,-0.0013375907437875867,0.0030681518837809563,0.0009061467717401683
1782812037034812000,0.38081201171875,-0.0017421249067410827,0.0019179326482117176,0.001998309278860688
1782812037044883000,0.390883056640625,-0.0004168024752289057,0.0014296101871877909,-0.00008666139910928905
1782812037054954000,0.4009541015625,0.0010908129625022411,-0.003312147920951247,0.0006963079795241356
1782812037065024800,0.411024658203125,-0.000611007446423173,0.00008759659249335527,-0.0005335328169167042
1782812037075095800,0.421095703125,-0.0017321982886642218,0.00036935904063284397,0.0028188545256853104
1782812037085166800,0.431166748046875,0.0018061952432617545,-0.0010399282909929752,0.000495453889016062
1782812037095238000,0.44123779296875,0.0004165578284300864,0.00028020073659718037,0.00027361256070435047
1782812037105309000,0.451308837890625,-0.0017441088566556573,-0.0015268523711711168,0.0009008648339658976
1782812037115380000,0.4613798828125,0.000045269145630300045,-0.0005539995618164539,-0.0004285851609893143
1782812037125450800,0.47145068359375,-0.0006357500096783042,-0.0005474153440445662,-0.0006601957138627768
1782812037135521800,0.481521728515625,0.0007858453318476677,0.002989262342453003,-0.0002902826527133584
1782812037145592800,0.4915927734375,0.00005139841232448816,0.000041671330109238625,0.00009591301204636693
1782812037155664000,0.501663818359375,-0.0012357074301689863,-0.0013865821529179811,-0.0004726718761958182
1782812037165735000,0.51173486328125,-0.00089792360085994,-0.00044472399167716503,-0.001182433683425188
1782812037175806000,0.521805908203125,0.00046481587924063206,0.0004149444866925478,0.00013902690261602402
1782812037185876700,0.531876708984375,0.0005535981617867947,-0.0011239403393119574,-0.002005164511501789
1782812037195947800,0.54194775390625,-0.0003010102082043886,0.0024644029326736927,0.0012537456350401044
1782812037206018800,0.552018798828125,-0.0009214330930262804,0.0009444965980947018,-0.0005902139819227159
1782812037216089900,0.56208984375,0.0021337452344596386,-0.002048363909125328,0.0022697546519339085
1782812037226162000,0.572161865234375,-0.00144742161501199,-0.0002586902119219303,-0.0009519266895949841
1782812037236233000,0.58223291015625,-0.00107804115395993,0.0005455843638628721,-0.00021343212574720383
1782812037246304000,0.592303955078125,0.001063198666088283,-0.00018789316527545452,-0.0007531047449447215
1782812037256374800,0.602374755859375,-0.0006971507100388408,-0.0010680677369236946,0.0011401365045458078
1782812037266445800,0.61244580078125,0.0005820056539960206,0.0011021432001143694,0.0003198874182999134
1782812037276516900,0.622516845703125,0.0016193068586289883,0.0022595529444515705,-0.002103056525811553
1782812037286588000,0.632587890625,0.0010584951378405094,-0.0015243685338646173,0.0006351475021801889
1782812037296659000,0.642658935546875,0.0032374935690313578,-0.0010343468748033047,0.0009661784279160202
1782812037306730000,0.65272998046875,-0.00033820909447968006,-0.000020583393052220345,-0.0002738750190474093
1782812037316801000,0.662801025390625,-0.0007193073397502303,0.0007171122124418616,-0.0012768214801326394
1782812037326871800,0.672871826171875,0.001546554616652429,0.00036557891871780157,-0.0004297974519431591
1782812037336942800,0.68294287109375,-0.002020749729126692,-0.00026825349777936935,0.00011694955173879862
1782812037347014000,0.693013916015625,-0.00002427364233881235,0.0017020308878272772,-0.0008958367398008704
1782812037357085000,0.7030849609375,-0.00030257401522248983,-0.0027094953693449497,0.0010344224283471704
1782812037367156000,0.713156005859375,0.0010713529773056507,0.0009676120243966579,-0.0004019729094579816
1782812037377227000,0.72322705078125,0.001295591122470796,-0.0006007235497236252,-0.00036255811573937535
1782812037387297800,0.7332978515625,0.001619391143321991,0.003370212158188224,0.0004350240924395621
1782812037397369300,0.743369384765625,0.002156018279492855,0.00246047624386847,0.001951427897438407
1782812037407440400,0.7534404296875,-0.0014857301721349359,-0.000385587802156806,-0.00008901109686121345
1782812037417511200,0.76351123046875,0.00044080050429329276,0.00003172946162521839,-0.0018664048984646797
1782812037427582200,0.773582275390625,0.0026414566673338413,-0.0022413332480937243,0.0004408174427226186
1782812037437653200,0.7836533203125,-0.0005458146333694458,0.0029813917353749275,-0.0003440161235630512
1782812037447724300,0.793724365234375,0.00009276322089135647,-0.0012708352878689766,-0.0007802937179803848
1782812037457796400,0.80379638671875,0.000210208585485816,-0.002166456077247858,0.002530281897634268
1782812037467867400,0.813867431640625,0.0014355604071170092,-0.0004555040504783392,-0.0011224881745874882
1782812037477938400,0.8239384765625,-0.00009096344001591206,0.0008678205776959658,-0.0010095702018588781
1782812037488009200,0.83400927734375,-0.00039060739800333977,-0.00042615155689418316,0.0005230304086580873
1782812037498080300,0.844080322265625,0.00028556917095556855,0.0004300546133890748,0.00028521008789539337
1782812037508151300,0.8541513671875,0.0012328671291470528,-0.0021953287068754435,0.000972467300016433
1782812037518222300,0.864222412109375,0.0016400645254179835,0.001030824612826109,0.0028180379886180162
1782812037528293400,0.87429345703125,0.000577265047468245,-0.0009196780156344175,-0.0031831921078264713
1782812037538364400,0.884364501953125,-0.0002800064394250512,0.0005618385039269924,0.0007188713643699884
1782812037548435200,0.894435302734375,-0.0006885580951347947,-0.0008399069774895906,-0.00022124883253127337
1782812037558506200,0.90450634765625,0.0010917650070041418,-0.0006084784399718046,0.0011321696219965816
1782812037568577300,0.914577392578125,-0.002615280682221055,-0.00033480371348559856,0.001022856100462377
1782812037578648300,0.9246484375,-0.002068267436698079,0.0020513886120170355,-0.0007169870659708977
1782812037588719400,0.93471923828125,0.0011752224527299404,-0.0004333511460572481,-0.0009541535982862115
1782812037598790400,0.944790283203125,-0.001357709988951683,-0.0006125820800662041,-0.0011336506577208638
1782812037608861400,0.954861328125,0.00009308324661105871,-0.0014135513920336962,0.0005367736448533833
1782812037618932200,0.96493212890625,-0.0013266479363664985,0.00023095053620636463,0.00045821041567251086
1782812037629003300,0.975003173828125,0.0006806803867220879,-0.0015039979480206966,0.001833844231441617
1782812037639074300,0.98507421875,-0.0006666127592325211,-0.0016877560410648584,-0.0007150672608986497
1782812037649145300,0.995145263671875,-0.0009933909168466926,0.00017802603542804718,-0.0008519221446476877
1782812037659216400,1.00521630859375,-0.0006570337573066354,0.0014949592296034098,-0.001111846650019288
1782812037669287400,1.015287353515625,-0.0009515841957181692,-0.0007171621546149254,-0.0001535713381599635
1782812037679358200,1.025358154296875,0.0004452439025044441,0.0011446536518633366,-0.0010808840161189437
1782812037689429200,1.03542919921875,-0.0007455277955159545,0.0005583497695624828,0.00021868542535230517
1782812037699501300,1.045501220703125,-0.0007425983203575015,-0.00352054787799716,0.001092734863050282
1782812037709572400,1.055572265625,0.0012055380502715707,-0.0010541996452957392,0.001271350891329348
1782812037719643400,1.065643310546875,0.00012908829376101494,0.002177013549953699,0.0018905356992036104
1782812037729714400,1.07571435546875,0.000541569315828383,-0.0016550910659134388,0.0006012284429743886
1782812037739785500,1.085785400390625,-0.00018707162234932184,0.00022803002502769232,0.00022013008128851652
1782812037749856300,1.095856201171875,-0.0006602696375921369,0.0010974507313221693,-0.0003886331105604768
1782812037759927300,1.10592724609375,0.00044520851224660873,0.0005507038440555334,0.001746689435094595
1782812037769998300,1.115998291015625,0.000038312049582600594,-0.0011940342374145985,-0.0022350549697875977
1782812037780069400,1.1260693359375,-0.00112415780313313,0.001122117042541504,-0.001001478754915297
1782812037790140400,1.136140380859375,0.00020838400814682245,-0.001440186519175768,0.0006534992717206478
1782812037800211500,1.14621142578125,0.0014619339490309358,0.000010969815775752068,-0.002869863063097
1782812037810282200,1.1562822265625,0.0001249414635822177,-0.001412802841514349,-0.0015036556869745255
1782812037820353300,1.166353271484375,0.0010312151862308383,0.0016998999053612351,-0.0008799433708190918
1782812037830424300,1.17642431640625,0.0017351589631289244,0.001139895524829626,0.0008930054609663785
1782812037840495400,1.186495361328125,-0.0002499612746760249,-0.0004406904336065054,0.00010151404421776533
1782812037850566400,1.19656640625,-0.0017583429580554366,0.0013806663919240236,-0.0008150874637067318
1782812037860637400,1.206637451171875,-0.0007673806976526976,0.0021119704470038414,-0.0006893862737342715
1782812037870708200,1.216708251953125,0.0007966901757754385,-0.0014919561799615622,-0.001887565478682518
1782812037880779300,1.226779296875,0.00043876131530851126,0.0016785369953140616,0.00020461383974179626
1782812037890850300,1.236850341796875,0.00013724120799452066,0.00181474513374269,0.00040005845949053764
1782812037900921300,1.24692138671875,-0.0015623882645741105,-0.0010398970916867256,-0.00020527801825664937
1782812037910992400,1.256992431640625,-0.00230730464681983,-0.0004179363604635,-0.0006924811168573797
1782812037921063400,1.2670634765625,-0.00037305080331861973,0.0022793132811784744,-0.0006014009704813361
1782812037931134200,1.27713427734375,0.0008474988280795515,-0.0004592540208250284,-0.001977011561393738
1782812037941205200,1.287205322265625,0.0007055523456074297,-0.000009978888556361198,0.002045693341642618
1782812037951276300,1.2972763671875,0.0004004918737336993,0.0006175281014293432,-0.002195235574617982
1782812037961347300,1.307347412109375,-0.0016219126991927624,0.0006574754370376468,0.0018820641562342644
1782812037971419400,1.31741943359375,-0.002356985118240118,-0.0003281054086983204,0.00020564068108797073
1782812037981490400,1.327490478515625,0.0017682514153420925,0.0012745850253850222,-0.0005490991752594709
1782812037991561500,1.3375615234375,0.0025833318941295147,-0.00036187772639095783,0.001409847754985094
1782812038001632300,1.34763232421875,-0.001313938177190721,0.000249850214459002,-0.0013497195905074477
1782812038011703300,1.357703369140625,0.0012261548545211554,0.00033462338615208864,0.0005789760034531355
1782812038021774300,1.3677744140625,-0.00211691134609282,0.0014270520769059658,0.000708671985194087
1782812038031845400,1.377845458984375,-0.0011672868859022856,0.0002484099240973592,0.0019010507967323065
1782812038041916400,1.38791650390625,0.0011677728034555912,0.0006761136464774609,0.0006927745998837054
1782812038051987500,1.397987548828125,-0.002576187951490283,0.0014912007609382272,-0.0018355026841163635
1782812038062058200,1.408058349609375,-0.0007772226817905903,0.0002754677552729845,-0.00009672477608546615
1782812038072129300,1.41812939453125,-0.00005925504956394434,0.00028892094269394875,-0.001651868224143982
1782812038082200300,1.428200439453125,-0.00019507633987814188,-0.0013137694913893938,0.000665880914311856
1782812038092271400,1.438271240234375,0.00034843431785702705,0.0007094731554389,0.001970927231013775
1782812038102342400,1.44834228515625,0.001696260180324316,-0.0019475625595077872,0.000676897179801017
1782812038112413400,1.458413330078125,-0.0025053280405700207,0.00101882079616189,-0.0022175488993525505
1782812038122484500,1.468484375,-0.0006296634674072266,-0.0008589740609750152,-0.0012295159976929426
1782812038132555300,1.47855517578125,0.00017718644812703133,-0.0001473494339734316,0.0005812576273456216
1782812038142626300,1.488626220703125,0.000670137582346797,-0.0009958327282220125,-0.0021759129595011473
1782812038152697300,1.498697265625,-0.00011267163790762424,0.0008177398703992367,0.0006283865077421069
1782812038162768400,1.508768310546875,0.00008094008080661297,0.00195837183855474,-0.0011551324278116226
1782812038172839400,1.51883935546875,-0.0018031687941402197,0.0020587544422596693,-0.0033154082484543324
1782812038182910500,1.528910400390625,0.0017548144096508622,0.00037110934499651194,-0.00002294225851073861
1782812038192981200,1.538981201171875,-0.00008462904952466488,0.001153792254626751,-0.0011566715547814965
1782812038203052300,1.54905224609375,-0.0005291106645017862,0.0003156954189762473,-0.0019071503775194287
1782812038213123300,1.559123291015625,0.0016792926471680403,-0.0007178509840741754,-0.00042237096931785345
1782812038223194400,1.5691943359375,-0.00019717065151780844,-0.0015375720104202628,-0.0002306233800482005
1782812038233265400,1.579265380859375,-0.00007384689524769783,-0.0005654954584315419,-0.00042664678767323494
1782812038243337500,1.58933740234375,0.00043694738997146487,0.001293657231144607,-0.0009233263554051518
1782812038253408500,1.599408447265625,0.0018644053488969803,-0.000028281821869313717,0.0005392958992160857
1782812038263479300,1.609479248046875,-0.00012124748900532722,0.00077972118742764,-0.0027760732918977737
1782812038273550300,1.61955029296875,0.0000021401792764663696,0.0001352718099951744,-0.0016362227033823729
1782812038283621400,1.629621337890625,-0.0002748285187408328,-0.0010671454947441816,0.00012838782276958227
1782812038293692400,1.6396923828125,-0.00025761674623936415,0.0027588442899286747,-0.0022674608044326305
1782812038303763500,1.649763427734375,-0.0022067842073738575,-0.0009983432246372104,0.0002843800466507673
1782812038313834500,1.65983447265625,-0.00005838426295667887,-0.0004747163038700819,-0.0021371596958488226
1782812038323905300,1.6699052734375,-0.0012051413068547845,0.0009394222870469093,-0.0014756305608898401
1782812038333976300,1.679976318359375,0.0012777422089129686,-0.0023020259104669094,-0.0008482520352117717
1782812038344047400,1.69004736328125,-0.0011388100683689117,-0.0002822845708578825,-0.00032946825376711786
1782812038354118400,1.700118408203125,-0.0006443301681429148,-0.000950830290094018,-0.0013727078912779689
1782812038364189400,1.710189453125,-0.0018603296484798193,-0.00018676952458918095,-0.001718119834549725
1782812038374260500,1.720260498046875,-0.0003329574828967452,0.0019268697360530496,-0.0010806272039189935
1782812038384331300,1.730331298828125,-0.00029274378903210163,-0.0009064673213288188,-0.001299272757023573
1782812038394402300,1.74040234375,0.0008123187581077218,-0.00108377228025347,0.0004704291932284832
1782812038404473300,1.750473388671875,0.0006384143489412963,-0.0018033582018688321,0.00039399636443704367
1782812038414544400,1.76054443359375,0.0014740918995812535,0.0009159843320958316,0.00015939504373818636
1782812038424615400,1.770615478515625,0.0021220389753580093,0.000020629609934985638,-0.001296555157750845
1782812038434686500,1.7806865234375,-0.0006779335672035813,-0.0007608295418322086,-0.0021173860877752304
1782812038444757200,1.79075732421875,0.001294936053454876,0.00046289293095469475,-0.0015149791724979877
1782812038454828300,1.800828369140625,0.00026161479763686657,-0.002327250549569726,-0.00010412471601739526
1782812038464899300,1.8108994140625,-0.001034812070429325,-0.0017496109940111637,0.0002689841785468161
1782812038474970400,1.820970458984375,-0.0028420714661478996,0.00035374879371374846,-0.0006387425819411874
1782812038485041400,1.83104150390625,-0.0009331176988780499,-0.000031078001484274864,0.0002129363128915429
1782812038495112400,1.841112548828125,-0.00015174841973930597,-0.0013240838889032602,-0.000284755602478981
1782812038505183200,1.851183349609375,-0.0004385708598420024,0.001246665371581912,-0.0015596108278259635
1782812038515254300,1.861254150390625,0.000570789270568639,-0.0014279909664765,-0.0007539944490417838
1782812038525326300,1.871326416015625,0.0007628031307831407,-0.0004540729569271207,0.0012977048754692078
1782812038535397400,1.8813974609375,0.0016399475280195475,0.0005289667751640081,-0.000372137816157192
1782812038545468400,1.891468505859375,0.0006740190437994897,-0.0008918296080082655,-0.0003292609180789441
1782812038555539500,1.90153955078125,0.0009433254599571228,-0.001517675118520856,0.001620795694179833
1782812038565610500,1.911610595703125,0.000027997069992125034,-0.0014974349178373814,-0.0019675474613904953
1782812038575681300,1.921681396484375,0.0005599554278887808,0.0016467681853100657,-0.0003150401753373444
1782812038585752300,1.93175244140625,-0.0010675023077055812,-0.000020104344002902508,0.0009491623495705426
1782812038595823400,1.9418232421875,0.0004891229327768087,-0.0004503793315961957,0.0005475705838762224
1782812038605894400,1.951894287109375,-0.0014568489277735353,0.00015442445874214172,-0.0010500596836209297
1782812038615965400,1.96196533203125,0.0015921981539577246,0.0003023219760507345,0.00018401804845780134
1782812038626036500,1.972036376953125,0.0003892483073286712,0.0000666322885081172,-0.0007068093400448561
1782812038636107500,1.982107421875,-0.0008792276494204998,0.0023365491069853306,-0.0010902093490585685
1782812038646178300,1.99217822265625,0.002464104676619172,0.002364778658375144,0.0009029004140757024
1782812038656249300,2.002249267578125,-0.0008024543058127165,0.0007253889925777912,-0.0015197617467492819
1782812038666320400,2.0123203125,0.0005919767427258193,-0.0011063331039622426,0.0001758728758431971
1782812038676391400,2.022391357421875,-0.0005608341889455914,0.000882173771969974,0.0028680250979959965
1782812038686462500,2.03246240234375,0.001906318124383688,0.0005471480544656515,0.0006576013984158635
1782812038696533500,2.042533447265625,-0.0012893716339021921,-0.0006946417270228267,-0.0005291696288622916
1782812038706604300,2.052604248046875,0.0011016144417226315,-0.0009620230412110686,0.0007150592864491045
1782812038716675300,2.06267529296875,0.00010708463378250599,0.0009942450560629368,-0.002055815188214183
1782812038726746400,2.072746337890625,0.0006266673444770277,-0.0011424090480431914,0.0006262542447075248
1782812038736817400,2.0828173828125,-0.00007047574035823345,0.001285345060750842,0.0015609629917889833
1782812038746888400,2.092888427734375,-0.000804443028755486,0.0024398253299295902,0.00190211390145123
1782812038756959500,2.10295947265625,-0.0026043527759611607,-0.0021381299011409283,-0.0016495073214173317
1782812038767030300,2.1130302734375,0.0011565635213628411,-0.0009042875608429313,0.001175840268842876
1782812038777101300,2.123101318359375,0.0000012620585039258003,-0.0018273491878062487,-0.00041295221308246255
1782812038787172400,2.13317236328125,0.0014444290427491069,0.001329029444605112,0.0008517829701304436
1782812038797243400,2.143243408203125,0.001389994751662016,-0.0017587587935850024,-0.0015066848136484623
1782812038807314400,2.153314453125,0.00009782903362065554,-0.00012091465760022402,-0.001461411127820611
1782812038817385500,2.163385498046875,0.002372667659074068,0.000028743059374392033,-0.0005398148205131292
1782812038827456300,2.173456298828125,0.0007398836314678192,0.0009848178597167134,-0.0011928218882530928
1782812038837528300,2.1835283203125,-0.0018596367444843054,-0.0017343300860375166,-0.0008696005679666996
1782812038847599400,2.193599365234375,0.000006972812116146088,-0.000590768875554204,-0.0008264573407359421
1782812038857670400,2.20367041015625,0.0001730980584397912,0.0013249313924461603,-0.001002918928861618
1782812038867741400,2.213741455078125,-0.0000681843375787139,-0.0006186434766277671,-0.0013651088811457157
1782812038877812500,2.2238125,0.00013115862384438515,0.0005747494287788868,0.003125987248495221
1782812038887883500,2.233883544921875,0.0009085353813134134,0.001765182358212769,0.0014521905686706305
1782812038897954300,2.243954345703125,-0.003432719735428691,-0.0016744511667639017,-0.0006160097545944154
1782812038908025300,2.254025390625,0.0006184806698001921,-0.00020891358144581318,0.0030578209552913904
1782812038918096400,2.264096435546875,0.0025025149807333946,-0.0017480169190093875,-0.000851611839607358
1782812038928167400,2.27416748046875,0.000409536762163043,-0.0010705088498070836,0.001052282052114606
1782812038938238500,2.284238525390625,0.0009651599102653563,0.001977092120796442,0.00022699817782267928
1782812038948309500,2.2943095703125,-0.0007981191156432033,0.0012593702413141727,-0.00006168850813992321
1782812038958380300,2.30438037109375,-0.00022689171601086855,-0.0002559390850365162,0.001088651712052524
1782812038968451300,2.314451416015625,0.000429311185143888,-0.00023969379253685474,0.00022472234559245408
1782812038978522400,2.3245224609375,-0.0009389842161908746,0.0020999868866056204,-0.0007725678151473403
1782812038988593400,2.334593505859375,0.0011406783014535904,-0.0008974007796496153,0.0008546236203983426
1782812038998664400,2.34466455078125,0.00037536356830969453,0.0016714741941541433,0.0007078282069414854
1782812039008735500,2.354735595703125,-0.000026773777790367603,0.0019135555485263467,0.0015821440611034632
1782812039018806300,2.36480615234375,-0.0012757480144500732,-0.0004607606679201126,0.00035217934055253863
1782812039028877300,2.374877197265625,-0.0006970430258661509,-0.000032257987186312675,0.0019910887349396944
1782812039038948400,2.3849482421875,0.0022744701709598303,0.00017117662355303764,0.000554268597625196
1782812039049019400,2.395019287109375,0.0011554098455235362,-0.0014248557854443789,0.0005758401821367443
1782812039059090400,2.40509033203125,0.0006249178550206125,0.0019471124978736043,0.00013125012628734112
1782812039069161500,2.415161376953125,-0.00014899671077728271,-0.00038927874993532896,0.002188541926443577
1782812039079232300,2.425232177734375,0.0026458147913217545,-0.0022148031275719404,0.000702589051797986
1782812039089303300,2.43530322265625,-0.0022565319668501616,-0.0005921393167227507,0.0012610539561137557
1782812039099374300,2.445374267578125,0.0015330545138567686,-0.0005854209885001183,0.0018696937477216125
1782812039109445400,2.4554453125,0.0005807080306112766,-0.0015518821310251951,-0.00005017904913984239
1782812039119516400,2.465516357421875,-0.0013488904805853963,0.0010221474803984165,0.0011347751133143902
1782812039129587500,2.47558740234375,0.0004870927077718079,-0.001244202721863985,-0.0009978841990232468
1782812039139658200,2.485658203125,-0.0017606059554964304,-0.00026280933525413275,0.0002726223901845515
1782812039149730600,2.49573046875,-0.0009254387114197016,-0.0005339191993698478,0.0000012462842278182507
1782812039159801300,2.50580126953125,0.00012809591135010123,0.0009414193918928504,-0.0018711350858211517
1782812039169872400,2.515872314453125,-0.0014112112112343311,-0.0002111966023221612,0.000580038467887789
1782812039179943400,2.525943359375,0.0012691838201135397,0.0011506411246955395,0.00036022148560732603
1782812039190014500,2.536014404296875,0.0004766270867548883,-0.0001740151783451438,-0.0015330197056755424
1782812039200085500,2.54608544921875,0.0012498646974563599,0.00031925179064273834,-0.0018432610668241978
1782812039210156500,2.556156494140625,0.0013737017288804054,0.000612732139416039,0.0007647725287824869
1782812039220227300,2.566227294921875,0.000156343390699476,-0.00032240827567875385,0.0005538520053960383
1782812039230298400,2.57629833984375,-0.0004418025491759181,0.000245377654209733,0.000775959633756429
1782812039240369400,2.586369384765625,-0.0016258740797638893,-0.00029761402402073145,0.0007316149421967566
1782812039250440400,2.5964404296875,-0.0007880434859544039,-0.001248362590558827,0.0002921933773905039
1782812039260511500,2.606511474609375,-0.00014784384984523058,0.001025542849674821,-0.00016075451276265085
1782812039270582500,2.61658251953125,0.002209852449595928,0.0006353898206725717,-0.0010774144902825356
1782812039280653300,2.6266533203125,-0.001791398273780942,0.0008451271569356322,0.001692075515165925
1782812039290724400,2.636724365234375,0.00119560316670686,-0.00039990071672946215,0.0019589243456721306
1782812039300795400,2.64679541015625,0.001005814061500132,-0.0007776200072839856,-0.0007246817694976926
1782812039310866400,2.656866455078125,0.0006239167414605618,0.001167020294815302,0.0003538985038176179
1782812039320937500,2.6669375,0.0001232308568432927,-0.00011642184108495712,-0.0009500413434579968
1782812039331008500,2.677008544921875,-0.0010616094805300236,0.0009496414568275213,-0.003818265628069639
1782812039341079300,2.687079345703125,0.00010329496581107378,-0.0012281325180083513,-0.0006744846468791366
1782812039351150300,2.697150390625,-0.0008021797984838486,-0.0007367793004959822,-0.0006217540940269828
1782812039361221400,2.707221435546875,-0.0012773716589435935,-0.0011280947364866734,-0.0017444347031414509
1782812039371292400,2.71729248046875,0.0017296035075560212,0.0012714134063571692,0.0016545578837394714
1782812039381363500,2.727363525390625,0.0004061810323037207,0.000011209049262106419,-0.0008738203905522823
1782812039391434500,2.7374345703125,0.0003262861864641309,0.0010296017862856388,0.00031101994682103395
1782812039401505500,2.747505615234375,-0.0008647976210340858,0.000290368334390223,0.0013029109686613083
1782812039411576300,2.757576416015625,-0.00028502754867076874,0.0025346141774207354,0.00029703506152145565
1782812039421647400,2.7676474609375,-0.0010957635240629315,-0.00006394647061824799,-0.00201210705563426
1782812039431718400,2.777718505859375,-0.002374347299337387,-0.0009353328496217728,-0.0015662939986214042
1782812039441789400,2.78778955078125,0.00016883522039279342,0.000419219839386642,0.000668251421302557
1782812039451860500,2.797860595703125,-0.0013691402273252606,-0.00027293572202324867,-0.0002305654634255916
1782812039461931500,2.807931640625,0.0016630864702165127,0.0003684079274535179,0.0008193121757358313
1782812039472002300,2.818002197265625,-0.00008794199675321579,0.00005069281905889511,0.00007948596612550318
1782812039482074400,2.828074462890625,-0.00017785141244530678,-0.0002699595643207431,-0.00035160320112481713
1782812039492145400,2.8381455078125,0.0015934170223772526,-0.0024055480025708675,0.0029248837381601334
1782812039502216400,2.848216552734375,-0.0014373034937307239,-0.00012243457604199648,0.0019479074981063604
1782812039512287500,2.85828759765625,-0.0022224034182727337,-0.00004759978037327528,-0.00006677373312413692
1782812039522358500,2.868358642578125,0.0006549755344167352,0.0012934580445289612,-0.00027392158517614007
1782812039532429600,2.8784296875,-0.002240146975964308,-0.001592875923961401,-0.0009429076453670859
1782812039542500400,2.888500244140625,-0.0015833006473258138,-0.0004274314269423485,-0.0018231249414384365
1782812039552571400,2.8985712890625,-0.001503672101534903,-0.000431958818808198,-0.0008787680417299271
1782812039562642400,2.908642333984375,0.00026065658312290907,-0.0013751396909356117,0.0003075806889683008
1782812039572713500,2.91871337890625,-0.0020464397966861725,0.0011572601506486535,0.0019283805740997195
1782812039582784500,2.928784423828125,-0.0008157086558640003,0.0015408206963911653,-0.0017732834676280618
1782812039592855600,2.93885546875,-0.0007845496293157339,0.00010298006236553192,0.0011332904687151313
1782812039602926300,2.94892626953125,0.0004082111408933997,0.0008804738754406571,-0.0014293668791651726
1782812039612997400,2.958997314453125,0.0014753397554159164,-0.00014031585305929184,-0.0009159095352515578
1782812039623068400,2.969068359375,-0.00015618337783962488,-0.0006913209799677134,-0.001925419201143086
1782812039633139500,2.979139404296875,0.002155174035578966,-0.0002838573418557644,0.0022512162104249
1782812039643210500,2.98921044921875,-0.00006374681834131479,0.001418000552803278,0.0016023552743718028
1782812039653281500,2.999281494140625,0.0007157604559324682,-0.00023129512555897236,-0.0009540129685774446
1782812039663352300,3.009352294921875,-0.0004622418200597167,-0.00019683479331433773,0.0005603624740615487
1782812039673423400,3.01942333984375,0.0011636180570349097,-0.00019576959311962128,-0.0007917244220152497
1782812039683494400,3.029494384765625,-0.0010735492687672377,0.0012121349573135376,0.0013116318732500076
1782812039693565400,3.0395654296875,0.0014215662376955152,-0.0014150734059512615,-0.00025936675956472754
1782812039703636500,3.049636474609375,0.002333673182874918,-0.002515867818146944,-0.00010457716416567564
1782812039713707500,3.05970751953125,0.001096102292649448,0.0014889937592670321,0.0014381920918822289
1782812039723778600,3.069778564453125,0.0006202200893312693,0.0013103282544761896,-0.0004340997547842562
1782812039733849300,3.079849365234375,0.0015826865565031767,-0.0002896988298743963,-0.0003992123529314995
1782812039743920400,3.08992041015625,-0.00003942043986171484,-0.0009854633826762438,0.0008084402652457356
1782812039753991400,3.099991455078125,-0.0008423634571954608,-0.000896513694897294,-0.0005300645134411752
1782812039764062500,3.1100625,0.000514803163241595,0.00036569242365658283,0.0010852584382519126
1782812039774133500,3.120133544921875,-0.0001720261061564088,0.0034831888042390347,-0.00029026425909250975
1782812039784204500,3.13020458984375,-0.000028621056117117405,-0.00044023687951266766,0.0009717207867652178
1782812039794275300,3.140275390625,-0.0011663235491141677,0.00018054584506899118,-0.0017444371478632092
1782812039804346400,3.150346435546875,-0.0019325409084558487,-0.00024793343618512154,0.0010555156040936708
1782812039814417400,3.16041748046875,-0.000603889930061996,0.0018410501070320606,0.001013703877106309
1782812039824488400,3.170488525390625,-0.001072422368451953,-0.00010633189231157303,-0.0025607338175177574
1782812039834559500,3.1805595703125,-0.0009616347961127758,-0.0010786519851535559,-0.000697320094332099
1782812039844631600,3.190631591796875,-0.002786388387903571,0.002505010925233364,-0.000433585635619238
1782812039854702600,3.20070263671875,0.00033829850144684315,0.0013646455481648445,0.0010189025197178125
1782812039864773400,3.2107734375,-0.000024690874852240086,-0.00018707569688558578,-0.00014495532377623022
1782812039874844400,3.220844482421875,0.0018464461900293827,-0.0019237231463193893,0.0003139073378406465
1782812039884915500,3.23091552734375,-0.000033287680707871914,-0.000970188993960619,0.0005575992399826646
1782812039894986500,3.240986572265625,-0.0007922885706648231,0.0011217240244150162,-0.001883720513433218
1782812039905057500,3.2510576171875,0.00024949765065684915,0.0005759290652349591,0.00027295772451907396
1782812039915128600,3.261128662109375,0.00045535998651757836,-0.001572176581248641,-0.0010871186386793852
1782812039925199400,3.271199462890625,-0.0005841649835929275,0.002398840384557843,0.0012651269789785147
1782812039935270400,3.2812705078125,0.0002075927914120257,-0.0007607338484376669,-0.0004864339716732502
1782812039945341400,3.291341552734375,-0.001077194232493639,-0.001381442416459322,0.00050306913908571
1782812039955412500,3.30141259765625,-0.00045215035788714886,-0.0018759914673864841,0.001851161359809339
1782812039965483500,3.3114833984375,0.0007109647849574685,0.001295784953981638,-0.00042796999332495034
1782812039975554600,3.321554443359375,-0.0005817335331812501,-0.00188109977170825,-0.0001805623178370297
1782812039985625300,3.331625244140625,0.00041657331166788936,0.0009002294391393661,-0.00021321035455912352
1782812039995696400,3.3416962890625,0.0025654779747128487,-0.0023027542047202587,-0.0011716820299625397
1782812040005767400,3.351767333984375,0.00037202402018010616,0.0009505670750513673,-0.0003748428716789931
1782812040015838500,3.36183837890625,-0.00040375476237386465,0.00046560540795326233,-0.00043689453741535544
1782812040025909500,3.371909423828125,0.0007383491611108184,0.0012845240999013186,0.0021102940663695335
1782812040035980500,3.38198046875,0.00043687934521585703,-0.00030245352536439896,0.0012538215378299356
1782812040046051300,3.39205126953125,0.00017742218915373087,-0.0006524096243083477,-0.00248165475204587
1782812040056122400,3.402122314453125,-0.0011594846146181226,0.002089580986648798,0.0004739214200526476
1782812040066193400,3.412193359375,0.001523083308711648,-0.00011807470582425594,-0.0005075323861092329
1782812040076264400,3.422264404296875,-0.0002934589283540845,-0.0002781306393444538,-0.00045853020856156945
1782812040086335500,3.43233544921875,-0.0011925792787224054,0.0013938115444034338,-0.0014096717350184917
1782812040096406500,3.442406494140625,0.0020865709520876408,0.00016369752120226622,-0.001597957219928503
1782812040106477300,3.452477294921875,-0.0011390864383429289,0.0009784414432942867,-0.0013585563283413649
1782812040116548400,3.46254833984375,0.00009262561798095703,-0.0009190607815980911,-0.002843535039573908
1782812040126619400,3.472619384765625,0.00037500576581805944,0.0019194424385204911,-0.0004176167421974242
1782812040136690400,3.4826904296875,-0.0014753586146980524,0.0024352967739105225,-0.0006927212816663086
1782812040146761500,3.492761474609375,0.00027961115119978786,-0.002366370987147093,0.0018826178275048733
1782812040156832500,3.50283251953125,0.0014535326045006514,0.00276554049924016,0.00020988623145967722
1782812040166903300,3.5129033203125,0.001211073831655085,0.0024227225221693516,-0.0017314376309514046
1782812040176974300,3.522974365234375,0.00007869768887758255,-0.000058810925111174583,0.0014047008007764816
1782812040187045400,3.53304541015625,0.00025000335881486535,-0.002094065072014928,0.0024603656493127346
1782812040197116400,3.543116455078125,-0.002637396100908518,-0.0001736595295369625,0.0003056019777432084
1782812040207187500,3.5531875,-0.00012051872909069061,-0.001384316012263298,0.000018615566659718752
1782812040217258500,3.563258544921875,-0.0009956334251910448,0.0010700533166527748,-0.0015087071806192398
1782812040227329300,3.573329345703125,-0.00046729505993425846,0.0003840997815132141,0.0019470590632408857
1782812040237400300,3.583400390625,-0.0005530489142984152,-0.000645744614303112,0.0003955013817176223
1782812040247472400,3.593472412109375,-0.0026320298202335835,-0.00028520706109702587,-0.0011222828179597855
1782812040257543400,3.60354345703125,-0.0013768819626420736,-0.00046789972111582756,0.0007997204666025937
1782812040267614500,3.613614501953125,-0.0018820288823917508,-0.001146521419286728,0.0016710131894797087
1782812040277685500,3.623685546875,0.0000937703880481422,-0.000694316579028964,0.0004867054522037506
1782812040287756500,3.633756591796875,0.0010296149412170053,0.0001856061862781644,-0.001896822126582265
1782812040297827600,3.64382763671875,-0.00033738568890839815,-0.0023787517566233873,0.0016092293662950397
1782812040307898400,3.6538984375,0.00035233108792454004,-0.0006792969070374966,0.000999761512503028
1782812040317969400,3.663969482421875,0.0009014749084599316,-0.0013842356856912374,0.0009739289525896311
1782812040328040400,3.67404052734375,-0.0013052026042714715,0.00010440172627568245,0.0005658160662278533
1782812040338111500,3.684111572265625,-0.0007717714179307222,-0.0024205411318689585,-0.0009407341713085771
1782812040348182500,3.6941826171875,0.001138464198447764,0.0020531800109893084,-0.001983141992241144
1782812040358253600,3.704253662109375,-0.0006269452860578895,0.0013298654230311513,0.0009583192877471447
1782812040368324400,3.714324462890625,0.00021885830210521817,-0.0006047135684639215,-0.0010593647602945566
1782812040378395400,3.7243955078125,-0.001239222357980907,-0.0004092375747859478,-0.0005730714765377343
1782812040388466400,3.734466552734375,0.0017169343773275614,0.002070011803880334,-0.000349305453710258
1782812040398537700,3.744537841796875,-0.0020365247037261724,0.00033576146233826876,0.0002379215438850224
1782812040408608800,3.75460888671875,0.0008386792032979429,0.001329844817519188,0.0012997278245165944
1782812040418679800,3.7646796875,0.000836016028188169,0.0011743161594495177,0.00044005943345837295
1782812040428750800,3.774750732421875,-0.0003020237199962139,-0.0006029647774994373,-0.0004394172865431756
1782812040438822000,3.78482177734375,-0.0006945737404748797,0.00010836555156856775,0.0010002875933423638
1782812040448893000,3.794892822265625,0.00034701958065852523,-0.0015847638715058565,0.00015544454799965024
1782812040458963700,3.804963623046875,0.0010527572594583035,-0.0007661082781851292,0.0016622610855847597
1782812040469034800,3.81503466796875,0.0009103813208639622,-0.000029072631150484085,-0.00086009013466537
1782812040479105800,3.825105712890625,0.00037881440948694944,-0.0003332055639475584,-0.0007535637123510242
1782812040489176800,3.8351767578125,-0.0005196387646719813,-0.00008449237793684006,0.000763912801630795
1782812040499247900,3.845247802734375,-0.00024932785890996456,-0.0006637300830334425,0.0016901602502912283
1782812040509319000,3.85531884765625,-0.00010427494999021292,-0.001075199106708169,-0.0010150396265089512
1782812040519389700,3.8653896484375,0.000924770487472415,-0.0007356461137533188,0.0002635439741425216
1782812040529460700,3.875460693359375,-0.0024898338597267866,0.0005828205030411482,-0.00046456066775135696
1782812040539531800,3.88553173828125,-0.00008633092511445284,-0.0005397018976509571,-0.0003508437075652182
1782812040549602800,3.895602783203125,-0.0006119593745097518,0.0010504329111427069,0.0036004118155688047
1782812040559673900,3.905673828125,-0.00046788237523287535,0.001262420555576682,-0.000638008932583034
1782812040569745000,3.915744873046875,0.0014126206515356898,0.001014992012642324,0.000911387091036886
1782812040579815700,3.925815673828125,0.0005311142886057496,0.00043548818212002516,-0.002559510525316
1782812040589886700,3.93588671875,-0.0011153992963954806,-0.0008734238799661398,0.0021298392675817013
1782812040599957800,3.945957763671875,-0.0023819985799491405,0.0004917125916108489,-0.0018965941853821278
1782812040610028800,3.95602880859375,0.00008320732740685344,-0.0003613377921283245,0.004211442545056343
1782812040620099800,3.966099853515625,-0.0005982955917716026,-0.0014668158255517483,-0.0006909042713232338
1782812040630171000,3.9761708984375,-0.0006136338924989104,-0.0015383551362901926,0.0015315795317292213
1782812040640242000,3.986241943359375,-0.001388613716699183,0.0005072189960628748,-0.0006913610268384218
1782812040650312700,3.996312744140625,-0.0005513587966561317,0.0004229404730722308,-0.0007831054972484708
1782812040660383700,4.0063837890625,0.0009613167494535446,-0.0009592401329427958,0.0021330558229237795
1782812040670454800,4.016454833984375,0.002378153381869197,-0.0014417616184800863,0.0006408810149878263
1782812040680525800,4.02652587890625,0.0011983730364590883,-0.0005986050236970186,-0.002132801339030266
1782812040690598000,4.036597900390625,-0.0005444277776405215,0.0007165608694776893,0.00036666402593255043
1782812040700669000,4.0466689453125,0.0003493290860205889,-0.0006158186588436365,-0.0006442719604820013
1782812040710740000,4.056739990234375,0.00038137304363772273,-0.0015564044006168842,-0.0008373941527679563
1782812040720810800,4.066810791015625,-0.0012327688746154308,0.0012662799563258886,-0.0019210344180464745
1782812040730881800,4.0768818359375,-0.0002739125629886985,-0.0036799460649490356,-0.0013673104112967849
1782812040740952800,4.086952880859375,0.001286167185753584,-0.0008018678054213524,-0.00008419941877946258
1782812040751023900,4.09702392578125,0.00014708680100739002,0.0021147923544049263,-0.001956087537109852
1782812040761095000,4.107094970703125,0.00018357211956754327,0.0032639463897794485,-0.0019520927453413606
1782812040771166000,4.117166015625,0.0007049779524095356,-0.00012344098649919033,-0.0018148439703509212
1782812040781236700,4.12723681640625,0.0001390562392771244,-0.0002683168277144432,-0.00021481679868884385
1782812040791307800,4.137307861328125,0.0007325400947593153,0.0003934592241421342,-0.00020955249783582985
1782812040801378800,4.14737890625,-0.002564186928793788,0.002430244814604521,0.00023705963394604623
1782812040811449900,4.157449951171875,0.0006643554661422968,-0.0018753870390355587,-0.0007255546515807509
1782812040821521000,4.16752099609375,-0.0005175553960725665,0.0008024213602766395,-0.0002792088489513844
1782812040831592000,4.177592041015625,0.00003814534284174442,-0.0017672027461230755,-0.001744541572406888
1782812040841662700,4.187662841796875,0.0006160513148643076,-0.0020321873016655445,0.0024342243559658527
1782812040851733800,4.197733642578125,-0.0022158639039844275,0.001998949097469449,-0.0004914894816465676
1782812040861804800,4.2078046875,0.002679558703675866,-0.0021097760181874037,-0.000095477415015921
1782812040871875800,4.217875732421875,-0.0009824230801314116,0.002279287902638316,0.0005844595143571496
1782812040881947000,4.22794677734375,0.002042661653831601,-0.00038360687904059887,-0.001791080110706389
1782812040892018000,4.238017822265625,0.0003848422784358263,-0.00004572654142975807,0.0009029016364365816
1782812040902088700,4.248088623046875,0.00039789173752069473,0.0006283195689320564,0.00007039745105430484
1782812040912159700,4.25815966796875,-0.000780466478317976,0.0008773152949288487,-0.0008626022608950734
1782812040922230800,4.268230712890625,-0.00029390701092779636,0.00003069639205932617,0.0009827021276578307
1782812040932301800,4.2783017578125,0.001341101247817278,0.0006409557536244392,0.002104272833094001
1782812040942372900,4.288372802734375,0.0022258032113313675,-0.0007390943355858326,0.0008310157572850585
1782812040952444000,4.29844384765625,-0.00024864624720066786,0.0013076276518404484,0.0014637247659265995
1782812040962514700,4.3085146484375,-0.00022813992109149694,0.00036060751881450415,-0.00004389073001220822
1782812040972585700,4.318585693359375,0.0004224590375088155,-0.0016063202638179064,-0.00030897551914677024
1782812040982656800,4.32865673828125,0.000017125974409282207,-0.000053697265684604645,-0.0008264277130365372
1782812040992727800,4.338727783203125,0.0011254840064793825,-0.0009656152687966824,0.0009493495454080403
1782812041002798800,4.348798828125,-0.00044684624299407005,-0.0022692326456308365,-0.001285575213842094
1782812041012870000,4.358869873046875,-0.0006536979926750064,0.0004494047025218606,0.000352317001670599
1782812041022940700,4.368940673828125,0.0006110371905378997,-0.0008861706592142582,-0.00313242943957448
1782812041033011700,4.37901171875,0.0012335520004853606,0.0002815580228343606,0.0013515535974875093
1782812041043082800,4.389082763671875,-0.00008471275214105844,-0.00004148343577980995,-0.0008796426700428128
1782812041053153800,4.39915380859375,0.0008939830004237592,0.0014874031767249107,0.0003819006960839033
1782812041063224800,4.409224853515625,-0.00007567391730844975,0.00031534594018012285,0.001645570620894432
1782812041073296000,4.4192958984375,0.0023970017209649086,0.00033589883241802454,0.0006199476774781942
1782812041083366700,4.42936669921875,-0.0007692305371165276,-0.00007662479765713215,-0.0010828775120899081
1782812041093437700,4.439437744140625,0.0008567064069211483,0.0009821492712944746,-0.001536952331662178
1782812041103508700,4.4495087890625,0.0012726921122521162,-0.0007478401530534029,0.0009341949480585754
1782812041113579800,4.459579833984375,-0.0006065120687708259,-0.00019516190513968468,0.0006733797490596771
1782812041123650800,4.46965087890625,-0.0029807202517986298,0.00029113120399415493,-0.0009426263277418911
1782812041133721900,4.479721923828125,-0.00247752177529037,0.0009866728214547038,-0.0017978041432797909
1782812041143792600,4.489792724609375,-0.0010551274754106998,0.0012332815676927567,0.0005167491617612541
1782812041153863700,4.49986376953125,0.002666713437065482,0.0007812607800588012,0.000049244757974520326
1782812041163934700,4.509934814453125,-0.0001365299103781581,0.0008446440333500504,0.00043886524508707225
1782812041174005800,4.520005859375,0.00009567697998136282,-0.0008099919650703669,0.0019475831650197506
1782812041184076800,4.530076904296875,0.000417653180193156,-0.0009633901063352823,0.00012385044828988612
1782812041194147800,4.54014794921875,0.0018774636555463076,0.001957312459126115,0.00043230451410636306
1782812041204220000,4.550219970703125,-0.0006573330610990524,-0.001552467467263341,-0.0004364186024758965
1782812041214291000,4.560291015625,0.0005279367906041443,0.0018651810241863132,-0.0008925353176891804
1782812041224361700,4.57036181640625,-0.0005772750591859221,-0.0014355408493429422,0.00048591679660603404
1782812041234432800,4.580432861328125,0.00044026406249031425,0.0001294309040531516,0.001064189593307674
1782812041244503800,4.59050390625,-0.000002885935828089714,-0.0013406339567154646,-0.0019449160899966955
1782812041254574800,4.600574951171875,-0.0002422562101855874,-0.00024397484958171844,-0.00015903744497336447
1782812041264646000,4.61064599609375,0.0023194383829832077,0.001471100957132876,-0.000032270996598526835
1782812041274717000,4.620717041015625,-0.001561682322062552,-0.00015729316510260105,-0.002469919854775071
1782812041284787700,4.63078759765625,0.000038877478800714016,-0.0006505106575787067,0.0009117621229961514
1782812041294858800,4.640858642578125,0.0022018668241798878,0.00018520583398640156,-0.0017384536331519485
1782812041304929800,4.6509296875,-0.000478338566608727,0.00036603445187211037,-0.0006263175746425986
1782812041315000800,4.661000732421875,0.001463466789573431,0.0009187371470034122,0.0009079520823433995
1782812041325072000,4.67107177734375,0.00032896024640649557,-0.0006924753542989492,0.00016679437248967588
1782812041335143000,4.681142822265625,-0.0003701548557728529,0.003288686042651534,-0.002676595002412796
1782812041345213700,4.691213623046875,-0.00039465585723519325,0.00032192457001656294,0.0008337176404893398
1782812041355284700,4.70128466796875,0.0013943873345851898,-0.0008824204560369253,0.0001523215905763209
1782812041365355800,4.711355712890625,-0.002348951995372772,-0.0003854746464639902,0.00010145519627258182
1782812041375426800,4.7214267578125,-0.0004651886411011219,0.0006736520444974303,-0.0015680869109928608
1782812041385497900,4.731497802734375,0.0015143390046432614,0.0004566044081002474,-0.0006937711150385439
1782812041395569000,4.74156884765625,0.0001463389489799738,0.002478469628840685,0.0004386710643302649
1782812041405639400,4.751639404296875,0.0004110571462661028,-0.0016387775540351868,0.0006586480885744095
1782812041415710500,4.76171044921875,0.0006627058028243482,0.0005015499191358685,-0.00007192519842647016
1782812041425781500,4.771781494140625,-0.00007019611075520515,0.0004339056322351098,-0.0006333195487968624
1782812041435852500,4.7818525390625,-0.001457349630072713,0.0006300513632595539,-0.0019102153601124883
1782812041445923600,4.791923583984375,0.00022177334176376462,0.00121967529412359,-0.001278779935091734
1782812041455994400,4.801994384765625,-0.0015362438280135393,0.0002927997848019004,0.0004987631691619754
1782812041466065400,4.8120654296875,-0.0007703186711296439,0.0006885455222800374,0.00010674586519598961
1782812041476136400,4.822136474609375,0.00004799780435860157,0.001978409942239523,-0.0017241892637684941
1782812041486207500,4.83220751953125,-0.0020031689200550318,-0.0037015799898654222,0.0009677339112386107
1782812041496278500,4.842278564453125,-0.0008397538913413882,-0.0003662502858787775,-0.0005656997673213482
1782812041506349600,4.852349609375,-0.0009595960145816207,0.00041432224679738283,0.0008878535591065884
1782812041516420400,4.86242041015625,-0.0011453218758106232,0.0010868242243304849,0.0006748068844899535
1782812041526491400,4.872491455078125,0.0003409882774576545,0.0005182393360882998,0.00006867136107757688
1782812041536562400,4.8825625,-0.0008896581130102277,0.002603652887046337,0.0005291787092573941
1782812041546633500,4.892633544921875,0.00045257515739649534,-0.0006398109253495932,0.00018802774138748646
1782812041556704500,4.90270458984375,-0.0004844574723392725,0.001481850165873766,-0.000479034410091117
1782812041566775600,4.912775634765625,0.0016055912710726261,-0.0002843583934009075,-0.0019986340776085854
1782812041576846300,4.922846435546875,0.0009136960143223405,-0.001554960384964943,0.00044857346802018583
1782812041586917400,4.93291748046875,0.0013507207622751594,-0.0014630812220275402,0.0015199631452560425
1782812041596988400,4.942988525390625,-0.0006273611215874553,-0.0017964146099984646,0.0005394889740273356
1782812041607059500,4.9530595703125,0.0013207411393523216,0.001491523813456297,0.0013919668272137642
1782812041617130500,4.963130615234375,-0.002130526816472411,0.0005015950882807374,0.0017897285288199782
1782812041627201500,4.973201416015625,0.00013049691915512085,-0.0020110972691327333,-0.0016079323831945658
1782812041637272300,4.983272216796875,-0.002432794775813818,0.0012972988188266754,-0.003063491778448224
1782812041647343400,4.99334326171875,0.0007901628850959241,0.00018036901019513607,0.0003315059875603765
1782812041657414400,5.003414306640625,-0.0013957855990156531,0.0013251566560938954,-0.004061611369252205
1782812041667485400,5.0134853515625,-0.00009589677210897207,0.0013427335070446134,-0.0008724760264158249
1782812041677556500,5.023556396484375,0.0001896539470180869,0.001005621743388474,0.0028392702806741
1782812041687627500,5.03362744140625,-0.0007674861699342728,0.0003659303765743971,-0.001287297927774489
1782812041697698300,5.0436982421875,0.0008733175345696509,0.0007152294274419546,0.0009567071683704853
1782812041707769300,5.053769287109375,-0.0006476137787103653,-0.0003047613427042961,-0.0010302772279828787
1782812041717840400,5.06384033203125,-0.0017946917796507478,-0.0014594865497201681,-0.0019202998373657465
1782812041727911400,5.073911376953125,0.0018383925780653954,-0.000030167866498231888,0.000845126633066684
1782812041737982500,5.083982421875,0.0005259497556835413,0.0011061130790039897,-0.0018593532731756568
1782812041748053500,5.094053466796875,0.0013264960143715143,0.0017335538286715746,-0.0000601216743234545
1782812041758124300,5.104124267578125,0.00008575443644076586,0.0014575398527085781,-0.0018503335304558277
1782812041768195300,5.1141953125,-0.0002596575068309903,0.001605611527338624,-0.0008580397698096931
1782812041778266400,5.124266357421875,-0.001416141982190311,0.0009181026834994555,0.0006789176259189844
1782812041788338400,5.13433837890625,-0.0002837658394128084,0.0004187599988654256,-0.0007136493222787976
1782812041798409500,5.144409423828125,-0.0013782336609438062,-0.0003331960178911686,-0.0010173383634537458
1782812041808480500,5.15448046875,0.00002072483766824007,0.0012785490835085511,-0.0007832464762032032
1782812041818551600,5.164551513671875,-0.0034420695155858994,0.0020650543738156557,-0.00033311641891486943
1782812041828622300,5.174622314453125,0.0014347108080983162,-0.00047719920985400677,-0.0004130112356506288
1782812041838693400,5.184693359375,-0.00013942236546427011,-0.0025356824044138193,0.0008917544037103653
1782812041848764400,5.194764404296875,-0.001534386072307825,0.0009714341722428799,-0.000632905401289463
1782812041858835500,5.20483544921875,-0.00016340147703886032,-0.0006279111839830875,0.0008743874495849013
1782812041868906500,5.214906494140625,0.0014083962887525558,0.00046425103209912777,0.0005409597069956362
1782812041878977500,5.2249775390625,-0.0011152738006785512,0.001190204406157136,-0.0012560582254081964
1782812041889048300,5.23504833984375,0.0005441418616101146,0.0021830308251082897,0.0018230886198580265
1782812041899119400,5.245119384765625,0.0010637632803991437,0.0018361379625275731,0.00033567173522897065
1782812041909190400,5.2551904296875,-0.0007341367891058326,0.0009178799809888005,0.0005804161773994565
1782812041919261400,5.265261474609375,0.0013983609387651086,0.0023000233341008425,-0.00152504607103765
1782812041929332500,5.27533251953125,0.0015911738155409694,-0.000208674231544137,-0.00011516857193782926
1782812041939403500,5.285403564453125,0.0009887074120342731,-0.0022677902597934008,-0.001685188733972609
1782812041949474300,5.295474365234375,0.0016923146322369576,-0.001381490146741271,0.0009103280026465654
1782812041960801300,5.30680126953125,-0.0017225302290171385,-0.0015767132863402367,-0.00019487013923935592
1782812041970872300,5.316872314453125,0.000439720693975687,-0.0001520791556686163,-0.0008204086916521192
1782812041980943400,5.326943359375,0.00001760968007147312,0.0005765616660937667,-0.0021226946264505386
1782812041991014400,5.337014404296875,-0.0004853305872529745,-0.00020030071027576923,-0.0001672573562245816
1782812042001085400,5.34708544921875,0.0022992705926299095,-0.0013933968730270863,0.0001451314310543239
1782812042011156500,5.357156494140625,-0.0013081483775749803,-0.00008290004916489124,-0.00365459849126637
1782812042021227300,5.367227294921875,-0.0005259779281914234,0.0020771899726241827,-0.0006673307507298887
1782812042031298300,5.37729833984375,-0.0004752466920763254,-0.0014504024293273687,-0.00016272487118840218
1782812042041369300,5.387369384765625,-0.0012811191845685244,0.0013784072361886501,0.00042237163870595396
1782812042051440400,5.3974404296875,0.0007113144965842366,0.0002075063530355692,0.0012034561950713396
1782812042061511400,5.407511474609375,-0.0011973731452599168,-0.0007373832631856203,0.002865535207092762
1782812042071582500,5.41758251953125,-0.00019459892064332962,0.00135979859624058,-0.0007703128503635526
1782812042081653200,5.4276533203125,0.0011023605475202203,0.0007584568811580539,-0.002627867739647627
1782812042091724300,5.437724365234375,-0.0010834288550540805,-0.0001743354368954897,-0.000873219221830368
1782812042101795300,5.44779541015625,0.0012375160586088896,-0.0009301404934376478,0.0011627674102783203
1782812042111866400,5.457866455078125,0.0002841413370333612,0.003513373900204897,-0.0002444531419314444
1782812042121937400,5.4679375,0.002253548940643668,-0.001585514284670353,0.002196067711338401
1782812042132008400,5.478008544921875,0.0001829948159866035,-0.000017737504094839096,0.003359484951943159
1782812042142079200,5.488079345703125,0.00016808114014565945,-0.0006699457298964262,-0.00005442110705189407
1782812042152150300,5.498150390625,0.0004720602883026004,0.0009691548766568303,-0.0009848143672570586
1782812042162221300,5.50822119140625,0.0008507617749273777,-0.0012117077130824327,0.001847191248089075
1782812042172292400,5.518292236328125,-0.0006339708925224841,-0.0018153255805373192,0.0031374054960906506
1782812042182363400,5.52836328125,0.0006866907351650298,0.0004957654746249318,-0.00022803110186941922
1782812042192434400,5.538434326171875,-0.0007676989189349115,-0.0001883762888610363,0.0004631008196156472
1782812042202505500,5.54850537109375,-0.002590899122878909,-0.0015364685095846653,-0.00023810948187019676
1782812042212576500,5.558576416015625,0.00023234955733641982,-0.0008853778708726168,0.004141352139413357
1782812042222647600,5.5686474609375,-0.000570593518204987,0.002514679916203022,-0.00028375667170621455
1782812042232718600,5.578718505859375,-0.001080550136975944,-0.0010684763547033072,0.000982507597655058
1782812042242789600,5.58878955078125,-0.0012062514433637261,0.05539959296584129,0.007305650971829891
1782812042252860700,5.598860595703125,-0.0006777395028620958,-0.04038634151220322,0.0003963637864217162
1782812042262931500,5.608931396484375,-0.0002335242461413145,0.010955408215522766,0.0019101044163107872
1782812042273002500,5.61900244140625,0.0003126075607724488,0.009259200654923916,0.0027527576312422752
1782812042283073500,5.629073486328125,-0.0009510623058304191,-0.007786627858877182,-0.00007418787572532892
1782812042293144600,5.63914453125,0.0014450891176238656,-0.004150307271629572,0.001484774169512093
1782812042303215600,5.649215576171875,-0.00013283384032547474,-0.002786502707749605,-0.001766945468261838
1782812042313286700,5.65928662109375,0.0010968898423016071,-0.00956563837826252,-0.0028149732388556004
1782812042323357400,5.669357421875,-0.0013604089617729187,0.00025530089624226093,-0.0012271967716515064
1782812042333428500,5.679428466796875,-0.00046043231850489974,-0.00011123321019113064,0.0011363187804818153
1782812042343499500,5.68949951171875,0.00045329827116802335,-0.0021163271740078926,0.0005216612480580807
1782812042353572400,5.699572265625,-0.0008780159405432642,0.0014632276725023985,0.0040189241990447044
