time,seconds_elapsed,z,y,x
1782813382268962300,0.05296240234375,-0.004024433210492134,0.015691955919517202,0.00013027074958663434
1782813382279031300,0.06303125,-0.002827332380414009,-0.005381272913236171,0.0011833577158045954
1782813382289101300,0.073101318359375,-0.009860299757122992,0.03678787150811404,0.005763723759027198
1782813382299171300,0.08317138671875,-0.0004313771545886993,0.004065824666805565,0.003887828618241474
1782813382309240300,0.093240234375,0.0021130466312170026,0.014070053806109354,0.01647664230709197
1782813382319310000,0.10331005859375,-0.012248656198382377,0.011891641187947243,0.0003719500013743527
1782813382329380400,0.11338037109375,-0.006859948897361755,-0.004834443552279845,-0.015623694722587242
1782813382339450400,0.123450439453125,-0.014041969355940818,0.017302669918630272,-0.007229996919305995
1782813382349519400,0.133519287109375,-0.0016214637219905852,-0.0030916276060976087,-0.012052234010561368
1782813382359589400,0.14358935546875,-0.009103928431868552,0.016433595466520637,0.0024167559852590783
1782813382369659100,0.1536591796875,-0.006406944432854652,0.01187444345797412,-0.0018454200874199159
1782813382379728400,0.163728271484375,0.012745499804615973,0.015843995542917398,-0.003046788383950479
1782813382389798100,0.173798095703125,-0.0016197101563215255,0.0050805272678378964,-0.0021244699242408387
1782813382399868200,0.1838681640625,-0.01733282759487629,0.0036542664575390515,-0.003028850868460722
1782813382409938400,0.1939384765625,-0.01359481011033058,0.02030351396873593,0.02250641942404909
1782813382420007200,0.204007080078125,-0.0016255553752183914,0.0072164889837615185,-0.008946004773664753
1782813382430077400,0.214077392578125,-0.013896423405408859,0.0009803345405496656,-0.007069778556027449
1782813382440147200,0.224147216796875,-0.010156067833304404,0.011467451825970783,-0.009890304453030694
1782813382450216200,0.23421630859375,-0.0004278700232505798,-0.002871847375575453,-0.012593037772818933
1782813382460286500,0.244286376953125,-0.012097849550843238,0.023371185310510918,-0.004351633037975989
1782813382470356200,0.254356201171875,0.005263619616627693,0.008755215458897873,-0.00715592246952001
1782813382480425500,0.264425537109375,-0.020622516790032387,0.01289784082211554,0.0034687606726656666
1782813382490495200,0.2744951171875,-0.006853519156575202,-0.0029663846580777315,0.01471134966762038
1782813382500565200,0.284565185546875,-0.004759761747717857,-0.00005389474486000836,0.010372687992360442
1782813382510635300,0.29463525390625,-0.005058452433347702,0.0020024897956755013,0.009324763541738503
1782813382520704300,0.304704345703125,0.015442483803629874,-0.00279635272026062,0.015597235973924397
1782813382530774300,0.314774169921875,-0.0020645313143730164,0.001350839220220223,-0.005008464395336341
1782813382540844300,0.32484423828125,-0.0017640870630741118,0.006810063607338815,0.009817458412528504
1782813382550913300,0.334913330078125,0.005268295791745185,0.010008065064204857,0.014861121985409408
1782813382560983300,0.3449833984375,-0.0034118542701005936,0.006767877566581592,0.001541966461704578
1782813382571053300,0.35505322265625,-0.008797638961672783,0.0029305096270982175,0.006816858674306422
1782813382581123300,0.365123291015625,-0.011788637471199036,0.017154137426568194,-0.004067534849990625
1782813382591192300,0.3751923828125,-0.014181670087575912,0.015287165377754717,0.0008381084916880354
1782813382601262300,0.385262451171875,-0.00445464132130146,-0.0001750734391156584,-0.01631101711633382
1782813382611332000,0.39533203125,0.0016799159109592437,-0.007915750693762675,0.004888936518761329
1782813382621401300,0.4054013671875,0.003025485301017761,0.001085037024039775,0.005194269291020463
1782813382631471400,0.415471435546875,-0.012535071924328803,0.007991793338349089,0.00765277064233087
1782813382641541000,0.425541015625,-0.005202829340100288,0.005577590069780126,-0.012029106580012012
1782813382651610400,0.4356103515625,0.0010825345396995544,0.0002902425176929682,-0.01616129731418332
1782813382661680000,0.44568017578125,-0.02031564279794693,0.007283471539057791,0.001163554753502831
1782813382671750400,0.45575048828125,-0.005499766460061073,0.004667617351701483,0.005844202833424787
1782813382681820400,0.4658203125,0.0016840075641870497,0.008350561914453282,-0.0008873841436463408
1782813382691889400,0.475889404296875,0.007371990072727203,0.006746789112780243,-0.013989490250032394
1782813382701959400,0.48595947265625,-0.0041501054167747495,0.012584801950724795,-0.003851542595308274
1782813382712029200,0.496029296875,-0.0007096095740795135,0.016389875055802985,-0.001507290157256648
1782813382722098400,0.506098388671875,0.005275310054421425,0.0054814818846993145,-0.004314709977514576
1782813382732168200,0.516168212890625,0.003779518538713455,0.013369120728829875,-0.009685584794322494
1782813382742238200,0.52623828125,0.005128010538220405,0.0121921037055552,-0.00930726441766601
1782813382752307200,0.53630712890625,-0.007890460988879203,0.012334653981402516,-0.006511829579435288
1782813382762377500,0.54637744140625,-0.009236614900827408,0.004828379137674347,-0.006758500100171659
1782813382772447500,0.556447509765625,-0.009684943190217017,-0.0008692936478182673,-0.0027280869567533955
1782813382782517800,0.566517822265625,-0.0010036240845918655,0.006004811639059335,-0.0142993096844526
1782813382792586500,0.57658642578125,0.005429039311408996,0.0023845844484400003,0.009348546276125125
1782813382802656800,0.58665673828125,-0.006990297278761863,-0.0006811141319572926,-0.0033351882877177557
1782813382812726500,0.5967265625,-0.0017529811471700667,0.019813392364233733,0.0013031915530562401
1782813382822795500,0.60679541015625,0.0123129536062479,0.004722124017914757,-0.008663970678602344
1782813382832865500,0.616865478515625,0.004830488896369934,0.004005390583304688,0.0013296731346054001
1782813382842935600,0.626935546875,-0.0047439796566963194,0.0017358108166605232,0.010393580083339474
1782813382853004500,0.637004638671875,-0.007886369335651398,0.0113072380292695,0.001066667966998648
1782813382863074600,0.647074462890625,0.002589431971311569,0.0024171258780173958,-0.005660096704482566
1782813382873144600,0.65714453125,0.00019406126737594602,-0.0034293625273276117,0.002267677787214052
1782813382883214600,0.667214599609375,-0.020905425384640693,0.0054551783996634184,0.003810374901280738
1782813382893283600,0.67728369140625,-0.00758650960624218,0.015519786823540925,-0.013396682305901776
1782813382903353300,0.687353271484375,-0.004443535405397415,0.010865540410066023,-0.008808715194824616
1782813382913423600,0.697423583984375,-0.01042903955578804,-0.0006660535601433367,-0.00767568801032612
1782813382923492600,0.70749267578125,-0.008033668851852416,-0.009868373465724289,0.0005885267779463902
1782813382933562600,0.717562744140625,-0.001897358053922653,-0.004998666803818196,0.002105765223770868
1782813382943632600,0.727632568359375,-0.01476736102104187,0.002110516747413203,-0.006827873258665204
1782813382953702700,0.73770263671875,-0.01641512822806835,0.012847462341748177,0.0017446950927260331
1782813382963771600,0.747771728515625,-0.0027986908078193665,-0.0026839692538138476,0.004369527170981746
1782813382973841700,0.757841552734375,0.0094721772223711,0.010615054514026268,-0.002185123203450348
1782813382983911400,0.767911376953125,0.013513561567664145,-0.0027769904326647517,-0.007196256763197016
1782813382993980700,0.777980712890625,-0.005492167675495148,0.006276194192655384,-0.013283065863593947
1782813383004050400,0.788050537109375,-0.0013034838140010834,0.003633643794618547,-0.011926717067905702
1782813383014120700,0.79812060546875,-0.011480594435334205,0.01903841680320911,0.00629903164554853
1782813383024189400,0.808189453125,-0.011182488271594047,-0.006643283072533085,-0.016842087219154925
1782813383034259500,0.818259521484375,-0.005796119058132172,-0.006912318405415862,0.0020660314350039698
1782813383044329700,0.828329833984375,0.0010883797585964203,0.014863533138204365,-0.0017338243555510416
1782813383054399500,0.8383994140625,-0.000706102442741394,0.012253743365453556,-0.0016302292670472523
1782813383064468700,0.84846875,0.0016875146955251693,-0.00026699863942340014,0.0024155595420161263
1782813383074538500,0.85853857421875,-0.005345452681183815,0.016794857393810526,0.005286977659328841
1782813383084608500,0.8686083984375,-0.011480009913444519,0.005668008299591019,-0.005733296654722653
1782813383094677800,0.878677734375,0.00034019173979759216,0.007822976110083982,-0.0037732668944401664
1782813383104747500,0.88874755859375,0.002434533670544624,0.01652552066682838,0.0025986952732899226
1782813383114817500,0.898817626953125,-0.011335048484802246,-0.0037731070642359555,-0.0051801859667408275
1782813383124886500,0.908886474609375,-0.011934183421730995,0.0036048926241695877,0.0016780664471676573
1782813383134956500,0.91895654296875,-0.006696282768249511,0.006407163628563284,-0.0026436714927549473
1782813383145026600,0.929026611328125,-0.017767711880803106,0.007633280490571633,-0.0016331518764956853
1782813383155096600,0.9390966796875,-0.00744447078704834,0.014621705472655594,0.00595565243482124
1782813383165165600,0.94916552734375,-0.008490764969587325,-0.0011707425461150705,0.009097174464096315
1782813383175235600,0.959235595703125,-0.01716857694387436,0.012241815465642139,0.00014652776464354247
1782813383185305600,0.9693056640625,-0.005645312410593032,0.003314787103794515,0.008985055859130807
1782813383195374600,0.97937451171875,-0.01507365049123764,0.0008402502164244651,0.008241920758073683
1782813383205444600,0.989444580078125,0.005423778614401817,-0.0067245772809721525,-0.00324978415974183
1782813383215514600,0.9995146484375,-0.028843817168474197,0.006499335424043238,-0.015000500773347449
1782813383225584400,1.00958447265625,0.0003355155646800995,-0.005628781400900334,-0.004889888650120701
1782813383235653600,1.019653564453125,-0.0014589666366577147,0.005018485749140381,0.009072530929895583
1782813383245723400,1.029723388671875,-0.019863807377219198,-0.005174507427914068,-0.009377512075705453
1782813383255793700,1.039793701171875,0.001983867293596268,0.0043697851825971155,0.0036638973689870906
1782813383265862400,1.0498623046875,-0.005199906730651855,0.015189047898678108,-0.0021793145171715876
1782813383275932700,1.0599326171875,-0.0034060090512037277,0.019936945678666232,0.005562205270980484
1782813383286002700,1.070002685546875,0.008116670960187911,0.005256486622942611,0.011732651233952491
1782813383296071400,1.080071533203125,0.003627542847394943,0.005692339023249223,0.0019780243579880334
1782813383306141700,1.0901416015625,-0.008940846824645996,-0.002158420142903924,-0.0029203604091308077
1782813383316211500,1.10021142578125,0.0018336451679468154,-0.004169440304907039,-0.016003681899944784
1782813383326281500,1.110281494140625,0.000187047004699707,-0.004431406576186419,-0.00009396189376711845
1782813383336350700,1.120350830078125,-0.011035188755393027,0.0007796700024511664,0.003923911428486463
1782813383346420500,1.13042041015625,-0.0016080197185277937,-0.011067839782824739,-0.007407616225245874
1782813383356490500,1.140490478515625,0.0037789340168237684,0.013147239872766657,0.005298026493017096
1782813383366559500,1.1505595703125,-0.009240122032165527,0.010184809870598837,-0.015136020803498103
1782813383376629500,1.16062939453125,-0.009988894572854042,-0.0026259828557260332,0.0014927981243119575
1782813383386699800,1.17069970703125,-0.012084990069270133,0.003863242166256532,0.0015290339148952626
1782813383396768500,1.1807685546875,-0.005053191736340523,-0.000533394490648061,-0.001886290953925345
1782813383406838500,1.190838623046875,-0.008793547308444977,-0.0013294950380921362,-0.006899769451096653
1782813383416908500,1.200908447265625,-0.010889642804861068,0.018333163743838667,-0.0036161172710824758
1782813383426978600,1.210978515625,-0.01553074660897255,-0.007580381259554997,0.007392067029664758
1782813383437047600,1.221047607421875,-0.003259878578782081,0.009914011838892475,0.0014689994069049133
1782813383447117600,1.23111767578125,0.002426350364089012,0.005135682388022542,0.006816908906656317
1782813383457187600,1.2411875,-0.0037082068681716916,0.0010756755406502634,-0.004308042774710338
1782813383467256600,1.251256591796875,0.006913140389323234,0.004840544499503449,0.012173940144490915
1782813383477326600,1.26132666015625,-0.0016179565906524658,0.0013556432595010846,-0.0051080363292712715
1782813383487396400,1.271396240234375,-0.008203180199861526,0.005438053734926507,0.0028502908476046285
1782813383497465600,1.281465576171875,-0.009848024797439575,0.007918983830465003,-0.007214737701381091
1782813383507535400,1.291535400390625,-0.018229484173655507,-0.0008200294123031198,0.0004889114615274593
1782813383517605600,1.301605712890625,-0.0037128830432891845,-0.0009105024410411715,0.01113798469287576
1782813383527675600,1.311675537109375,-0.011941197684407233,0.0014921747865155339,0.01433003133299062
1782813383537744600,1.32174462890625,-0.0014648118555545806,0.005269948892714455,-0.016033974290220066
1782813383547814700,1.331814697265625,-0.0034118542701005936,0.02052099264431745,-0.004245510348957032
1782813383557884400,1.341884521484375,-0.020472879186272618,0.003482864546542987,-0.001206060454668477
1782813383567953700,1.35195361328125,-0.003266308319568634,0.004061650815187022,0.0010880669480538927
1782813383578023700,1.362023681640625,-0.008054127117991448,0.008092166706593707,0.008784806879563256
1782813383588093400,1.372093505859375,-0.004013911816477775,0.010508379269158466,0.0029149718479602594
1782813383598162700,1.38216259765625,0.003916881182789802,-0.0038881756781134753,-0.016154118654725606
1782813383608232400,1.392232421875,0.00047463177442550657,0.016795999038126317,0.0030107489561894906
1782813383618302500,1.402302490234375,-0.01134615440070629,0.012926199266919866,-0.009843467353330925
1782813383628372700,1.412372802734375,-0.015535422784090041,0.0013445282104425132,-0.005834998896950856
1782813383638441500,1.42244140625,-0.01433773743212223,0.005467425959883258,0.0015238759658765047
1782813383648511700,1.43251171875,0.0034703064590692516,-0.005212336953962221,-0.0017553329344606025
1782813383658581500,1.44258154296875,-0.021816695010662076,0.015487181461881844,0.0022567499678232705
1782813383668650800,1.452650634765625,-0.004907061263918876,0.023210597054474053,-0.00991008229915751
1782813383678720500,1.462720458984375,-0.014931027150154113,0.0035192693004850294,0.006137950199167244
1782813383688790500,1.47279052734375,-0.007601122653484344,0.01667226306060329,0.012216806605260352
1782813383698859500,1.482859619140625,-0.0070031567603349686,0.020317085836362093,-0.011885451192467008
1782813383708929500,1.492929443359375,-0.01673018552660942,0.006294433102244511,0.003302980218280572
1782813383718999600,1.50299951171875,0.006464812099933624,0.009245254865009336,0.010708536917180754
1782813383729069600,1.513069580078125,-0.00670329703092575,0.006415794459590688,0.01327446014874149
1782813383739138600,1.523138671875,-0.0052080900371074676,0.00966495071495883,0.0030497041435330174
1782813383749208600,1.53320849609375,-0.0011649521261453627,0.0060180821125861254,-0.007867767383169848
1782813383759278600,1.543278564453125,-0.0016126958936452864,-0.00021008995356969535,0.010547373272408732
1782813383769347600,1.55334765625,-0.004605447968840598,0.003986777214379981,-0.0020719291695393623
1782813383779417900,1.56341796875,-0.0020627777487039565,0.0033226872824598103,-0.00021747410900425164
1782813383789487600,1.573487548828125,-0.00430734180510044,0.009596433789702132,0.011150972038612235
1782813383799557600,1.5835576171875,0.0039233109235763544,0.010746982931159436,-0.004523050931992474
1782813383809626600,1.593626708984375,0.01320142687857151,0.0011370960048399865,0.0032157243432244286
1782813383819696600,1.603696533203125,-0.0010123919129371643,-0.00017915595918893812,-0.000996778785274364
1782813383829766700,1.6137666015625,-0.006548983252048492,0.015552337386272846,0.008611872881895397
1782813383839835600,1.623835693359375,-0.007148118188977241,0.013323126162635162,0.0002636878709075972
1782813383849905700,1.63390576171875,-0.014928689062595367,0.01439275555498898,0.008339410332776605
1782813383859975700,1.6439755859375,-0.01268295596241951,0.005767559683928266,0.0025714533566264432
1782813383870044700,1.654044677734375,-0.013730419188737868,0.0017107037748675792,-0.011035227571299764
1782813383880114400,1.664114501953125,-0.008192658805847167,0.008400145810376852,-0.017242829490173608
1782813383890184700,1.674184814453125,-0.019565116691589356,0.012728420805651694,-0.01531211258934345
1782813383900253400,1.68425341796875,-0.0028068741142749784,-0.0005167812825646251,-0.005905203172506299
1782813383910323700,1.69432373046875,-0.0004132569760084152,0.007193272504955529,0.002468819532636553
1782813383920393700,1.704393798828125,-0.008642740660905838,0.008801091294083744,-0.004780235996877309
1782813383930463500,1.71446337890625,-0.0034048400074243542,0.0226588357900735,-0.00017627673222450537
1782813383940532700,1.72453271484375,0.004077040180563926,0.004086008938308805,0.003933019466837868
1782813383950602800,1.734602783203125,0.0024310265392065047,0.013247311846911906,-0.002012138973432593
1782813383960672500,1.744672607421875,-0.019864391899108887,0.00903110979082994,-0.015456987253017723
1782813383970741800,1.75474169921875,-0.012081482937932014,0.013720628447085619,-0.014598614574724342
1782813383980811500,1.7648115234375,-0.019712416207790375,0.021917269308306276,-0.011861693574255332
1782813383990881800,1.7748818359375,-0.01776537379324436,0.005052534149214625,-0.009291788287321105
1782813384000951800,1.784951904296875,-0.018662614893913267,0.015462339281570165,-0.0040468916374724355
1782813384011020500,1.7950205078125,-0.009232523247599602,0.00869855336821638,-0.0031196686737821437
1782813384021090800,1.8050908203125,-0.004443535405397415,0.0055214668352156875,-0.007859887754102237
1782813384031160600,1.81516064453125,-0.009530044889450072,0.005755914911907166,-0.011701545992924365
1782813384041229800,1.825229736328125,-0.0002519289344549179,-0.006970816260157152,0.0004501115378108807
1782813384051299600,1.835299560546875,0.0019938041657209396,0.01018179592960514,-0.005431400231854059
1782813384061369600,1.84536962890625,-0.005483984369039535,-0.002914937598630786,-0.008621823453751858
1782813384071438600,1.8554384765625,-0.022392449072003363,0.010980051901517435,0.0004224266631528735
1782813384081508600,1.865508544921875,-0.021045710638165474,0.013064018568722531,0.002428613103122916
1782813384091578600,1.87557861328125,-0.017153379374742508,0.003231967658549547,-0.002174428279499989
1782813384101648600,1.885648681640625,-0.01580780998468399,0.010468038125615566,-0.011585970488970632
1782813384111717600,1.895717529296875,-0.012218261060118675,0.0046082792467437685,-0.001078278489690274
1782813384121787600,1.90578759765625,-0.022093758386373518,0.011622770251845941,-0.01179059881613357
1782813384131857700,1.915857666015625,-0.005035656079649925,0.01282739680125378,0.011294933386833872
1782813384141926700,1.9259267578125,-0.023738602983951567,-0.01719419544232078,-0.005782652221783064
1782813384151996700,1.93599658203125,-0.012364391532540321,0.0045152854673564434,0.004678810032573528
1782813384162066700,1.946066650390625,-0.0114677349537611,0.02001623972626403,-0.00726137387168128
1782813384172135700,1.9561357421875,-0.013710545444488525,0.007046082586608827,0.0107124870065134
1782813384182205700,1.966205810546875,-0.014608371067047118,0.010772948489477857,0.00031200454164063556
1782813384192275700,1.976275634765625,-0.02238952646255493,0.00625391842876561,-0.015858336878812405
1782813384202345700,1.986345703125,0.001104161849617958,0.003100906891096383,0.00413213593524415
1782813384212414700,1.996414794921875,0.0020037410378456115,0.007960996341286226,0.0020044557071872988
1782813384222484500,2.006484375,-0.009519523495435714,-0.012468500360986217,-0.015051605339499655
1782813384232554800,2.0165546875,-0.006823708540201187,0.005179548929212615,-0.020001037590554913
1782813384242623500,2.02662353515625,0.00544715948998928,0.01156913123531267,0.008657289776066317
1782813384252693800,2.03669384765625,-0.005176525855064392,-0.006581141089135781,0.0040841800241149025
1782813384262763800,2.046763671875,-0.0020329671323299405,0.004567243983456865,0.005530828318605199
1782813384272832500,2.05683251953125,0.0014098667979240416,0.00629027751693502,-0.009972206016245762
1782813384282902800,2.06690283203125,-0.00023439327776432036,-0.004765433436678722,-0.0006442961027729325
1782813384292972500,2.07697265625,-0.003825695767998695,-0.005674036181578412,-0.017668105697538704
1782813384303042600,2.08704248046875,-0.007267945176362991,0.010830295566748827,-0.010120085487759205
1782813384313111600,2.097111572265625,-0.002777063497900963,0.005793570908019319,-0.005069133657566271
1782813384323181600,2.107181640625,-0.010109306082129477,-0.0002178531349170953,-0.0034452838989556763
1782813384333251800,2.117251953125,-0.006515665504336357,0.008762348452582955,-0.011877859257766975
1782813384343320600,2.127320556640625,-0.008611176478862762,0.004756099352752789,0.0039111569781904105
1782813384353390600,2.137390625,-0.010704349365830422,0.00512419287962839,-0.006434254848177078
1782813384363460600,2.147460693359375,-0.02402209610044956,0.005835272891586646,0.0002812349440413527
1782813384373529600,2.157529541015625,-0.012349778485298156,0.014778229474928229,0.0025001553858164695
1782813384383599900,2.167599853515625,-0.01593991193175316,0.012754943486396223,-0.01932301274811616
1782813384393669600,2.177669677734375,-0.010251344901323317,0.0034686168254818763,-0.012953763127280398
1782813384403739600,2.18773974609375,-0.014290391159057616,0.0002611534205265343,-0.011886339391744695
1782813384413808600,2.19780859375,-0.015036241090297699,-0.0015094273154158144,0.009021382981259376
1782813384423878700,2.207878662109375,-0.003963642933964729,0.0070540832299739115,0.015084991585870738
1782813384433948700,2.21794873046875,-0.012495908957719803,0.0016908117643091827,0.0007965640550362877
1782813384444017700,2.228017578125,-0.006359598159790039,-0.012142656806949524,-0.015380668330506886
1782813384454087700,2.238087646484375,-0.008005027279257775,0.004149858821602538,0.002749648051301483
1782813384464157700,2.24815771484375,0.0033668460845947264,-0.000863822888256982,0.010863814243860542
1782813384474226700,2.258226806640625,-0.024765023422241208,0.004671215814584866,-0.0014530643355450592
1782813384484296400,2.26829638671875,-0.015488661032915114,-0.004239226738642901,-0.009223157197632826
1782813384494366700,2.27836669921875,-0.009052490505576133,-0.0011935480329673736,-0.006426904942071997
1782813384504436700,2.288436767578125,-0.003964227455854416,0.011785851859068497,-0.01176613109515747
1782813384514505700,2.298505615234375,-0.015037410134077072,0.0030778365427628156,0.008679099749075249
1782813384524575700,2.30857568359375,-0.007854805153608322,-0.0022822291856631634,-0.001720535615715198
1782813384534645500,2.3186455078125,-0.0003717559218406677,-0.006253260841639712,-0.007018747055111452
1782813384544714800,2.32871484375,-0.025810148561000824,0.008121447600005193,-0.005947220249904785
1782813384554784500,2.338784423828125,0.003070493486523628,0.009615914808306843,0.004091404349345248
1782813384564854500,2.3488544921875,-0.009048398852348326,-0.007108480298332869,0.012223871100286486
1782813384574923800,2.358923828125,-0.020569909819960593,0.004059714586427435,0.000039704106014687566
1782813384584993500,2.36899365234375,-0.010392799198627472,-0.0036488596300594507,-0.0021343131815316154
1782813384595063800,2.379063720703125,-0.015480477726459503,-0.0017271799856331197,-0.0029284135681344197
1782813384605133800,2.3891337890625,-0.002909749966859817,0.0002492711864877492,0.0024370749707915817
1782813384615202600,2.39920263671875,0.00023614684343338012,0.004392682000994682,0.008354868196812458
1782813384625272800,2.40927294921875,-0.013678981262445449,0.00710875429296866,-0.007008120629820041
1782813384635342600,2.419342529296875,-0.022805706048011777,-0.010010302687063813,0.006547099538927432
1782813384645411800,2.429411865234375,-0.030588030487298964,0.00696215802966617,-0.002304810910229571
1782813384655481600,2.439481689453125,-0.016820201897621154,-0.005680940846400335,0.007951596041989977
1782813384665551600,2.449551513671875,-0.007990998753905297,0.011341012434707955,-0.0007153223622357473
1782813384675620600,2.45962060546875,-0.004849193596839905,-0.004644163410877809,-0.0019924456089851447
1782813384685690600,2.469690673828125,-0.0003612345278263092,-0.003828791907383129,0.00125977481972659
1782813384695760600,2.4797607421875,-0.006045709905028343,0.013732675077905878,0.0014191506495000795
1782813384705830700,2.48983056640625,0.006073182433843612,0.008760823215777053,-0.0045819940280169245
1782813384715899600,2.499899658203125,0.0018827450066804885,0.007291654845513403,-0.008399287293851376
1782813384725969700,2.5099697265625,-0.007244564300775528,-0.00036079613640904425,-0.004918349842913449
1782813384736039700,2.520039794921875,-0.009190437671542167,0.003568661400163546,0.00658562546800822
1782813384746108700,2.530108642578125,0.005177110376954079,-0.0018227036488242447,-0.009705517904076259
1782813384756178400,2.540178466796875,-0.01547404798567295,0.009002002427354454,-0.0038406878411537033
1782813384766248200,2.550248291015625,-0.003353402081131935,0.008270464149257167,-0.004293564441497437
1782813384776317400,2.5603173828125,-0.0033539866030216216,0.009326530807139351,-0.005252477168105543
1782813384786387200,2.57038720703125,-0.021907880425453184,0.008975114420428872,-0.022546797100210094
1782813384796457200,2.580457275390625,-0.01263151803612709,0.009045421443972737,0.001534237529686652
1782813384806527500,2.590527587890625,-0.015174188256263732,0.010146916412468999,-0.014559246112138498
1782813384816596200,2.60059619140625,-0.006793313401937485,0.00035554457255639136,-0.010276337778684683
1782813384826666200,2.610666259765625,-0.005298106408119201,0.0067167593006975945,0.007941337226168252
1782813384836736300,2.620736328125,-0.01203062953352928,0.019831941801076752,-0.0047212335353484375
1782813384846805200,2.63080517578125,-0.01771744299829006,0.021821517316251992,-0.0003222702073282562
1782813384856875500,2.64087548828125,-0.017568974438309667,-0.004463692277437076,0.0015823692540405318
1782813384866945300,2.6509453125,-0.00499883120059967,-0.002860275668790564,-0.014966790299990679
1782813384877015300,2.661015380859375,-0.0055956280499696726,0.002568772775772959,-0.0062824846528354095
1782813384887084300,2.671084228515625,-0.0009568623334169388,-0.006878580532595515,0.005415711755666416
1782813384897154300,2.681154296875,-0.014424246671795845,-0.005938632801361382,-0.002659759544453118
1782813384907224300,2.691224365234375,0.004133154281973838,0.0029022242475301024,-0.0032019241467351094
1782813384917293300,2.701293212890625,0.007573650124669075,0.010911315780552103,-0.008081942140101455
1782813384927363300,2.71136328125,-0.008285597786307334,0.002843799458025023,0.0007869399934541433
1782813384937433300,2.721433349609375,-0.007089081478118896,0.01033187192478217,-0.015729897326708306
1782813384947502300,2.73150244140625,-0.0018500117808580398,0.006320736587280407,-0.004787542520498391
1782813384957572000,2.741572021484375,-0.0073871876418590545,0.008765161464177072,0.004805359021690674
1782813384967642400,2.751642333984375,-0.0039461072772741315,-0.001494531140383333,0.013081627290649338
1782813384977712400,2.76171240234375,0.0015898995399475098,0.007226672451058402,-0.004609646936634089
1782813384987781400,2.771781494140625,-0.009333061012625694,0.005823975179437548,-0.004068831757933366
1782813384997851400,2.781851318359375,-0.011425649377703666,-0.004323324825521558,0.00439778286779765
1782813385007921200,2.791921142578125,-0.022498832055926322,-0.0038800654368940737,0.003587247369624674
1782813385017990400,2.801990478515625,-0.011574117937684059,0.012335256769601255,-0.002755719315772876
1782813385028060400,2.812060302734375,-0.0042407063096761705,0.009261767608392982,0.001874563983513508
1782813385038130200,2.822130126953125,-0.004839841246604919,-0.008914305877592415,0.006010049503180198
1782813385048199400,2.832199462890625,0.002044073048233986,-0.011955883796885608,0.007229994636017363
1782813385058269200,2.842269287109375,0.007729717469215393,0.014725576839083805,-0.01088787782274885
1782813385068339500,2.85233935546875,0.006831891846656799,-0.007418779223365709,-0.004023170551878866
1782813385078409500,2.862409423828125,-0.010077741900086402,-0.01158425573920831,-0.003878761679085437
1782813385088478200,2.872478271484375,-0.0043920974791049954,0.0007059928448870777,-0.0003657828387804329
1782813385098548500,2.882548583984375,-0.0018459201276302337,0.00816783489184454,-0.007451030675286892
1782813385108618200,2.8926181640625,-0.018753800308704376,-0.002215694154938683,0.002522495081787929
1782813385118687500,2.9026875,0.012222352713346481,0.00249820089074783,-0.008954569389321841
1782813385128757200,2.91275732421875,-0.005585691177845001,-0.0056301605072338135,-0.004891598833305761
1782813385138827300,2.9228271484375,0.008182721933722496,-0.00529027016153559,0.0015486039817566052
1782813385148896300,2.932896240234375,-0.004385667738318443,0.0022552863798104227,0.004058328630228061
1782813385158966300,2.94296630859375,-0.01351297704577446,0.004778868306986987,0.011646263008576352
1782813385169036300,2.953036376953125,-0.0034866730719804763,-0.004381018962664529,0.00645623835112201
1782813385179106300,2.963106201171875,-0.005431961920857429,0.014629413855075836,0.004184669840079732
1782813385189175300,2.97317529296875,-0.010368249279260635,0.017954905015975235,-0.00852906941967085
1782813385199245300,2.983245361328125,-0.0037847792357206343,0.018731853338377548,-0.00961874380292138
1782813385209315300,2.9933154296875,0.0020510873109102247,-0.0035653551982250064,0.011385582228796556
1782813385219384300,3.00338427734375,0.003847907599806785,-0.01304230906041339,-0.009511879045097156
1782813385229454300,3.013454345703125,-0.00393266327381134,-0.0009576203852426261,0.016870393148320725
1782813385239524400,3.0235244140625,-0.004530629166960716,0.00960931153758429,0.0239495194880059
1782813385249593300,3.03359326171875,-0.002585340318083763,0.003339921545051038,-0.0037359214255819097
1782813385259663400,3.043663330078125,-0.005877952122688293,0.004708926609624177,-0.013748804228799417
1782813385269733400,3.0537333984375,-0.00722527507841587,0.005764125617826357,0.018868220468610523
1782813385279803400,3.063803466796875,-0.00019230770170688627,-0.003938992549898102,0.0013424138851696624
1782813385289872400,3.073872314453125,-0.013660861083865165,0.004045795658929274,0.007030647555459291
1782813385299942100,3.083942138671875,-0.019947978529334068,-0.0006210636409465224,0.00800139685033355
1782813385310012400,3.094012451171875,-0.006031681379675865,-0.0062997394650243215,0.0010942706432659178
1782813385320081200,3.1040810546875,-0.004085223487019538,0.009444302834756672,-0.02098322616147343
1782813385330151400,3.1141513671875,-0.007825579059123993,0.004164371404144913,-0.006479664892482105
1782813385340221400,3.124221435546875,-0.01860065557360649,-0.0002142455388791859,-0.00305282768238103
1782813385350291200,3.134291259765625,-0.0018418284744024275,0.012690198553958906,-0.027904851251351646
1782813385360360400,3.1443603515625,0.0029459903240203855,0.012402887778868898,-0.013283431189775001
1782813385370430200,3.15443017578125,-0.010221534284949303,0.002804453828325495,0.0007436488409992307
1782813385380500200,3.164500244140625,-0.011717910322546958,0.000572192131076008,0.005364344611321576
1782813385390569200,3.1745693359375,-0.012616904988884925,-0.0020563845405355097,-0.003988912089250516
1782813385400639200,3.18463916015625,-0.010220949763059616,0.0050100010485854,0.002241627747216262
1782813385410709500,3.19470947265625,-0.00857376707792282,0.005665240953769535,0.0008549180625937879
1782813385420778200,3.2047783203125,-0.010070143115520477,0.0008412091976497322,-0.011170480456680525
1782813385430848300,3.21484814453125,-0.019946809485554693,-0.002978623085143044,-0.008897585354943293
1782813385440918300,3.224918212890625,-0.003037175738811493,0.007332461779937148,0.009364307817548979
1782813385450987300,3.2349873046875,-0.007075052952766418,0.007462883226573467,0.0022545488775824194
1782813385461057500,3.2450576171875,0.0041477673292160035,-0.014259694626694545,-0.017755297640513163
1782813385471127300,3.255127197265625,-0.0045317982107400895,0.025343106437986714,0.002439294327341486
1782813385481197300,3.265197265625,-0.0010889642804861068,-0.00410906102033332,-0.01024398586206371
1782813385491266300,3.275266357421875,-0.005727729997038841,-0.008883956405101343,-0.00512131821924122
1782813385501336300,3.28533642578125,-0.009468670091032982,0.002648916206741705,0.0022512655085301955
1782813385511406300,3.29540625,-0.00393266327381134,-0.0160281290713232,-0.008037605241453274
1782813385521475300,3.305475341796875,-0.0048299043744802475,0.014468989995820447,0.0018226625496288761
1782813385531545300,3.31554541015625,-0.009318447965383529,-0.003687017949670553,-0.017741903869400267
1782813385541615400,3.325615478515625,0.010433715730905532,0.020280690215574576,-0.01311121642802609
1782813385551685400,3.335685302734375,-0.010664017355442047,0.005661615091422573,-0.0045776557796169065
1782813385561754000,3.345754150390625,-0.0028828619599342345,-0.013915666961995884,0.004004917942557949
1782813385571824400,3.355824462890625,-0.004676759639382362,-0.0022144246464595196,0.003055866739549674
1782813385581894400,3.365894287109375,-0.0016834230422973632,-0.0013024609006941318,-0.002528691927134059
1782813385591963400,3.37596337890625,-0.012758359286189078,0.012436223792890087,-0.015875603107444475
1782813385602033400,3.386033447265625,-0.01066343283355236,-0.008657618569629266,0.005078901566332206
1782813385612103200,3.396103271484375,0.0002589431971311569,-0.0067603153146337715,0.010687437046936248
1782813385622172400,3.40617236328125,-0.006324526846408844,0.01983363143466413,-0.0015502707824576645
1782813385632242200,3.4162421875,0.0020528408765792846,0.012944584306981415,-0.013408756336185615
1782813385642312200,3.426312255859375,-0.01246376025378704,0.0016924557321239262,-0.014563687108526936
1782813385652382500,3.436382568359375,0.00040448914766311644,0.002352015619399026,0.0014598320030490867
1782813385662451200,3.446451171875,0.0023497779965400696,-0.004054901413992047,-0.009948487213940824
1782813385672521500,3.456521484375,-0.005281739795207977,0.007144583658175542,0.0057332806717022315
1782813385682591500,3.466591552734375,0.0056423898011446,-0.003806287814630195,-0.008478261681040749
1782813385692660200,3.47666015625,-0.009023264411091804,0.0011891184530220926,-0.007112400704913306
1782813385702730500,3.48673046875,-0.013660861083865165,0.00018817038270644844,-0.00821519029806368
1782813385712800300,3.49680029296875,-0.01051964044868946,0.002089711421402171,0.005003895534784533
1782813385722869500,3.506869384765625,-0.01710369501411915,0.006577752688806503,-0.000013284173258580267
1782813385732939300,3.516939208984375,0.00010346037447452545,0.012767766435351222,0.0026076503313030115
1782813385743009300,3.52700927734375,-0.005880290210247039,0.004424081786256283,0.00683016796373995
1782813385753079300,3.537079345703125,-0.006178980895876884,0.015478760693408549,-0.007164742813503835
1782813385763148800,3.547148681640625,-0.013512392523884772,0.0013411763427313417,0.001800804627558682
1782813385773218800,3.55721875,0.0007043488770723343,-0.006050970602035522,-0.005922083525359631
1782813385783288800,3.567288818359375,-0.0006406359910964965,-0.006498933565244078,-0.002332285722333472
1782813385793357800,3.57735791015625,-0.007819733840227126,0.00813452627728693,-0.017603561694500967
1782813385803427600,3.587427490234375,-0.00497661936879158,-0.006685998836252838,-0.009457523075933567
1782813385813497900,3.597497802734375,0.004448796102404594,-0.00046027445551007984,0.0034628560882643796
1782813385823566600,3.607566650390625,-0.016797990065813062,0.00301163943875581,-0.009895181557547766
1782813385833636900,3.617636962890625,-0.009912322205305099,0.00870851763980463,-0.0018615127056953497
1782813385843707000,3.627706787109375,-0.010362404060363768,-0.004520610096445307,0.0018282177908695303
1782813385853776600,3.637776611328125,-0.017543839997053147,0.008569739356776698,-0.0026397784856380894
1782813385863846000,3.647845947265625,-0.015748188751935958,0.0016500413625035433,0.007936752382596023
1782813385873915600,3.65791552734375,-0.00841477712392807,0.01086549474429339,-0.005782814335275907
1782813385883985700,3.667985595703125,0.0025087679505348204,0.004270708722295239,-0.00023508283093106
1782813385894055000,3.678054931640625,-0.005721300256252289,0.0012959124288987368,0.02051669777840143
1782813385904124700,3.688124755859375,-0.0018313070803880691,0.0028476901818532494,0.01032340320724761
1782813385914195000,3.69819482421875,0.0032592940568923947,-0.005118183263950049,-0.0031742758046952074
1782813385924263700,3.708263671875,-0.009909399595856665,-0.004900695455214008,0.01204021706249332
1782813385934333700,3.718333740234375,-0.003922726401686668,0.0036829810953699052,-0.002967729515081737
1782813385944404000,3.728404052734375,-0.02277589543163776,0.002277973135653883,-0.0041586745990091
1782813385954473700,3.7384736328125,-0.018586042526364324,0.0075036627615336325,0.013631365561322308
1782813385964543000,3.74854296875,0.011491115829348563,-0.003449829926621169,0.010640839692542795
1782813385974612700,3.75861279296875,-0.011550152540206908,-0.010538135086605324,0.007237349108699709
1782813385984682800,3.768682861328125,-0.013943185156583784,-0.0015017371993046253,-0.010863722912315278
1782813385994751700,3.778751708984375,-0.00960427916944027,0.006298406024463474,-0.008499628696055151
1782813386004821800,3.78882177734375,-0.017384850043058394,-0.00930262020858936,0.014219718809332697
1782813386014891800,3.798891845703125,-0.009603110125660896,0.013567410646751522,-0.008497365957021247
1782813386024961800,3.8089619140625,0.0014689035087823868,-0.0007995163472369313,-0.000046887332049664105
1782813386035030800,3.81903076171875,-0.0027209493964910503,-0.011441632398124783,-0.013515369932260364
1782813386045100800,3.829100830078125,0.005959200665354728,0.005976681523118168,0.0028348147172597236
1782813386055170800,3.8391708984375,-0.01364449447095394,0.00708198501705192,-0.006596354641288053
1782813386065239600,3.849239501953125,0.004015080860257148,0.011114711131853982,0.007521518078632652
1782813386075309800,3.859309814453125,0.0013216039925813673,-0.0012931724825408308,0.004806617113726679
1782813386085379800,3.8693798828125,-0.005862170031666755,-0.01038381217457354,-0.0024454934559762476
1782813386095448800,3.87944873046875,-0.005859831944108009,-0.00915309220268391,0.0019987269360106437
1782813386105518800,3.889518798828125,0.0004261164575815201,0.006024794981162995,-0.01338476810582215
1782813386115588600,3.899588623046875,0.004765606966614723,0.0007934154000133276,-0.001681473113805987
1782813386125657900,3.909657958984375,-0.00526069700717926,0.0087581015357282,-0.017108062945271375
1782813386135727900,3.919727783203125,0.001623217287659645,0.00601318674176,-0.024142297547170892
1782813386145797600,3.929797607421875,0.005665186154842377,0.006192625828739255,0.014128012804733588
1782813386155868000,3.939867919921875,-0.010195815321803092,-0.008043066867860034,-0.0024695319186896084
1782813386165936600,3.9499365234375,0.004766191488504409,-0.009294610432069748,0.00025230567707912994
1782813386176007000,3.9600068359375,-0.005109890359640121,-0.0037410314255394038,0.015717174842453094
1782813386186077000,3.970076904296875,-0.0037649054914712906,0.002360637317271903,-0.0005225739858229644
1782813386196145700,3.980145751953125,-0.00017477204501628875,-0.0068309145991224795,0.0022652917505940422
1782813386206216000,3.9902158203125,-0.003914543095231056,-0.0034842253865674136,-0.011778874129010363
1782813386216285700,4.00028564453125,-0.007353869894146919,-0.00016642434177920222,-0.004349575794918928
1782813386226355700,4.010355712890625,0.001474164205789566,0.014663544453540817,0.007628330320818349
1782813386236424700,4.0204248046875,-0.0003232406049966812,-0.004057641360349953,0.009597543467977084
1782813386246494700,4.03049462890625,-0.0057113633841276166,-0.0042657768188510085,-0.011038732419349252
1782813386256564700,4.040564697265625,-0.00855506237745285,-0.0015565635259263215,-0.0008042153552407399
1782813386266633700,4.0506337890625,-0.00526420413851738,-0.00987780801435001,0.00512617705744924
1782813386276703700,4.060703857421875,-0.013044190490245819,-0.007533126318035647,0.002183970142691396
1782813386286773800,4.070773681640625,-0.002568389183282852,-0.008352598607912659,-0.0004567353581311181
1782813386296842800,4.0808427734375,0.0017716858476400374,0.00296856748200953,-0.009560291613952722
1782813386306912800,4.090912841796875,-0.0006201777249574661,0.007896899862820283,-0.003605041037930641
1782813386316982800,4.100982666015625,-0.0036152678877115246,0.002963681244337931,0.009022001752478536
1782813386327052800,4.111052734375,-0.0028676643908023833,-0.000889368321467191,0.01033568045021966
1782813386337121800,4.121121826171875,-0.0040665187865495675,0.011956751446565612,-0.008633717104233801
1782813386347191800,4.13119189453125,-0.0007744915038347244,0.002367697245720774,-0.005088110069383401
1782813386357261800,4.14126171875,0.0008715221375226974,-0.00002246756013482809,0.0028820628089131785
1782813386367330800,4.151330810546875,-0.002422258710861206,-0.006038942237524316,-0.007207787370786536
1782813386377400800,4.16140087890625,0.0031178397595882416,-0.00013770970394834874,0.005738009362458251
1782813386387470800,4.171470947265625,-0.011693944925069808,-0.0011978223492857068,-0.0029497394839534535
1782813386397539800,4.181539794921875,-0.0221685771882534,-0.004075186150195077,0.010123909996217116
1782813386407609600,4.191609619140625,-0.001817278555035591,-0.013838391341548413,-0.0005292297721840441
1782813386417680000,4.201679931640625,-0.006754150435328483,-0.012419720182660967,-0.001558540853881277
1782813386427750000,4.21175,-0.00390869787633419,0.0018109858115669339,0.0010377158671501091
1782813386437819000,4.22181884765625,-0.014230769926309585,-0.007378976935939863,-0.005156147504027467
1782813386447889000,4.231888916015625,-0.003457446977496147,0.008959807253442705,0.010774964633339549
1782813386457958700,4.241958740234375,-0.00869534763097763,-0.008932754849735648,0.009312815092329401
1782813386468028000,4.25202783203125,-0.004057750958204269,-0.0031740817251615224,-0.007478580835915636
1782813386478097700,4.26209765625,-0.019470424145460127,0.005943007582379505,-0.003796318976464681
1782813386488167700,4.272167724609375,-0.0036082536250352857,0.003783034803206101,-0.0003663879102678038
1782813386498237000,4.28223681640625,-0.008994622838497161,-0.015561351809790357,0.00413227978242794
1782813386508306700,4.292306640625,-0.004805354455113411,-0.01298230423517525,-0.0037506212377920746
1782813386518376700,4.302376708984375,-0.009594926819205284,0.0038905959640629585,0.003040086931816768
1782813386528446700,4.31244677734375,-0.007352116328477859,0.0077084098197054115,0.0029817991396295838
1782813386538515700,4.322515625,-0.005853986725211143,-0.00361763337473385,0.004776493686810135
1782813386548586000,4.3325859375,0.007463760009407997,0.0016322591106407343,0.0004973116804030724
1782813386558655700,4.34265576171875,-0.002711597046256065,-0.005543532536551356,-0.004009196825453545
1782813386568725000,4.35272509765625,-0.004656885895133018,0.0000036806612741202114,0.008176127796154469
1782813386578794800,4.362794677734375,0.0016255553752183914,-0.0047792884320951995,0.0008229474551742896
1782813386588864800,4.37286474609375,-0.02157002677321434,0.010017654876457527,-0.0020167146838502956
1782813386598933800,4.382933837890625,0.0011748889982700348,-0.002966987446276471,0.000746518934809137
1782813386609003800,4.393003662109375,-0.014836919125914573,-0.002520120461611077,-0.003657634308270644
1782813386619073800,4.40307373046875,-0.01139583876132965,0.006497262197965756,0.013425867301190737
1782813386629143800,4.413143798828125,-0.015436638584733008,-0.006956988664204254,0.013428593547816853
1782813386639212800,4.423212890625,-0.010948679515719413,-0.0003124269500374794,0.01287084321733564
1782813386649282800,4.43328271484375,0.0014706570744514465,-0.0012100790426600723,0.01117772076493129
1782813386659352800,4.443352783203125,-0.02112520561516285,0.010237654302688314,0.006653242777544074
1782813386669421600,4.453421630859375,-0.019332476979494095,-0.0028913283941801636,0.003926642241689842
1782813386679491800,4.463491943359375,-0.007809212446212768,-0.011327659762790427,-0.0008533448767266236
1782813386689561900,4.473561767578125,-0.006911386823654175,0.008144180021621287,0.006515567322925199
1782813386699630800,4.483630859375,0.002664250773191452,0.00028965799580328165,-0.00728717959979549
1782813386709700900,4.493700927734375,-0.01768646333813667,0.010753376139327883,-0.006524248386302497
1782813386719770600,4.5037705078125,-0.011850596791505814,-0.013785492110531776,0.0036030385938007384
1782813386729840600,4.513840576171875,-0.010651157873868942,-0.0003456442330498248,0.0020516489999135956
1782813386739910000,4.523909912109375,-0.01364274090528488,0.008525617087259888,-0.0014994516273844054
1782813386749979600,4.533979736328125,-0.0057101943403482435,-0.005072161298291757,-0.018666519317473283
1782813386760049400,4.54404931640625,0.003717559218406677,0.005951318752998486,0.006046376625308767
1782813386770118400,4.554118408203125,-0.007953004831075668,0.017261068399762734,0.00514994152552681
1782813386780188700,4.564188720703125,0.0010240823507308959,0.010471115998690947,0.002207209454383701
1782813386790258400,4.574258544921875,-0.0037643209695816036,-0.0033188148249406364,0.006114404926798306
1782813386800327400,4.584327392578125,-0.017681202641129493,0.013009667166136205,0.02021239476931514
1782813386810397400,4.5943974609375,-0.016782207974791526,0.006662700159056112,0.0005932646018569357
1782813386820467500,4.604467529296875,-0.0018184475988149641,0.00201493828529492,0.008475752346834634
1782813386830537500,4.614537353515625,0.004018587991595268,0.0025244221773929893,-0.006754508911643643
1782813386840606500,4.6246064453125,-0.012142857736349105,0.00837903909026645,0.011859647747641429
1782813386850676500,4.634676513671875,-0.009597849428653717,-0.0021886691506952044,-0.003983715324325021
1782813386860746500,4.64474658203125,-0.018722820648550985,-0.0035782420792616902,-0.014073364574625156
1782813386870815500,4.6548154296875,-0.015281155762076377,-0.006889512918563559,0.0034864104937878436
1782813386880885200,4.66488525390625,0.001779284632205963,-0.006084836339019239,-0.0037121546742157076
1782813386890955500,4.67495556640625,-0.0004652794241905212,0.0037796920686494558,-0.0035345193852554073
1782813386901025500,4.685025634765625,-0.005853402203321457,0.013559181674523278,0.007472406823455821
1782813386911094500,4.695094482421875,-0.010040917021036147,0.0038436424166429788,-0.0035818177092587574
1782813386921164500,4.70516455078125,-0.0045043256819248196,-0.00724090190581046,-0.004781418740388471
1782813386931234300,4.715234375,-0.0018114333361387252,-0.021238456731289625,-0.009909536593174562
1782813386941303600,4.725303466796875,0.00013502455651760102,0.0027782690742984414,-0.0024153449128847568
1782813386951373300,4.735373291015625,-0.006002455285191536,0.00797979237330146,-0.0031517854116740636
1782813386961443300,4.745443359375,-0.017972879064083097,-0.00369651643037796,0.010135952060460113
1782813386971512600,4.7555126953125,-0.01573065309524536,-0.00847780502331443,-0.002690814553131349
1782813386981582300,4.765582275390625,0.004467500802874565,-0.00872008934658952,0.008666434347035828
1782813386991652600,4.775652587890625,-0.0006207622468471527,-0.004467601267574355,0.0053477108536404555
1782813387001722400,4.785722412109375,-0.008850245931744575,-0.008131110477494076,0.010622105309320612
1782813387011791400,4.795791259765625,-0.004211480215191841,0.0026802337936125695,0.003077763477526605
1782813387021861600,4.805861572265625,-0.019772037440538404,0.015136039069807155,0.005782204697211273
1782813387031931400,4.815931396484375,-0.01273907006382942,0.0070234871623106295,0.01745816415773006
1782813387042000600,4.826000732421875,0.0022246903121471403,0.002689257350284606,0.017706074504193384
1782813387052070400,4.8360703125,0.0038707039535045623,-0.0004570778514258563,-0.003061542995087802
1782813387062140400,4.846140380859375,-0.005106967750191688,-0.008001912873564287,-0.010680488999630323
1782813387072209400,4.85620947265625,-0.0009171148449182509,-0.0010772738426923752,-0.0036779829765553585
1782813387082279400,4.866279541015625,-0.01438566822707653,-0.0004139876283705234,0.00005813937842613086
1782813387092349400,4.876349365234375,0.00028057050704956055,-0.0028988541135098783,0.008886719184345564
1782813387102419500,4.88641943359375,-0.0012140519648790359,-0.0010926632080692797,-0.007655725217820145
1782813387112488400,4.896488525390625,-0.028898762226104734,-0.0038613698695786295,-0.008215110382961575
1782813387122558500,4.906558349609375,-0.012138766083121299,-0.0006242967776488512,0.0017509307539789005
1782813387132628500,4.91662841796875,-0.005405658435821533,-0.0035654739292338487,0.010025906681572086
1782813387142697200,4.926697265625,-0.011390578064322471,0.00867421351140365,0.01564291087971069
1782813387152767500,4.936767578125,-0.013186229309439659,-0.010170717413164675,0.006014917474542744
1782813387162837500,4.94683740234375,0.00013327099084854124,0.0024492654487956312,0.0002494081838056445
1782813387172906500,4.956906494140625,-0.0172235220015049,-0.01786298894882202,-0.01216051897391444
1782813387182976500,4.9669765625,-0.01782148789465427,-0.0029340806905180216,0.005113680618768558
1782813387193046300,4.97704638671875,-0.014379823008179663,-0.0002394256459083408,0.003836648703564424
1782813387203116500,4.987116455078125,0.006269581788778305,-0.012024565118923783,0.011007670560805127
1782813387213185500,4.997185546875,-0.01901975776851177,-0.005561013394314795,-0.0061942492469563145
1782813387223255300,5.00725537109375,-0.005851064115762711,-0.004269567077979445,-0.010151227261405438
1782813387233325600,5.01732568359375,-0.006600421178340912,-0.011365297492593527,0.0012135975904413497
1782813387243394300,5.027394287109375,-0.004803016367554664,-0.005939856644067913,0.00437396131750429
1782813387253464600,5.037464599609375,-0.0013613514810800551,-0.003700425420515239,-0.007678674551856238
1782813387263534600,5.04753466796875,-0.012732055801153183,-0.003958300038566813,0.011226158449961804
1782813387273603300,5.057603271484375,-0.016024083083868025,0.0008228972228243946,-0.00955698084543692
1782813387283673600,5.067673583984375,-0.00495090040564537,-0.0020160525301471353,-0.017129838668950834
1782813387293743400,5.077743408203125,0.002379588612914085,0.003953075874177739,-0.014810885068937204
1782813387303813400,5.0878134765625,0.0004366378515958786,-0.007247021119343116,0.0036037281469674777
1782813387313882400,5.09788232421875,0.0014829320341348648,0.0011897395075298844,0.00754570952168433
1782813387323952400,5.107952392578125,-0.013330021694302557,0.016564144777320326,-0.0025997866852558215
1782813387334022400,5.1180224609375,-0.0045019875943660735,0.004932360101956874,-0.011384997706906869
1782813387344091400,5.12809130859375,-0.0013595979154109954,-0.00717842199569568,-0.00045688148860353975
1782813387354161400,5.138161376953125,-0.010636544826626777,-0.004523824966838583,0.004739515827421564
1782813387364231400,5.1482314453125,-0.015425532668828963,-0.008359338875953108,-0.004091801641567144
1782813387374300400,5.158300537109375,-0.016024083083868025,0.0027238446064759042,0.008580212801729794
1782813387384370400,5.168370361328125,-0.008989362141489982,0.0026235899692401287,-0.0015481861399370244
1782813387394440400,5.1784404296875,-0.005547697255015373,-0.006177866651024669,-0.0052464470028295174
1782813387404510500,5.188510498046875,-0.010187047493457793,-0.00377462316788733,-0.005257925094780512
1782813387414579500,5.198579345703125,-0.012279635858535766,0.008040336054656655,0.0008026992515893653
1782813387424649500,5.2086494140625,-0.0030009353816509246,0.006153682057838886,0.00713777945805341
1782813387434719500,5.218719482421875,0.0040332010388374325,0.0005592047853395343,0.016168112930748612
1782813387444788500,5.22878857421875,-0.008086860343813895,0.0030755258546676487,0.01171246467916062
1782813387454858500,5.2388583984375,0.0004418985486030578,0.004606196887511759,0.008635783480445388
1782813387464928500,5.248928466796875,-0.0028501287341117856,0.005036779457656666,-0.004617391851672437
1782813387474998500,5.25899853515625,-0.00554302107989788,-0.006199813621351495,-0.0068865948756923895
1782813387485067300,5.2690673828125,0.007176759761571884,-0.020160443103080614,0.006163500198954716
1782813387495137500,5.279137451171875,0.0022387188374996185,0.010365436267666518,-0.0007716647925088181
1782813387505206300,5.289206298828125,-0.007935469174385071,0.0047263435353059316,0.004573554993234575
1782813387515276500,5.299276611328125,-0.00658873074054718,-0.012057846334017812,0.006473260267870501
1782813387525345500,5.309345458984375,-0.0029968437284231186,-0.006405492261284962,-0.01349188859197311
1782813387535415300,5.319415283203125,-0.022297756525874138,-0.0023709303824231026,0.004285068324499298
1782813387545485600,5.329485595703125,-0.008079846081137657,-0.0031331195271108296,-0.0003522406539064832
1782813387555554300,5.33955419921875,-0.009275777867436408,0.005185805140063167,0.002019192052015569
1782813387565624600,5.34962451171875,0.0014969605594873428,-0.002825779744144529,0.006709044068411458
1782813387575694600,5.359694580078125,-0.0011965163081884384,0.012885867256531491,0.0007930295242345891
1782813387585764400,5.369764404296875,-0.0004471592456102371,0.004714351703412831,-0.004399602648837026
1782813387595833600,5.37983349609375,0.004639350238442421,0.009135291684512048,-0.004128809183707926
1782813387605903400,5.3899033203125,0.0005991349369287491,-0.009882274126913398,-0.000376073620643001
1782813387615973400,5.399973388671875,-0.0013467384338378906,-0.017923934488976372,0.001026399888691958
1782813387626042400,5.41004248046875,-0.0040390462577342984,-0.010945163251226768,0.006492649954929947
1782813387636112400,5.4201123046875,-0.014963760375976562,0.003621843758970499,-0.00035599209712818263
1782813387646182700,5.4301826171875,-0.0008995791882276535,0.0155537073594518,0.008769367281836457
1782813387656251400,5.44025146484375,-0.01571019482910633,-0.006229834300279617,0.0007192108027753419
1782813387666321400,5.4503212890625,-0.011970423778891563,0.01732105495869182,0.013763787168799899
1782813387676391400,5.460391357421875,-0.0032902737170457837,0.0005149820511229336,0.00011837938239332288
1782813387686461400,5.47046142578125,0.009579144728183745,0.005261729053640737,0.009437345654296223
1782813387696530400,5.480530517578125,-0.016007131949067114,-0.004893589860992506,-0.0005110479448107071
1782813387706600400,5.490600341796875,0.010179448708891868,0.008415041985409334,-0.008028711832233238
1782813387716670500,5.50067041015625,-0.007027706679701804,0.006546416835626587,0.017150879173690917
1782813387726739500,5.510739501953125,-0.017352116817235946,-0.007284832379082218,0.004784291117487009
1782813387736809500,5.5208095703125,-0.013610007679462433,0.0029876557749696072,-0.006863540510379244
1782813387746879200,5.530879150390625,-0.021709142982959746,0.007580134664382785,0.001652372600196395
1782813387756948500,5.540948486328125,-0.17015841374099253,0.009788631893554701,-0.02835893571138149
1782813387767018200,5.551018310546875,0.14003390911221503,-0.034195909652998666,0.03995279267928563
1782813387777088300,5.561088134765625,-0.05345394228994846,0.022022875974094493,-0.020969389432366006
1782813387787158300,5.571158203125,0.028992870250344274,-0.01607698231488466,0.011087526297406293
1782813387797227300,5.581227294921875,0.0019061258822679519,0.004999086928926408,0.004681317083491012
1782813387807297300,5.59129736328125,-0.0051303486257791514,0.00957079702494666,0.014718594542448409
1782813387817367300,5.6013671875,-0.007375497204065323,-0.030789069484733044,-0.015378184112475718
1782813387827436300,5.611436279296875,-0.005278232663869857,0.024148343695467336,-0.004933593077817932
1782813387837506300,5.62150634765625,-0.015745266142487526,-0.002707560191955417,-0.0037940813536057245
1782813387847576300,5.631576416015625,0.0364946241825819,0.010901588970981538,0.014477805773227008
1782813387857645300,5.641645263671875,0.03202244720458984,0.010682183199794963,0.01033913049934199
1782813387867715300,5.65171533203125,-0.03231763075888157,-0.04456484391884878,-0.007177216419298201
1782813387877785000,5.66178515625,-0.04548457084596157,0.0627056451620534,-0.003788222434977069
