time,seconds_elapsed,z,y,x
1782661556137812700,0.064812744140625,-1.3976337909698486,-0.3176079988479614,0.6070589423179626
1782661556147883800,0.0748837890625,-1.5744143724441528,-0.0975438579916954,0.7547615170478821
1782661556157954800,0.084954833984375,-1.736167550086975,0.06572230160236359,0.9010547995567322
1782661556168025900,0.09502587890625,-1.8317294120788574,0.11290176212787628,1.0318881273269653
1782661556178097000,0.105096923828125,-1.819130539894104,0.0840512067079544,1.1621081829071045
1782661556188167700,0.115167724609375,-1.7118345499038696,0.07096943259239197,1.2824921607971191
1782661556198238700,0.12523876953125,-1.5351556539535522,0.16317392885684967,1.3229490518569946
1782661556208309800,0.135309814453125,-1.3310565948486328,0.3142858147621155,1.1752465963363647
1782661556218380800,0.145380859375,-1.1190146207809448,0.5289749503135681,0.8803814649581909
1782661556228451800,0.155451904296875,-0.8922290205955505,0.7267507314682007,0.5190870761871338
1782661556238523000,0.16552294921875,-0.649064302444458,0.8014614582061768,0.16876263916492462
1782661556248594000,0.175593994140625,-0.34220823645591736,0.8751052021980286,-0.12600846588611603
1782661556258664700,0.185664794921875,0.0018183907959610224,0.9527598023414612,-0.4364835023880005
1782661556268735700,0.19573583984375,0.2855870723724365,0.9624507427215576,-0.7654518485069275
1782661556278806800,0.205806884765625,0.5875101685523987,0.8679002523422241,-1.0266189575195312
1782661556288877800,0.2158779296875,0.9505499005317688,0.5945011973381042,-1.1325122117996216
1782661556298948900,0.225948974609375,1.2704061269760132,0.26822349429130554,-1.0876374244689941
1782661556309020000,0.23602001953125,1.4429844617843628,-0.007946781814098358,-0.9584146738052368
1782661556319090700,0.246090576171875,1.4540754556655884,-0.13644245266914368,-0.8140767216682434
1782661556329161700,0.25616162109375,1.2973464727401733,-0.1172264814376831,-0.685630738735199
1782661556339232800,0.266232666015625,1.015299677848816,-0.07772647589445114,-0.5690209865570068
1782661556349303800,0.2763037109375,0.6890848278999329,-0.19695815443992615,-0.43387123942375183
1782661556359374800,0.286374755859375,0.36586496233940125,-0.5392524003982544,-0.26326435804367065
1782661556369446000,0.29644580078125,0.07779639214277267,-0.9850245714187622,-0.058907873928546906
1782661556379516700,0.3065166015625,-0.198520690202713,-1.437760591506958,0.14766047894954681
1782661556389587700,0.316587646484375,-0.4934813678264618,-1.7846509218215942,0.2790743410587311
1782661556399659500,0.326659423828125,-0.810248613357544,-2.0420749187469482,0.24893854558467865
1782661556409729800,0.336729736328125,-1.0544657707214355,-2.2571330070495605,0.0675172358751297
1782661556419801600,0.346801513671875,-1.1255282163619995,-2.319265365600586,-0.1677008867263794
1782661556429872600,0.35687255859375,-1.0259371995925903,-2.172109603881836,-0.4014930725097656
1782661556439943700,0.366943603515625,-0.8129947781562805,-1.8696413040161133,-0.6072797775268555
1782661556450014700,0.3770146484375,-0.5636975169181824,-1.4490089416503906,-0.7662255167961121
1782661556460085800,0.387085693359375,-0.342835932970047,-1.0102899074554443,-0.8787834644317627
1782661556470156800,0.39715673828125,-0.16177600622177124,-0.6351439356803894,-0.93709796667099
1782661556480227800,0.407227783203125,-0.049171704798936844,-0.3455182909965515,-0.9573215246200562
1782661556490298600,0.417298583984375,-0.006349447648972273,-0.2295660376548767,-0.9557115435600281
1782661556500369700,0.42736962890625,-0.02053850330412388,-0.2779783308506012,-0.9314674139022827
1782661556510440700,0.437440673828125,-0.06337960064411163,-0.40533408522605896,-0.9110319018363953
1782661556520511700,0.44751171875,-0.12341417372226715,-0.49762752652168274,-0.9204091429710388
1782661556530582800,0.457582763671875,-0.19254885613918304,-0.5719119310379028,-0.9649435877799988
1782661556540653800,0.46765380859375,-0.2731475532054901,-0.6139312982559204,-1.0265916585922241
1782661556550724900,0.477724853515625,-0.37273186445236206,-0.570860743522644,-1.1093274354934692
1782661556560796000,0.4877958984375,-0.4584880471229553,-0.44209980964660645,-1.2204086780548096
1782661556570867000,0.497866943359375,-0.4543190896511078,-0.39365899562835693,-1.3926771879196167
1782661556580938000,0.50793798828125,-0.343424528837204,-0.5843580961227417,-1.6232246160507202
1782661556591009000,0.518009033203125,-0.23174259066581726,-0.8174738883972168,-1.7649171352386475
1782661556601080000,0.528080078125,-0.186783105134964,-0.8419288992881775,-1.6702295541763306
1782661556611150800,0.53815087890625,-0.21638177335262299,-0.3924042284488678,-1.3764771223068237
1782661556621222000,0.548221923828125,-0.19463413953781128,-0.07115989923477173,-1.0504945516586304
1782661556631293000,0.55829296875,-0.09703291207551956,0.08876866847276688,-0.7868026494979858
1782661556641364000,0.568364013671875,0.041397396475076675,0.3197243809700012,-0.5858309268951416
1782661556651435000,0.57843505859375,0.2123332917690277,0.5899025797843933,-0.43088364601135254
1782661556661506000,0.588506103515625,0.4083597660064697,0.9862658977508545,-0.2918253540992737
1782661556671576800,0.598576904296875,0.6110832691192627,1.3348593711853027,-0.1655016839504242
1782661556681647900,0.60864794921875,0.8125988245010376,1.5535850524902344,-0.041663095355033875
1782661556691719000,0.618718994140625,1.016796350479126,1.6869992017745972,0.10529090464115143
1782661556701790000,0.6287900390625,1.2180218696594238,1.659961223602295,0.2852824926376343
1782661556711861000,0.638861083984375,1.3295190334320068,1.2874325513839722,0.4652251899242401
1782661556721932000,0.64893212890625,1.32512366771698,0.7130406498908997,0.6436240077018738
1782661556732003000,0.659003173828125,1.3265212774276733,-0.0022706924937665462,0.8207531571388245
1782661556742073900,0.669073974609375,1.3459604978561401,-0.5974467396736145,1.06377112865448
1782661556752145000,0.679144775390625,1.2937895059585571,-0.8195971250534058,1.3002218008041382
1782661556762216000,0.6892158203125,1.1722968816757202,-0.7768586874008179,1.3686741590499878
1782661556772287000,0.699286865234375,0.9735069274902344,-0.43187856674194336,1.1509292125701904
1782661556782358000,0.70935791015625,0.7908817529678345,0.0862191841006279,0.6780551075935364
1782661556792429000,0.719428955078125,0.6673871278762817,0.5707288980484009,0.09274761378765106
1782661556802499800,0.729499755859375,0.4860127568244934,0.8530066609382629,-0.49828240275382996
1782661556812571000,0.73957080078125,0.16830666363239288,0.8639315962791443,-1.0806766748428345
1782661556822642000,0.749641845703125,-0.23640327155590057,0.7211800217628479,-1.6847476959228516
1782661556832713000,0.759712890625,-0.7115073800086975,0.4644632041454315,-2.342573404312134
1782661556842784000,0.769783935546875,-1.3598302602767944,0.10116968303918839,-2.9685168266296387
1782661556852855000,0.77985498046875,-2.1554670333862305,-0.15578234195709229,-3.405024290084839
1782661556862925800,0.78992578125,-2.7988574504852295,-0.26020726561546326,-3.6579599380493164
1782661556872996900,0.799996826171875,-3.021120071411133,-0.14474405348300934,-3.7128915786743164
1782661556883068000,0.81006787109375,-2.8079888820648193,0.09686564654111862,-3.566549301147461
1782661556893139000,0.820138916015625,-2.3197953701019287,0.2551323473453522,-3.170537233352661
1782661556903210000,0.8302099609375,-1.689058542251587,0.13168363273143768,-2.5806655883789062
1782661556913281000,0.840281005859375,-1.0675393342971802,-0.2865370213985443,-1.9057434797286987
1782661556923351800,0.850351806640625,-0.5553072690963745,-0.8577448725700378,-1.2316194772720337
1782661556933422800,0.8604228515625,-0.21764923632144928,-1.510725975036621,-0.6121971607208252
1782661556943495000,0.870494873046875,-0.06668500602245331,-1.9338802099227905,-0.11980504542589188
1782661556953566000,0.88056591796875,-0.07680237293243408,-2.0332634449005127,0.1766233891248703
1782661556963637000,0.890636962890625,-0.20096932351589203,-1.9189682006835938,0.2781635820865631
1782661556973708000,0.9007080078125,-0.459005743265152,-1.589424729347229,0.28560736775398254
1782661556983779000,0.910779052734375,-0.7182410955429077,-1.073586344718933,0.26036912202835083
1782661556993849900,0.920849853515625,-0.6888461112976074,-0.6245583891868591,0.21280552446842194
1782661557003921000,0.9309208984375,-0.4758235812187195,-0.2898802161216736,0.1481090784072876
1782661557013992000,0.940991943359375,-0.2985595762729645,-0.21220242977142334,0.13262636959552765
1782661557024063000,0.95106298828125,-0.19184350967407227,-0.30364498496055603,0.20623454451560974
1782661557034134000,0.961134033203125,-0.1373865157365799,-0.3974743187427521,0.37336212396621704
1782661557044205000,0.971205078125,-0.13280507922172546,-0.44068649411201477,0.6373343467712402
1782661557054275800,0.98127587890625,-0.16326658427715302,-0.36795273423194885,0.9840158820152283
1782661557064347000,0.991346923828125,-0.15404458343982697,-0.09891755133867264,1.34657621383667
1782661557074418000,1.00141796875,-0.17779459059238434,0.2454623281955719,1.689679741859436
1782661557084489000,1.011489013671875,-0.20150232315063477,0.5148314833641052,1.9756754636764526
1782661557094560000,1.02156005859375,-0.20447927713394165,0.6239495277404785,2.1446235179901123
1782661557104631000,1.031631103515625,-0.17386704683303833,0.6186522245407104,2.193648099899292
1782661557114701800,1.041701904296875,-0.12097186595201492,0.543231725692749,2.151916265487671
1782661557124772900,1.05177294921875,-0.06324225664138794,0.4707258343696594,2.060739517211914
1782661557134844000,1.061843994140625,-0.05187677592039108,0.4350886046886444,1.9582430124282837
1782661557144915000,1.0719150390625,-0.12708044052124023,0.42941153049468994,1.865504264831543
1782661557154986000,1.081986083984375,-0.22902439534664154,0.5776773691177368,1.7776753902435303
1782661557165057000,1.09205712890625,-0.20516566932201385,0.9262425303459167,1.6675046682357788
1782661557175127800,1.1021279296875,-0.04439818114042282,1.3285126686096191,1.4661829471588135
1782661557185198800,1.11219873046875,0.21399661898612976,1.6602855920791626,1.1734036207199097
1782661557195270000,1.122269775390625,0.5263208150863647,1.8776074647903442,0.8518943786621094
1782661557205341000,1.1323408203125,0.7784928679466248,1.5153247117996216,0.6989394426345825
1782661557215412000,1.142411865234375,0.9650026559829712,1.0573780536651611,0.9510379433631897
1782661557225483000,1.15248291015625,1.0558222532272339,0.70885169506073,1.5981601476669312
1782661557235553800,1.1625537109375,0.9694260358810425,0.6266221404075623,2.328087329864502
1782661557245624800,1.172624755859375,0.7152987122535706,0.7607999444007874,2.6972131729125977
1782661557255696000,1.18269580078125,0.3526882827281952,0.8261671662330627,2.4210875034332275
1782661557265767000,1.192766845703125,0.06688448786735535,0.5621962547302246,1.5730106830596924
1782661557275838000,1.202837890625,-0.011915693990886211,0.20851890742778778,0.4483496844768524
1782661557285909000,1.212908935546875,0.08931292593479156,0.17895302176475525,-0.5570303797721863
1782661557295979800,1.222979736328125,0.2356816828250885,0.2971961796283722,-1.2001310586929321
1782661557306050800,1.23305078125,0.39657309651374817,0.22103138267993927,-1.4341062307357788
1782661557316121900,1.243121826171875,0.5888890624046326,0.048203546553850174,-1.3450909852981567
1782661557326193000,1.25319287109375,0.7538109421730042,-0.045489922165870667,-1.169262409210205
1782661557336264000,1.263263916015625,0.8173946738243103,-0.12310060113668442,-1.1693494319915771
1782661557346335000,1.2733349609375,0.725525975227356,-0.23589132726192474,-1.3991024494171143
1782661557356406000,1.283406005859375,0.5082464218139648,-0.39787837862968445,-1.7650736570358276
1782661557366476800,1.293476806640625,0.2312750667333603,-0.598556637763977,-2.1844565868377686
1782661557376547800,1.3035478515625,-0.05212363228201866,-0.8223899602890015,-2.56021785736084
1782661557386619000,1.313618896484375,-0.30142587423324585,-1.110387921333313,-2.785707950592041
1782661557396690000,1.32368994140625,-0.507219672203064,-1.4089622497558594,-2.8166985511779785
1782661557406761000,1.333760986328125,-0.6431082487106323,-1.6176023483276367,-2.6645843982696533
1782661557416832000,1.34383203125,-0.6953455805778503,-1.710931658744812,-2.395848274230957
1782661557426902800,1.35390283203125,-0.6865973472595215,-1.699747085571289,-2.057589054107666
1782661557436974800,1.363974853515625,-0.6111093163490295,-1.5947837829589844,-1.6943780183792114
1782661557447046400,1.37404638671875,-0.4953068494796753,-1.4445511102676392,-1.355721116065979
1782661557457117400,1.384117431640625,-0.3323914408683777,-1.2833149433135986,-1.0694270133972168
1782661557467188500,1.3941884765625,-0.15739832818508148,-1.1884465217590332,-0.8319160342216492
1782661557477259500,1.404259521484375,-0.02928251028060913,-1.125864028930664,-0.6582089066505432
1782661557487330300,1.414330322265625,0.051625385880470276,-1.0059765577316284,-0.5493447184562683
1782661557497401300,1.4244013671875,0.06934747844934464,-0.7779507637023926,-0.5156080722808838
1782661557507472400,1.434472412109375,0.05269100144505501,-0.48542994260787964,-0.5170379281044006
1782661557517543400,1.44454345703125,0.037093814462423325,-0.20792606472969055,-0.5158712863922119
1782661557527614500,1.454614501953125,0.04375171661376953,0.033115848898887634,-0.48720985651016235
1782661557537685500,1.464685546875,0.06853697448968887,0.2165156751871109,-0.3947048783302307
1782661557547756500,1.474756591796875,0.11526693403720856,0.3540019094944,-0.22769591212272644
1782661557557827300,1.484827392578125,0.192041277885437,0.4496328830718994,-0.00128976593259722
1782661557567898400,1.4948984375,0.2674923539161682,0.5213675498962402,0.25851064920425415
1782661557577969400,1.504969482421875,0.3024809658527374,0.5966042876243591,0.5156639218330383
1782661557588040400,1.51504052734375,0.2967759370803833,0.6874969601631165,0.750317394733429
1782661557598111500,1.525111572265625,0.26129043102264404,0.7979267835617065,0.9260426759719849
1782661557608182500,1.5351826171875,0.19049908220767975,0.9292917251586914,1.0354030132293701
1782661557618253300,1.54525341796875,0.09940441697835922,1.0837904214859009,1.0883886814117432
1782661557628324400,1.555324462890625,0.005412669852375984,1.2383458614349365,1.1001614332199097
1782661557638395400,1.5653955078125,-0.05422159656882286,1.3611176013946533,1.0920798778533936
1782661557648466400,1.575466552734375,-0.041546549648046494,1.4312721490859985,1.045354962348938
1782661557658537500,1.585537353515625,0.0397113598883152,1.431646704673767,0.9234887361526489
1782661557668608500,1.5956083984375,0.1453871876001358,1.328696608543396,0.760964035987854
1782661557678679300,1.60567919921875,0.2478303164243698,1.1118268966674805,0.6625711917877197
1782661557688750300,1.615750244140625,0.34114134311676025,0.798490047454834,0.7160557508468628
1782661557698821400,1.6258212890625,0.4681907296180725,0.43034619092941284,0.9396861791610718
1782661557708892400,1.635892333984375,0.6642449498176575,0.1138787716627121,1.3690894842147827
1782661557718963500,1.64596337890625,0.9428213238716125,-0.02586660161614418,1.9330639839172363
1782661557729034500,1.656034423828125,1.2693780660629272,0.012730325572192669,2.501868724822998
1782661557739105300,1.666105224609375,1.5937169790267944,0.0766601711511612,2.8931884765625
1782661557749176300,1.67617626953125,1.8147358894348145,0.03533855825662613,3.039699077606201
1782661557759247400,1.686247314453125,1.8802303075790405,-0.21505382657051086,2.8796942234039307
1782661557769318400,1.696318359375,1.881833553314209,-0.6661038398742676,2.4138548374176025
1782661557779389400,1.706389404296875,1.915624737739563,-1.3564236164093018,1.8845922946929932
1782661557789460500,1.71646044921875,1.7965941429138184,-2.563800573348999,1.5182405710220337
1782661557799531300,1.72653125,1.4190505743026733,-3.830876111984253,1.243125319480896
1782661557809602300,1.736602294921875,1.171249508857727,-4.372147083282471,1.082707166671753
1782661557819673300,1.74667333984375,1.091671109199524,-4.110350608825684,0.9813057780265808
1782661557829744400,1.756744384765625,1.1098262071609497,-3.2225332260131836,0.8697894215583801
1782661557839815400,1.7668154296875,1.0937385559082031,-2.017819404602051,0.7486005425453186
1782661557849886500,1.776886474609375,0.9989572167396545,-0.7114096283912659,0.6177583932876587
1782661557859957200,1.786957275390625,0.9134024977684021,0.33396780490875244,0.331631600856781
1782661557870028300,1.7970283203125,0.8331789970397949,0.8075417280197144,-0.12567126750946045
1782661557880099300,1.807099365234375,0.7459770441055298,0.7874568104743958,-0.6213630437850952
1782661557890170400,1.81717041015625,0.6468014717102051,0.4064132869243622,-1.0268546342849731
1782661557900241400,1.827241455078125,0.48798584938049316,-0.12784519791603088,-1.2754178047180176
1782661557910312400,1.8373125,0.22453473508358002,-0.5469183921813965,-1.4087833166122437
1782661557920383200,1.84738330078125,-0.10834409296512604,-0.7245475649833679,-1.5208128690719604
1782661557930454300,1.857454345703125,-0.4870075285434723,-0.66536945104599,-1.660882592201233
1782661557940525300,1.867525390625,-0.845412015914917,-0.4673413634300232,-1.8286943435668945
1782661557950596400,1.877596435546875,-1.1374229192733765,-0.19514764845371246,-1.9716416597366333
1782661557960667400,1.88766748046875,-1.332101821899414,0.09381718188524246,-2.0480549335479736
1782661557970738400,1.897738525390625,-1.4199187755584717,0.33530786633491516,-2.0519628524780273
1782661557980809200,1.907809326171875,-1.3654369115829468,0.4987013339996338,-2.0177228450775146
1782661557990880300,1.91788037109375,-1.2840750217437744,0.6099306344985962,-1.9733860492706299
1782661558000951300,1.927951416015625,-1.2977758646011353,0.7460783123970032,-1.9033054113388062
1782661558011022300,1.938022216796875,-1.382239580154419,0.8648065328598022,-1.8226622343063354
1782661558021093400,1.94809326171875,-1.4910879135131836,0.8685108423233032,-1.813368558883667
1782661558031164400,1.958164306640625,-1.5957064628601074,0.7454125881195068,-1.8741391897201538
1782661558041235200,1.968235107421875,-1.6544376611709595,0.5881372094154358,-1.9254778623580933
1782661558051306200,1.97830615234375,-1.6336778402328491,0.4025692045688629,-1.90877366065979
1782661558061377300,1.988377197265625,-1.542985439300537,0.16835659742355347,-1.7970263957977295
1782661558071448300,1.9984482421875,-1.4229329824447632,-0.060109589248895645,-1.5929083824157715
1782661558081519400,2.008519287109375,-1.2844399213790894,-0.23882043361663818,-1.3540127277374268
1782661558091590400,2.01859033203125,-1.1343809366226196,-0.36824822425842285,-1.098854422569275
1782661558101661200,2.0286611328125,-0.976283609867096,-0.44986557960510254,-0.823402464389801
1782661558111732200,2.038732177734375,-0.7988526225090027,-0.4525313973426819,-0.5141173601150513
1782661558121803300,2.04880322265625,-0.6270130276679993,-0.3536912798881531,-0.2579873502254486
1782661558131874300,2.058874267578125,-0.4625721275806427,-0.1810598522424698,-0.030656740069389343
1782661558141945300,2.0689453125,-0.31946882605552673,0.02891596406698227,0.1580997258424759
1782661558152017400,2.079017333984375,-0.20526820421218872,0.23516713082790375,0.3118131160736084
1782661558162088400,2.08908837890625,-0.1315252184867859,0.37384340167045593,0.4064529836177826
1782661558172159500,2.099159423828125,-0.11213579773902893,0.4277806580066681,0.44614580273628235
1782661558182230300,2.109230224609375,-0.15287424623966217,0.4123120903968811,0.48064741492271423
1782661558192301300,2.11930126953125,-0.22549065947532654,0.3690551817417145,0.5215131044387817
1782661558202372400,2.129372314453125,-0.29559817910194397,0.32094141840934753,0.5796951651573181
1782661558212443400,2.139443359375,-0.36867690086364746,0.25442391633987427,0.6608765721321106
1782661558222514400,2.149514404296875,-0.42455869913101196,0.22830653190612793,0.7880337834358215
1782661558232585500,2.15958544921875,-0.45008349418640137,0.26159948110580444,0.9120579957962036
1782661558242656300,2.16965625,-0.4458257257938385,0.2766195833683014,1.0101566314697266
1782661558252727300,2.179727294921875,-0.4289809763431549,0.24925000965595245,1.0773687362670898
1782661558262798300,2.18979833984375,-0.4051707684993744,0.2797282338142395,1.0872888565063477
1782661558272869400,2.199869384765625,-0.3834593594074249,0.4148828685283661,1.0699180364608765
1782661558282940400,2.2099404296875,-0.421507865190506,0.6954516768455505,1.0718501806259155
1782661558293011500,2.220011474609375,-0.45547303557395935,1.006392478942871,1.1194344758987427
1782661558303082200,2.230082275390625,-0.4092165231704712,1.1171187162399292,1.0648075342178345
1782661558313153300,2.2401533203125,-0.37814489006996155,0.9034717082977295,0.8188033699989319
1782661558323224300,2.250224365234375,-0.4691633880138397,0.44551414251327515,0.477518230676651
1782661558333295400,2.26029541015625,-0.5747028589248657,-0.07480761408805847,0.0820249617099762
1782661558343366400,2.270366455078125,-0.5207292437553406,-0.4216618537902832,-0.21451736986637115
1782661558353437400,2.2804375,-0.3696017861366272,-0.614886462688446,-0.22506774961948395
1782661558363508200,2.29050830078125,-0.18131083250045776,-0.49610134959220886,0.17649364471435547
1782661558373579300,2.300579345703125,0.05591583624482155,0.01751774549484253,0.8204505443572998
1782661558383650300,2.310650390625,0.3396722376346588,0.5514307618141174,1.2915819883346558
1782661558393721300,2.320721435546875,0.5993831753730774,0.7949182391166687,1.3523463010787964
1782661558403792400,2.33079248046875,0.7400774359703064,0.7100422382354736,1.1199841499328613
1782661558413863400,2.340863525390625,0.7501057982444763,0.39249756932258606,0.7988002300262451
1782661558423934200,2.350934326171875,0.6553865075111389,-0.09202517569065094,0.5373020768165588
1782661558434005200,2.361005126953125,0.5111417174339294,-0.6631728410720825,0.3868369460105896
1782661558444075300,2.3710751953125,0.35424408316612244,-1.1597120761871338,0.32131120562553406
1782661558454146300,2.381146240234375,0.20687752962112427,-1.4445360898971558,0.26273176074028015
1782661558464217300,2.39121728515625,0.06858628988265991,-1.436843991279602,0.10954958945512772
1782661558474288000,2.4012880859375,-0.05114996060729027,-1.1552058458328247,-0.17080509662628174
1782661558484359200,2.411359130859375,-0.17549115419387817,-0.6924412846565247,-0.5213409066200256
1782661558494430200,2.42143017578125,-0.3074880540370941,-0.1909104883670807,-0.8741689920425415
1782661558504501200,2.431501220703125,-0.4217193126678467,0.2304045855998993,-1.1547588109970093
1782661558514572300,2.441572265625,-0.5079401731491089,0.49520429968833923,-1.291060447692871
1782661558524643300,2.451643310546875,-0.5626087188720703,0.580869734287262,-1.2827121019363403
1782661558534714000,2.461714111328125,-0.6051383018493652,0.4993186891078949,-1.1641913652420044
1782661558544785200,2.47178515625,-0.640516459941864,0.3097895383834839,-0.9885129332542419
1782661558554856200,2.481856201171875,-0.6756922602653503,0.10255913436412811,-0.8099765181541443
1782661558564927200,2.49192724609375,-0.712268590927124,-0.06708736717700958,-0.6656084656715393
1782661558574998300,2.501998291015625,-0.7379574775695801,-0.17080895602703094,-0.5468282699584961
1782661558585069300,2.5120693359375,-0.7407341599464417,-0.18249306082725525,-0.4111328125
1782661558595140000,2.52214013671875,-0.7205295562744141,-0.10804679244756699,-0.24941475689411163
1782661558605211100,2.532211181640625,-0.6796472668647766,0.027847670018672943,-0.07060445100069046
1782661558615282200,2.5422822265625,-0.6161958575248718,0.1907993108034134,0.10726674646139145
1782661558625353200,2.552353271484375,-0.543753445148468,0.3389863967895508,0.25428247451782227
1782661558635424300,2.56242431640625,-0.4721978008747101,0.4984929859638214,0.3792169392108917
1782661558645495300,2.572495361328125,-0.40234288573265076,0.6782636046409607,0.511127233505249
1782661558655566300,2.58256640625,-0.3332170844078064,0.8590810298919678,0.6509698629379272
1782661558665637400,2.592637451171875,-0.27649539709091187,0.9894507527351379,0.7874435782432556
1782661558675708400,2.60270849609375,-0.22813904285430908,1.0530794858932495,0.9453424215316772
1782661558685779500,2.612779541015625,-0.18619665503501892,1.1123871803283691,1.1271580457687378
1782661558695850500,2.6228505859375,-0.15140484273433685,1.217768669128418,1.2820600271224976
1782661558705921500,2.632921630859375,-0.11526317894458771,1.3226182460784912,1.3841360807418823
1782661558715992300,2.642992431640625,-0.09395309537649155,1.3866350650787354,1.4391982555389404
1782661558726063400,2.6530634765625,-0.06732076406478882,1.3409168720245361,1.440796136856079
1782661558736134400,2.663134521484375,-0.03091508150100708,1.160963535308838,1.387376308441162
1782661558746205400,2.673205322265625,0.03035772405564785,0.9186724424362183,1.2741628885269165
1782661558756276500,2.6832763671875,0.08629928529262543,0.5789929032325745,1.1722687482833862
1782661558766347500,2.693347412109375,0.1485540270805359,0.25435522198677063,1.3645145893096924
1782661558776418300,2.703418212890625,0.17988504469394684,-0.1600225418806076,1.6513159275054932
1782661558786489300,2.7134892578125,0.09929589927196503,-0.5350451469421387,2.0128002166748047
1782661558796560400,2.723560302734375,-0.10667910426855087,-0.7407546639442444,2.168114423751831
1782661558806631400,2.73363134765625,-0.34840741753578186,-0.9379034042358398,1.7911770343780518
1782661558816702500,2.743702392578125,-0.4967380166053772,-1.3256436586380005,0.8538508415222168
1782661558826773500,2.7537734375,-0.523612916469574,-1.674183964729309,-0.26855161786079407
1782661558836844300,2.76384423828125,-0.6165303587913513,-1.8415439128875732,-1.2371997833251953
1782661558846915300,2.773915283203125,-0.6798230409622192,-1.6346211433410645,-1.9037736654281616
1782661558856986400,2.783986328125,-0.5684019923210144,-1.20316481590271,-2.1089961528778076
1782661558867057400,2.794057373046875,-0.28391334414482117,-0.5754772424697876,-1.8215916156768799
1782661558877128400,2.80412841796875,0.046512503176927567,0.19381918013095856,-1.3455486297607422
1782661558887199500,2.814199462890625,0.3338111639022827,0.7854106426239014,-1.0008240938186646
1782661558897270300,2.824270263671875,0.5545576810836792,1.073898434638977,-0.8658274412155151
1782661558907341300,2.83434130859375,0.6343327760696411,1.015934705734253,-0.9587011337280273
1782661558917412400,2.844412353515625,0.49130263924598694,0.6095004081726074,-1.264714241027832
1782661558927483400,2.8544833984375,0.19295383989810944,-0.05565961077809334,-1.6943176984786987
1782661558937554400,2.864554443359375,-0.11324284225702286,-0.8245962858200073,-2.1187081336975098
1782661558947625500,2.87462548828125,-0.3411051034927368,-1.4547555446624756,-2.418506383895874
1782661558957696300,2.8846962890625,-0.43289655447006226,-1.8885631561279297,-2.546531915664673
1782661558967767300,2.894767333984375,-0.3925008177757263,-2.142141103744507,-2.423196792602539
1782661558977838300,2.90483837890625,-0.26343607902526855,-2.1566340923309326,-2.0458498001098633
1782661558987909400,2.914909423828125,-0.13773050904273987,-1.9403095245361328,-1.5700087547302246
1782661558997980400,2.92498046875,-0.05833661928772926,-1.5373088121414185,-1.1684131622314453
1782661559008051500,2.935051513671875,-0.04324699193239212,-0.9816319346427917,-0.9673353433609009
1782661559018122200,2.945122314453125,-0.07804066687822342,-0.40957555174827576,-0.967024028301239
1782661559028193300,2.955193359375,-0.15995584428310394,0.07093147188425064,-1.0851157903671265
1782661559038264300,2.965264404296875,-0.2647102177143097,0.4107058346271515,-1.2167657613754272
1782661559048335400,2.97533544921875,-0.3796960711479187,0.6170264482498169,-1.2988190650939941
1782661559058406400,2.985406494140625,-0.4826680123806,0.7523936033248901,-1.3208959102630615
1782661559068477400,2.9954775390625,-0.5517424941062927,0.8066117763519287,-1.300224781036377
1782661559078548500,3.005548583984375,-0.572499692440033,0.8199930787086487,-1.2238121032714844
1782661559088619300,3.015619384765625,-0.510160505771637,0.8114798665046692,-1.077222228050232
1782661559098690300,3.025690185546875,-0.377003014087677,0.8069484829902649,-0.8779522776603699
1782661559108761300,3.03576123046875,-0.20175239443778992,0.7648309469223022,-0.6332211494445801
1782661559118832400,3.045832275390625,-0.03050447441637516,0.7011688947677612,-0.3523774743080139
1782661559128903400,3.0559033203125,0.10988561809062958,0.638626754283905,-0.07156561315059662
1782661559138974500,3.065974365234375,0.18818546831607819,0.5779253244400024,0.14493420720100403
1782661559149045200,3.076045166015625,0.20719368755817413,0.5501368045806885,0.24936732649803162
1782661559159116300,3.0861162109375,0.18886500597000122,0.5365986227989197,0.2514347434043884
1782661559169187300,3.096187255859375,0.13469769060611725,0.547221839427948,0.19159820675849915
1782661559179258400,3.10625830078125,0.07053228467702866,0.5873599648475647,0.13826361298561096
1782661559189329400,3.116329345703125,0.01789383962750435,0.6336025595664978,0.09752390533685684
1782661559199400400,3.126400390625,-0.024717003107070923,0.661172091960907,0.033935606479644775
1782661559209471200,3.13647119140625,-0.044464800506830215,0.7027370929718018,-0.01828823611140251
1782661559219542300,3.146542236328125,-0.01868380233645439,0.7799863815307617,0.008265078067779541
1782661559229613300,3.15661328125,0.07659287750720978,0.8110842704772949,0.10795316100120544
1782661559239684400,3.166684326171875,0.23146794736385345,0.7939475774765015,0.2932644486427307
1782661559249756400,3.17675634765625,0.4358483552932739,0.7898203730583191,0.5691418051719666
1782661559259826400,3.186826416015625,0.6469776034355164,0.7243718504905701,0.8666560649871826
1782661559269897200,3.196897216796875,0.8097701668739319,0.506881833076477,1.124482274055481
1782661559279968300,3.20696826171875,0.8855759501457214,0.21683910489082336,1.3463659286499023
1782661559290039300,3.217039306640625,0.8515752553939819,0.047787297517061234,1.5319265127182007
1782661559300111400,3.227111328125,0.7409421801567078,0.0723474994301796,1.616202712059021
1782661559310182400,3.237182373046875,0.6149505972862244,0.10543162375688553,1.4834595918655396
1782661559320253400,3.24725341796875,0.5052446126937866,0.07604976743459702,1.1718796491622925
1782661559330323200,3.2573232421875,0.4188983142375946,0.04118312895298004,0.8156669735908508
1782661559340394200,3.267394287109375,0.34532633423805237,0.012638836167752743,0.5401805639266968
1782661559350466300,3.27746630859375,0.29351699352264404,0.03185948729515076,0.3569171130657196
1782661559360537300,3.287537353515625,0.2820203900337219,0.0007098239148035645,0.19138966500759125
1782661559370608400,3.2976083984375,0.27760177850723267,-0.16290293633937836,0.03943927213549614
1782661559380679400,3.307679443359375,0.2684250473976135,-0.41978320479393005,-0.00021040302817709744
1782661559390750500,3.31775048828125,0.22443990409374237,-0.699944019317627,0.0846807137131691
1782661559400821200,3.3278212890625,0.1729958951473236,-0.9547309875488281,0.19478166103363037
1782661559410892300,3.337892333984375,0.11623048782348633,-1.1521402597427368,0.191298708319664
1782661559420963300,3.34796337890625,0.058981314301490784,-1.2407289743423462,0.012577158398926258
1782661559431034400,3.358034423828125,-0.0006096410797908902,-1.2220196723937988,-0.32664182782173157
1782661559441106000,3.36810595703125,-0.07916383445262909,-1.1589871644973755,-0.7312899827957153
1782661559451177000,3.378177001953125,-0.17922411859035492,-1.0779775381088257,-1.1132632493972778
1782661559461248000,3.388248046875,-0.28526028990745544,-0.9667354226112366,-1.427811622619629
1782661559471318800,3.39831884765625,-0.3748578429222107,-0.8349431753158569,-1.6398398876190186
1782661559481389800,3.408389892578125,-0.453623503446579,-0.6861308217048645,-1.744918942451477
1782661559491460900,3.4184609375,-0.5055109262466431,-0.559180736541748,-1.758164405822754
1782661559501532000,3.428531982421875,-0.5331223011016846,-0.4880748987197876,-1.6711575984954834
1782661559511603000,3.43860302734375,-0.5265271663665771,-0.5172179341316223,-1.4664136171340942
1782661559521674000,3.448674072265625,-0.48125022649765015,-0.6709914803504944,-1.1347424983978271
1782661559531744800,3.458744873046875,-0.40442007780075073,-0.9122282862663269,-0.7298200130462646
1782661559541815800,3.46881591796875,-0.31118014454841614,-1.1299563646316528,-0.3634185791015625
1782661559551886800,3.478886962890625,-0.2271120399236679,-1.2006794214248657,-0.13779479265213013
1782661559561958000,3.4889580078125,-0.14224642515182495,-1.0665717124938965,-0.057046420872211456
1782661559572029000,3.49902880859375,-0.07551196217536926,-0.7636262774467468,-0.053166717290878296
1782661559582100000,3.509099853515625,-0.03332056850194931,-0.3765597939491272,-0.07131136208772659
1782661559592170800,3.519170654296875,0.025589769706130028,0.0006090267561376095,-0.11082053929567337
1782661559602241800,3.52924169921875,0.1034342348575592,0.3985558748245239,-0.1306706815958023
1782661559612312800,3.539312744140625,0.21175618469715118,0.7443244457244873,-0.11763796210289001
1782661559622383900,3.5493837890625,0.3507939577102661,0.9989772439002991,-0.05712375417351723
1782661559632455000,3.559454833984375,0.47796526551246643,1.172626256942749,0.04779501631855965
1782661559642526000,3.56952587890625,0.5747064352035522,1.2355464696884155,0.19605772197246552
1782661559652596700,3.5795966796875,0.6459484696388245,1.1787954568862915,0.40918663144111633
1782661559662667800,3.589667724609375,0.7072871923446655,1.1016753911972046,0.6603613495826721
1782661559672738800,3.59973876953125,0.7490629553794861,1.0714008808135986,0.8917120099067688
1782661559682809900,3.609809814453125,0.7526824474334717,1.0626052618026733,1.0470824241638184
1782661559692881000,3.619880859375,0.6964026093482971,1.0553925037384033,1.1315746307373047
1782661559702952000,3.629951904296875,0.6031397581100464,1.094342827796936,1.1621605157852173
1782661559713022700,3.640022705078125,0.5274088978767395,1.2043399810791016,1.1491600275039673
1782661559723093800,3.65009375,0.5185464024543762,1.2729451656341553,1.0604544878005981
1782661559733164800,3.660164794921875,0.5471622347831726,1.2864419221878052,0.8456625938415527
1782661559743235800,3.67023583984375,0.6067640781402588,1.3054715394973755,0.5876491069793701
1782661559753307000,3.680306884765625,0.6805704236030579,1.3517407178878784,0.4410060942173004
1782661559763378000,3.6903779296875,0.8209999799728394,1.3761978149414062,0.505109965801239
1782661559773448700,3.70044873046875,1.0146044492721558,1.288617491722107,0.7849518060684204
1782661559783519700,3.710519775390625,1.2422981262207031,1.1316637992858887,1.1689386367797852
1782661559793590800,3.7205908203125,1.445635199546814,0.999152660369873,1.47090744972229
1782661559803661800,3.730661865234375,1.5498228073120117,0.8188813924789429,1.523411750793457
1782661559813732900,3.74073291015625,1.5679256916046143,0.6789430379867554,1.1973142623901367
1782661559823804000,3.750803955078125,1.4318996667861938,0.7867667078971863,0.46758848428726196
1782661559833874700,3.760874755859375,1.151740312576294,0.9982951879501343,-0.47339507937431335
1782661559843945700,3.77094580078125,0.805945873260498,0.5107172727584839,-1.2854325771331787
1782661559854016800,3.781016845703125,0.4284171164035797,-0.6602432131767273,-1.5745165348052979
1782661559864087800,3.791087890625,0.13335032761096954,-1.430834412574768,-1.511466145515442
1782661559874158800,3.801158935546875,0.16265344619750977,-1.6696146726608276,-1.2293555736541748
1782661559884230000,3.81122998046875,0.47209545969963074,-1.523738980293274,-0.7364218235015869
1782661559894300700,3.82130078125,0.8570001125335693,-1.1089495420455933,-0.21211643517017365
1782661559904371700,3.831371826171875,1.1463037729263306,-0.7641354203224182,0.025286799296736717
1782661559914442800,3.84144287109375,1.267656683921814,-0.7001382112503052,-0.044245168566703796
1782661559924513800,3.851513671875,1.2114118337631226,-0.7873980402946472,-0.291532963514328
1782661559934584800,3.861584716796875,0.9778984785079956,-1.0611025094985962,-0.5685608983039856
1782661559944656000,3.87165576171875,0.6818551421165466,-1.4975286722183228,-0.7909185886383057
1782661559954726700,3.8817265625,0.368548184633255,-1.9857096672058105,-0.988815188407898
1782661559964797700,3.891797607421875,0.07164381444454193,-2.311444044113159,-1.137268304824829
1782661559974868700,3.90186865234375,-0.10548955202102661,-2.282731771469116,-1.1513183116912842
1782661559984939800,3.911939697265625,-0.16063909232616425,-1.90585196018219,-1.0594139099121094
1782661559995010800,3.9220107421875,-0.10459831357002258,-1.289495587348938,-0.9189172983169556
1782661560005081900,3.932081787109375,0.027269437909126282,-0.5932934284210205,-0.7762254476547241
1782661560015153000,3.94215283203125,0.16221030056476593,0.05376932770013809,-0.6337098479270935
1782661560025223700,3.9522236328125,0.2295089066028595,0.6202817559242249,-0.4841083586215973
1782661560035294700,3.962294677734375,0.21014496684074402,1.1266250610351562,-0.3138788938522339
1782661560045365800,3.97236572265625,0.11942916363477707,1.4798880815505981,-0.14231352508068085
1782661560055436800,3.982436767578125,-0.0009763377020135522,1.626636266708374,0.0016705442685633898
1782661560065507800,3.9925078125,-0.09420588612556458,1.5914891958236694,0.07398122549057007
1782661560075579000,4.002578857421875,-0.16182352602481842,1.4315433502197266,0.03677824139595032
1782661560085649700,4.012649658203125,-0.18048588931560516,1.212593913078308,-0.05808622017502785
1782661560095720700,4.022720703125,-0.15316441655158997,0.9360108375549316,-0.14756810665130615
1782661560105791700,4.032791748046875,-0.09350773692131042,0.6379472017288208,-0.1975572258234024
1782661560115862800,4.04286279296875,-0.010016110725700855,0.3616682291030884,-0.19492730498313904
1782661560125933800,4.052933837890625,0.10443376749753952,0.11778740584850311,-0.13292331993579865
1782661560136004900,4.0630048828125,0.23259907960891724,-0.07190003991127014,-0.013467827811837196
1782661560146075600,4.07307568359375,0.3434837758541107,-0.1867632418870926,0.15744160115718842
1782661560156146700,4.083146728515625,0.4026341438293457,-0.20988158881664276,0.3543761074542999
1782661560166217700,4.0932177734375,0.3807445764541626,-0.16133348643779755,0.5214335322380066
1782661560176288800,4.103288818359375,0.284671813249588,-0.06127363070845604,0.6273167133331299
1782661560186359800,4.11335986328125,0.14219215512275696,0.03990385681390762,0.6719691753387451
1782661560196430800,4.123430908203125,-0.027641166001558304,0.15171270072460175,0.6580619215965271
1782661560206501600,4.133501708984375,-0.2189759761095047,0.30560240149497986,0.6049994826316833
1782661560216572700,4.14357275390625,-0.37512698769569397,0.47803613543510437,0.5469366908073425
1782661560226643700,4.153643798828125,-0.4615958333015442,0.6727288961410522,0.49267929792404175
1782661560236714800,4.16371484375,-0.5076809525489807,0.8646804690361023,0.4763546586036682
1782661560246785800,4.173785888671875,-0.5415838360786438,0.9770767688751221,0.5426588654518127
1782661560256856800,4.18385693359375,-0.5558786988258362,0.9706384539604187,0.6995247602462769
1782661560266927600,4.193927734375,-0.5579226613044739,0.8874769806861877,0.9312391877174377
1782661560276998700,4.20399853515625,-0.5796881914138794,0.7447512745857239,1.2008581161499023
1782661560287069700,4.214069580078125,-0.5476855039596558,0.604798436164856,1.4155001640319824
1782661560297140700,4.224140625,-0.420921266078949,0.5840606689453125,1.5004814863204956
1782661560307211800,4.234211669921875,-0.2681964337825775,0.588441014289856,1.5339012145996094
1782661560317282800,4.24428271484375,-0.1368102729320526,0.5304054021835327,1.5973153114318848
1782661560327353600,4.254353515625,-0.04922102391719818,0.4199388325214386,1.5698264837265015
1782661560337424600,4.264424560546875,-0.06754731386899948,0.19763723015785217,1.2578963041305542
1782661560347495700,4.27449560546875,-0.21904310584068298,-0.4426703155040741,0.6647765040397644
1782661560357566700,4.284566650390625,-0.45787522196769714,-1.5175186395645142,0.002251824364066124
1782661560367637800,4.2946376953125,-0.8100335001945496,-2.687190055847168,-0.7136759161949158
1782661560377708800,4.304708740234375,-0.9518729448318481,-3.471538543701172,-1.2653807401657104
1782661560387779800,4.31477978515625,-0.8164160251617432,-3.6452114582061768,-1.5630828142166138
1782661560397850600,4.3248505859375,-0.6382220387458801,-3.2699010372161865,-1.817562222480774
1782661560407921700,4.334921630859375,-0.6374627947807312,-2.475942373275757,-2.16013765335083
1782661560417992700,4.34499267578125,-0.8025928139686584,-1.5943113565444946,-2.6038002967834473
1782661560428063700,4.355063720703125,-1.0224064588546753,-1.0286394357681274,-3.124880313873291
1782661560438134800,4.365134765625,-1.1473455429077148,-0.8360711932182312,-3.490877866744995
1782661560448205000,4.375205078125,-1.0446926355361938,-0.681874692440033,-3.375389575958252
1782661560458276000,4.385276123046875,-0.6954473853111267,-0.6393800973892212,-2.7295238971710205
1782661560468347000,4.395346923828125,-0.23800688982009888,-0.6320018172264099,-1.6446784734725952
1782661560478418000,4.40541796875,0.11201472580432892,-0.5456217527389526,-0.4159310758113861
1782661560488489000,4.415489013671875,0.2757567763328552,-0.46526432037353516,0.6423673033714294
1782661560498560000,4.42556005859375,0.273355633020401,-0.3716089427471161,1.3542016744613647
1782661560508631000,4.435631103515625,0.18655547499656677,-0.2676223814487457,1.6595463752746582
1782661560518702000,4.4457021484375,0.026429779827594757,-0.1147177442908287,1.6057932376861572
1782661560528772900,4.45577294921875,-0.14439097046852112,0.07323218882083893,1.3309379816055298
1782661560538844000,4.465843994140625,-0.31866249442100525,0.25995492935180664,0.9544202089309692
1782661560548915000,4.4759150390625,-0.4704802334308624,0.41867318749427795,0.57676100730896
1782661560558986000,4.485986083984375,-0.58272385597229,0.5056618452072144,0.2551281452178955
1782661560569057000,4.49605712890625,-0.6699011325836182,0.5214402675628662,0.03408099338412285
1782661560579128000,4.506128173828125,-0.7236965894699097,0.4802691340446472,-0.04505269229412079
1782661560589198800,4.51619873046875,-0.7356430292129517,0.41443976759910583,0.023122364655137062
1782661560599270000,4.526269775390625,-0.719136118888855,0.34094205498695374,0.21643199026584625
1782661560609341000,4.5363408203125,-0.6756426692008972,0.3034364879131317,0.4796236455440521
1782661560619412000,4.546411865234375,-0.6294858455657959,0.3454367220401764,0.7481809258460999
1782661560629483000,4.55648291015625,-0.6019293665885925,0.46329596638679504,0.9803289771080017
1782661560639554000,4.566553955078125,-0.5352076292037964,0.5958610773086548,1.1110306978225708
1782661560649624800,4.576624755859375,-0.43089938163757324,0.7133330702781677,1.0940178632736206
1782661560659695900,4.58669580078125,-0.30675050616264343,0.7927371859550476,0.9672544598579407
1782661560669767000,4.596766845703125,-0.17243000864982605,0.8232498168945312,0.7782605886459351
1782661560679838000,4.606837890625,-0.05339820310473442,0.8005483746528625,0.597411036491394
1782661560689909000,4.616908935546875,0.039841193705797195,0.7548131346702576,0.5009651780128479
1782661560699980000,4.62697998046875,0.12087322771549225,0.6833943128585815,0.5292081236839294
1782661560710050800,4.63705078125,0.19292505085468292,0.6140687465667725,0.6476572751998901
1782661560720121900,4.647121826171875,0.22758321464061737,0.5942163467407227,0.8121348023414612
1782661560730193000,4.65719287109375,0.19703489542007446,0.619522750377655,0.9538375735282898
1782661560740264000,4.667263916015625,0.1371057778596878,0.619215726852417,1.0127919912338257
1782661560750335000,4.6773349609375,0.1148340255022049,0.48377397656440735,0.9326263070106506
1782661560760406000,4.687406005859375,0.11497482657432556,0.2592582404613495,0.7402752637863159
1782661560770477000,4.69747705078125,0.127254918217659,0.019766036421060562,0.6096583604812622
1782661560780547800,4.7075478515625,0.1572403609752655,-0.15649230778217316,0.6810638904571533
1782661560790619000,4.717618896484375,0.22981522977352142,-0.19765307009220123,0.9491763114929199
1782661560800690000,4.72768994140625,0.303320050239563,-0.1491585522890091,1.302910327911377
1782661560810761000,4.737760986328125,0.32351455092430115,-0.058052342385053635,1.6519460678100586
1782661560820832000,4.74783203125,0.27825993299484253,0.20809431374073029,1.9039753675460815
1782661560830903000,4.757903076171875,0.13578668236732483,0.48834410309791565,1.9526642560958862
1782661560840973800,4.767973876953125,-0.1643122434616089,0.3764808773994446,1.578331470489502
1782661560851044900,4.778044921875,-0.4854585826396942,0.09510138630867004,0.9260839223861694
1782661560861116000,4.788115966796875,-0.6763874888420105,-0.06537777185440063,0.32433468103408813
1782661560871187000,4.79818701171875,-0.8035731315612793,-0.19047656655311584,-0.3635859191417694
1782661560881258000,4.808258056640625,-0.7876543998718262,-0.1720455437898636,-1.1283801794052124
1782661560891329000,4.8183291015625,-0.5916348099708557,-0.019895166158676147,-1.648449420928955
1782661560901399800,4.82839990234375,-0.3328133821487427,0.2395951896905899,-1.6844727993011475
1782661560911470800,4.838470947265625,-0.0956767126917839,0.6232906579971313,-1.2924877405166626
1782661560921542000,4.8485419921875,0.0029535284265875816,0.9111655354499817,-0.7525635361671448
1782661560931613000,4.858613037109375,0.0758756697177887,1.0374430418014526,-0.3576524555683136
1782661560941684000,4.86868408203125,0.19745966792106628,0.9023438096046448,-0.2665969729423523
1782661560951755000,4.878755126953125,0.24811992049217224,0.5726903080940247,-0.4726928770542145
1782661560961825800,4.88882568359375,0.19407151639461517,0.1683902144432068,-0.9165512323379517
1782661560971896800,4.898896728515625,0.08735812455415726,-0.19019271433353424,-1.4647762775421143
1782661560981968000,4.9089677734375,-0.03487834334373474,-0.43166813254356384,-1.952872633934021
1782661560992039000,4.919038818359375,-0.1518888622522354,-0.5865094065666199,-2.281770944595337
1782661561002110000,4.92910986328125,-0.18886102735996246,-0.6231061220169067,-2.3862764835357666
1782661561012181000,4.939180908203125,-0.11219155788421631,-0.5735875368118286,-2.2179276943206787
1782661561022251800,4.949251708984375,0.016895772889256477,-0.44504058361053467,-1.8190271854400635
1782661561032322800,4.95932275390625,0.13306818902492523,-0.28960010409355164,-1.2869473695755005
1782661561042393900,4.969393798828125,0.16960343718528748,-0.19317400455474854,-0.7406298518180847
1782661561052464000,4.979464111328125,0.12843123078346252,-0.1359778195619583,-0.29406219720840454
1782661561062536000,4.989535888671875,0.07626092433929443,-0.12753011286258698,-0.04164603725075722
1782661561072607000,4.99960693359375,0.013210587203502655,-0.13859528303146362,0.01936272345483303
1782661561082677800,5.009677734375,-0.03663882613182068,-0.11363308131694794,-0.05684339255094528
1782661561092748800,5.019748779296875,-0.05157596245408058,-0.05648617446422577,-0.1815672069787979
1782661561102819800,5.02981982421875,-0.03815865516662598,0.02432907372713089,-0.28353559970855713
1782661561112891000,5.039890869140625,0.013068045489490032,0.1094018891453743,-0.32908204197883606
1782661561122962000,5.0499619140625,0.0988866463303566,0.19490520656108856,-0.30451273918151855
1782661561133032000,5.060031982421875,0.20749859511852264,0.28388115763664246,-0.2251601219177246
1782661561143103000,5.07010302734375,0.31020769476890564,0.3697761595249176,-0.10847741365432739
1782661561153174800,5.0801748046875,0.3837921619415283,0.42758193612098694,0.026352573186159134
1782661561163245000,5.0902451171875,0.4287819266319275,0.45090219378471375,0.1681896597146988
1782661561173316000,5.100316162109375,0.44451773166656494,0.45088887214660645,0.2920980155467987
1782661561183387100,5.11038720703125,0.44293463230133057,0.45330169796943665,0.3897847831249237
1782661561193458000,5.1204580078125,0.4227130115032196,0.4838835597038269,0.44515085220336914
1782661561203529000,5.130529052734375,0.3786778748035431,0.5223559737205505,0.4755254089832306
1782661561213600000,5.14060009765625,0.31901052594184875,0.5750476717948914,0.520880401134491
1782661561223671000,5.150671142578125,0.27069276571273804,0.6596263647079468,0.575313925743103
1782661561233742000,5.1607421875,0.22074970602989197,0.7322808504104614,0.5689495205879211
1782661561243813000,5.170813232421875,0.17382806539535522,0.7822746634483337,0.4943279027938843
1782661561253884000,5.1808837890625,0.139080211520195,0.8035602569580078,0.39293205738067627
1782661561263955000,5.190954833984375,0.14975206553936005,0.7912974953651428,0.3216036856174469
1782661561274026000,5.20102587890625,0.22575095295906067,0.7304796576499939,0.3376582860946655
1782661561284097000,5.211096923828125,0.4038870632648468,0.5920487642288208,0.4678696095943451
1782661561294168000,5.22116796875,0.6176912188529968,0.352178692817688,0.7146770358085632
1782661561304239000,5.231239013671875,0.8031294345855713,0.14557473361492157,1.0623239278793335
1782661561314310000,5.241309814453125,0.9113799929618835,0.03264631703495979,1.5020370483398438
1782661561324381000,5.251380859375,0.9360295534133911,0.05831313133239746,2.01182222366333
1782661561334452000,5.261451904296875,0.9501296281814575,0.2078682780265808,2.383472442626953
1782661561344523000,5.27152294921875,0.844850480556488,0.21001160144805908,2.32624888420105
1782661561354594000,5.281593994140625,0.66904616355896,-0.016083329916000366,1.843515396118164
1782661561364665000,5.2916650390625,0.49646151065826416,-0.1913146674633026,1.1838499307632446
1782661561374736000,5.30173583984375,0.27625858783721924,-0.28893762826919556,0.5352623462677002
1782661561384806000,5.311805908203125,0.036903783679008484,-0.3115544319152832,-0.03643789887428284
1782661561394877000,5.321876953125,-0.12518462538719177,-0.49289968609809875,-0.5009645819664001
1782661561404948000,5.331947998046875,-0.2054283320903778,-0.9160562753677368,-0.6736322045326233
1782661561415019000,5.34201904296875,-0.25372546911239624,-1.246608018875122,-0.43941226601600647
1782661561425089800,5.35208984375,-0.2719934284687042,-1.3058695793151855,-0.09555265307426453
1782661561435160800,5.362160888671875,-0.24885419011116028,-1.146034598350525,-0.011111459694802761
1782661561445231900,5.37223193359375,-0.23010526597499847,-0.8779874444007874,-0.267385870218277
1782661561455303000,5.382302978515625,-0.29009273648262024,-0.6082746982574463,-0.783160924911499
1782661561465374000,5.3923740234375,-0.4247205853462219,-0.4163944721221924,-1.3956094980239868
1782661561475445000,5.402445068359375,-0.6059044599533081,-0.37306100130081177,-1.9911508560180664
1782661561485515800,5.412515869140625,-0.7369838953018188,-0.5249229669570923,-2.404937505722046
1782661561495586800,5.4225869140625,-0.7373950481414795,-0.8269241452217102,-2.444223165512085
1782661561505657900,5.432657958984375,-0.6157400012016296,-1.1148158311843872,-2.121635675430298
1782661561515729000,5.44272900390625,-0.4302825927734375,-1.2468739748001099,-1.595007300376892
1782661561525800000,5.452800048828125,-0.2393113225698471,-1.2474117279052734,-1.080222725868225
1782661561535871000,5.46287109375,-0.09098821878433228,-1.1987837553024292,-0.7160214185714722
1782661561545941800,5.472941650390625,-0.0007278299890458584,-1.0947630405426025,-0.5531100034713745
1782661561556012000,5.483011962890625,0.058684587478637695,-0.8813819885253906,-0.5477511286735535
1782661561566083800,5.493083740234375,0.13325868546962738,-0.5420265793800354,-0.5987285375595093
1782661561576155000,5.50315478515625,0.1615709662437439,-0.18201929330825806,-0.6599931120872498
1782661561586226000,5.513225830078125,0.11356323212385178,0.09957616031169891,-0.7157048583030701
1782661561596296000,5.5232958984375,-0.0035694818943738937,0.30746832489967346,-0.7628048658370972
1782661561606367000,5.533366943359375,-0.1066705733537674,0.5197361707687378,-0.7853514552116394
1782661561616438000,5.54343798828125,-0.12536728382110596,0.685753583908081,-0.7812587022781372
1782661561626509000,5.553509033203125,-0.08914617449045181,0.7303645014762878,-0.7364299893379211
1782661561636580000,5.563580078125,-0.05329456552863121,0.6819730997085571,-0.6216606497764587
1782661561646651100,5.573651123046875,0.0015143562341108918,0.6195874810218811,-0.44328373670578003
1782661561656722000,5.583721923828125,0.045647282153367996,0.5370578169822693,-0.22395512461662292
1782661561666793000,5.59379296875,0.06814699620008469,0.4492323398590088,-0.010244174860417843
1782661561676864000,5.603864013671875,0.05424821376800537,0.3946092426776886,0.16607354581356049
1782661561686935000,5.61393505859375,0.03556906804442406,0.4074786901473999,0.3475634455680847
1782661561697006000,5.624006103515625,-0.015109107829630375,0.38124170899391174,0.4458509087562561
1782661561707077000,5.6340771484375,-0.10922601819038391,0.32646501064300537,0.5038095116615295
1782661561717148000,5.64414794921875,-0.20935353636741638,0.24700301885604858,0.48965582251548767
1782661561727219000,5.654218994140625,-0.2969217300415039,0.2959692180156708,0.3675554692745209
1782661561737290000,5.6642900390625,-0.3929077386856079,0.5859096050262451,0.10712756216526031
1782661561747361000,5.674361083984375,-0.4690539240837097,1.0077383518218994,-0.2449633628129959
1782661561757432000,5.68443212890625,-0.4190222918987274,1.312334418296814,-0.6105344891548157
1782661561767503000,5.694503173828125,-0.19749151170253754,1.2829229831695557,-0.9413203597068787
1782661561777575000,5.704574951171875,0.1012730821967125,1.030949592590332,-1.197492241859436
1782661561787646000,5.71464599609375,0.2921290695667267,0.947450578212738,-1.1231732368469238
1782661561797716700,5.724716796875,0.3101520240306854,0.9953717589378357,-0.6576324105262756
1782661561807787800,5.734787841796875,0.19900283217430115,0.8868963718414307,0.05076701194047928
1782661561817858800,5.74485888671875,-0.014845526777207851,0.6210271716117859,0.9997168779373169
1782661561827929900,5.754929931640625,-0.28778746724128723,0.40459099411964417,2.007755756378174
1782661561838001000,5.7650009765625,-0.4892326891422272,-0.051002081483602524,2.4761552810668945
1782661561848072000,5.775072021484375,-0.6055271625518799,-0.6838546991348267,2.244750738143921
1782661561858143000,5.78514306640625,-0.6816773414611816,-0.9550686478614807,1.6083883047103882
1782661561868214000,5.795214111328125,-0.7509077787399292,-0.8152335286140442,0.95911705493927
1782661561878285000,5.80528515625,-0.7239139676094055,-0.7337077260017395,0.4703817069530487
1782661561888356000,5.815356201171875,-0.5597358345985413,-0.600857138633728,0.2771170437335968
1782661561898427100,5.82542724609375,-0.32645413279533386,-0.3571475148200989,0.32588696479797363
1782661561908498200,5.835498291015625,-0.1324550062417984,-0.20656141638755798,0.5203043818473816
1782661561918569000,5.84556884765625,0.028086213394999504,-0.09856995195150375,0.7965889573097229
1782661561928640000,5.855639892578125,0.18600183725357056,0.09462467581033707,1.0473264455795288
1782661561938711000,5.8657109375,0.38644784688949585,0.3141131103038788,1.128930687904358
1782661561948782000,5.875781982421875,0.5957556366920471,0.5043840408325195,1.0330082178115845
1782661561958853000,5.88585302734375,0.6776150465011597,0.6729815602302551,0.8289791941642761
1782661561968924200,5.895924072265625,0.6188564300537109,0.7338593006134033,0.5559979677200317
1782661561978995000,5.905994873046875,0.5335846543312073,0.6946261525154114,0.23861977458000183
1782661561989066000,5.91606591796875,0.4300004839897156,0.6852888464927673,-0.04280099272727966
1782661561999137000,5.926136962890625,0.3742602467536926,0.7186542749404907,-0.22819295525550842
1782661562009208000,5.9362080078125,0.3529941737651825,0.7405965328216553,-0.3089618980884552
1782661562019279000,5.946279052734375,0.34643399715423584,0.6908713579177856,-0.3433784544467926
1782661562029350100,5.95635009765625,0.3559868037700653,0.6446210741996765,-0.35293343663215637
1782661562039421000,5.9664208984375,0.3671148419380188,0.6033737659454346,-0.37028074264526367
1782661562049492000,5.976491943359375,0.385137140750885,0.5310336351394653,-0.4170410633087158
1782661562059563000,5.98656298828125,0.3957354724407196,0.4709835946559906,-0.5121521353721619
1782661562069634000,5.996634033203125,0.3895775079727173,0.5065268278121948,-0.6041951179504395
1782661562079705000,6.006705078125,0.35941267013549805,0.6352864503860474,-0.6187191605567932
1782661562089776000,6.016776123046875,0.2934398651123047,0.8935794234275818,-0.5342062711715698
1782661562099847000,6.026846923828125,0.18723297119140625,1.197047472000122,-0.38675981760025024
1782661562109918000,6.03691796875,0.06790407747030258,1.4519551992416382,-0.19303810596466064
1782661562119989000,6.046989013671875,-0.09080567955970764,1.7496271133422852,0.36843693256378174
1782661562130060000,6.05706005859375,-0.1315564662218094,1.3238203525543213,0.9044293165206909
1782661562140131000,6.067131103515625,-0.08336365222930908,0.9374950528144836,1.1391956806182861
1782661562150202000,6.0772021484375,-0.03716365993022919,0.662356436252594,1.270158052444458
1782661562160273000,6.08727294921875,0.03780938312411308,0.5475712418556213,1.3188257217407227
1782661562170344000,6.097343994140625,0.13914217054843903,0.517024576663971,1.1758077144622803
1782661562180415000,6.1074150390625,0.23275627195835114,0.4546094238758087,0.9196499586105347
1782661562190486000,6.117486083984375,0.37627723813056946,0.3177381753921509,0.649956464767456
1782661562200557000,6.12755712890625,0.48935773968696594,-0.05064437910914421,0.3161625266075134
