time,seconds_elapsed,z,y,x
1782811055132365800,0.07436572265625,0.014435134828090668,0.048161592334508896,0.21941602230072021
1782811055142436900,0.084436767578125,0.03966991603374481,0.04006345197558403,0.19148585200309753
1782811055152509000,0.094509033203125,0.049027521163225174,-0.0013212370686233044,0.1409098505973816
1782811055162580000,0.104580078125,0.05428087338805199,-0.04498216509819031,0.08666045218706131
1782811055172651000,0.114651123046875,0.06065967679023743,-0.06619969010353088,0.04224091023206711
1782811055182723000,0.12472314453125,0.06355106830596924,-0.08839580416679382,0.0064930301159620285
1782811055192794000,0.134794189453125,0.06708226352930069,-0.096742182970047,-0.018135374411940575
1782811055202865200,0.144865234375,0.060607850551605225,-0.08590631186962128,-0.02117563784122467
1782811055212937200,0.154937255859375,0.0446963757276535,-0.0730944275856018,-0.017743606120347977
1782811055223008000,0.165008056640625,0.031117983162403107,-0.05926409363746643,-0.016040779650211334
1782811055233079000,0.1750791015625,0.018180444836616516,-0.041100673377513885,-0.007466149982064962
1782811055243150000,0.185150146484375,0.008564836345613003,-0.01597268134355545,-0.0016271696658805013
1782811055253222000,0.195221923828125,0.0026167696341872215,0.005623274482786655,0.0013961397344246507
1782811055263293000,0.20529296875,-0.001636032247915864,0.019550275057554245,-0.012821678072214127
1782811055273364000,0.215364013671875,-0.009304165840148926,0.02927226573228836,-0.04205574467778206
1782811055283436000,0.22543603515625,-0.01203257404267788,0.04152839630842209,-0.07990778237581253
1782811055293507000,0.235507080078125,-0.01014583371579647,0.05338682234287262,-0.12155868113040924
1782811055303577900,0.245577880859375,-0.008440079167485237,0.04453234374523163,-0.16408458352088928
1782811055313650200,0.255650146484375,-0.0035985643044114113,0.028431979939341545,-0.20245301723480225
1782811055323721000,0.265720947265625,0.006007990334182978,0.02737097628414631,-0.22998957335948944
1782811055333792000,0.2757919921875,0.014541826210916042,0.03642957657575607,-0.2451968640089035
1782811055343864000,0.285864013671875,0.02093527652323246,0.031326960772275925,-0.2553565800189972
1782811055353935000,0.29593505859375,0.019395437091588974,0.04380679875612259,-0.2446461170911789
1782811055364006100,0.306006103515625,0.02375796064734459,0.08344794809818268,-0.22535976767539978
1782811055374078000,0.316077880859375,0.027822960168123245,0.10640659928321838,-0.2098723202943802
1782811055384149000,0.32614892578125,0.03550458326935768,0.11322508752346039,-0.19894057512283325
1782811055394220000,0.336219970703125,0.04400304704904556,0.12282850593328476,-0.19480811059474945
1782811055404292000,0.3462919921875,0.05318349599838257,0.12329908460378647,-0.19752159714698792
1782811055414363000,0.35636279296875,0.053734924644231796,0.09618481248617172,-0.20645689964294434
1782811055424434000,0.366433837890625,0.057342976331710815,0.08167990297079086,-0.2136133462190628
1782811055434506000,0.376506103515625,0.056868456304073334,0.07600796967744827,-0.20861908793449402
1782811055444577000,0.386576904296875,0.05962855741381645,0.05997440218925476,-0.19666841626167297
1782811055454648000,0.39664794921875,0.059291135519742966,0.0395030751824379,-0.18092097342014313
1782811055464720100,0.40672021484375,0.0595790259540081,0.028463471680879593,-0.16741396486759186
1782811055474791200,0.416791259765625,0.059582650661468506,0.015942508354783058,-0.1471593976020813
1782811055484862200,0.4268623046875,0.05526433512568474,0.012948050163686275,-0.12267374992370605
1782811055494933200,0.436933349609375,0.05146411061286926,0.03258243948221207,-0.092300646007061
1782811055505005000,0.447005126953125,0.044197943061590195,0.04281963035464287,-0.06639821082353592
1782811055515075800,0.457075927734375,0.03902085870504379,0.04028695449233055,-0.050923481583595276
1782811055525147000,0.46714697265625,0.039879992604255676,0.04216235131025314,-0.04252387210726738
1782811055535219000,0.477218994140625,0.041978463530540466,0.023814382031559944,-0.04234709218144417
1782811055545290000,0.4872900390625,0.04827604070305824,0.013563609682023525,-0.039979010820388794
1782811055555361000,0.497361083984375,0.051207806915044785,0.023311208933591843,-0.020874684676527977
1782811055565433000,0.50743310546875,0.053022485226392746,0.03495321422815323,-0.002048265654593706
1782811055575504100,0.517504150390625,0.05691554769873619,0.047124579548835754,0.012868562713265419
1782811055585575200,0.5275751953125,0.057300906628370285,0.07044374942779541,0.026217658072710037
1782811055595647000,0.53764697265625,0.06753111630678177,0.09154046326875687,0.037216201424598694
1782811055605718000,0.547718017578125,0.07193891704082489,0.10004260390996933,0.037699565291404724
1782811055615789000,0.5577890625,0.08489763736724854,0.09858366847038269,0.024656319990754128
1782811055625860900,0.56786083984375,0.09683499485254288,0.08536932617425919,0.0012159765465185046
1782811055635932000,0.577931884765625,0.10909117758274078,0.07770253717899323,-0.022951211780309677
1782811055646003000,0.5880029296875,0.12006180733442307,0.057955458760261536,-0.05276237055659294
1782811055656075000,0.598074951171875,0.12745468318462372,0.04330029338598251,-0.08199726790189743
1782811055666146000,0.60814599609375,0.13781411945819855,0.028440918773412704,-0.09531014412641525
1782811055676217000,0.618217041015625,0.14440634846687317,0.027899736538529396,-0.0934014767408371
1782811055686289200,0.6282890625,0.15402115881443024,0.028208663687109947,-0.07767578214406967
1782811055696360200,0.638360107421875,0.16431207954883575,0.02024856023490429,-0.05665617808699608
1782811055706431000,0.648430908203125,0.17626968026161194,0.00572154950350523,-0.027641305699944496
1782811055716502000,0.658501953125,0.18332412838935852,0.0015229342970997095,0.001860280754044652
1782811055726573800,0.66857373046875,0.188872829079628,-0.0020137433893978596,0.028537165373563766
1782811055736644900,0.678644775390625,0.18485647439956665,-0.015122942626476288,0.055847570300102234
1782811055746716000,0.6887158203125,0.18135760724544525,-0.03268968686461449,0.07262468338012695
1782811055756788000,0.6987880859375,0.17393499612808228,-0.047232791781425476,0.09527747333049774
1782811055766859000,0.70885888671875,0.16041120886802673,-0.052639007568359375,0.1144876554608345
1782811055776930000,0.718929931640625,0.14176417887210846,-0.04022505506873131,0.13762614130973816
1782811055787002000,0.729002197265625,0.12274787575006485,-0.03565773367881775,0.16465668380260468
1782811055797073200,0.7390732421875,0.11101728677749634,-0.027253881096839905,0.17597000300884247
1782811055807144000,0.74914404296875,0.10900766402482986,-0.010830432176589966,0.18141084909439087
1782811055817216000,0.759216064453125,0.10476440191268921,-0.012907487340271473,0.1740839034318924
1782811055827287000,0.769287109375,0.10660970211029053,-0.013813229277729988,0.16196519136428833
1782811055837358000,0.779358154296875,0.10939718782901764,-0.0010996193159371614,0.14707648754119873
1782811055847430000,0.789429931640625,0.1124853864312172,0.008177235722541809,0.1287185102701187
1782811055857501000,0.7995009765625,0.10953455418348312,0.015705138444900513,0.10317185521125793
1782811055867571700,0.80957177734375,0.10875052213668823,0.022172091528773308,0.07479055225849152
1782811055877643800,0.819643798828125,0.10608980059623718,0.04961642622947693,0.059213053435087204
1782811055887714800,0.82971484375,0.10065482556819916,0.07676868140697479,0.042010363191366196
1782811055897785900,0.839785888671875,0.09313937276601791,0.08998969942331314,0.025534676387906075
1782811055907858000,0.84985791015625,0.08628599345684052,0.08450359106063843,-0.009103728458285332
1782811055917929000,0.859928955078125,0.07982740551233292,0.08431099355220795,-0.035793911665678024
1782811055928000000,0.87,0.07393356412649155,0.0709611028432846,-0.059083253145217896
1782811055938071000,0.880071044921875,0.0678751990199089,0.04922136664390564,-0.07823517918586731
1782811055948143000,0.89014306640625,0.06700114905834198,0.030725982040166855,-0.08930593729019165
1782811055958214100,0.900214111328125,0.060246944427490234,0.027894215658307076,-0.08498844504356384
1782811055968285000,0.910284912109375,0.051705922931432724,0.03237684816122055,-0.07467188686132431
1782811055978356700,0.920356689453125,0.0410204716026783,0.03740350902080536,-0.05748709291219711
1782811055988427800,0.930427734375,0.030699653550982475,0.0419497936964035,-0.040890272706747055
1782811055998498800,0.940498779296875,0.023713599890470505,0.04571185261011124,-0.02453303337097168
1782811056008571000,0.95057080078125,0.02164379134774208,0.05001791566610336,-0.004718848969787359
1782811056018642000,0.960641845703125,0.023081734776496887,0.05439852923154831,0.006825097370892763
1782811056028713000,0.970712890625,0.03313543274998665,0.056105613708496094,0.02316092699766159
1782811056038785000,0.980784912109375,0.04871412739157677,0.05951659008860588,0.03953244164586067
1782811056048856000,0.99085595703125,0.0681237205862999,0.05517531558871269,0.053282298147678375
1782811056058926800,1.0009267578125,0.08984574675559998,0.051415279507637024,0.05854480713605881
1782811056068999000,1.0109990234375,0.10779092460870743,0.04526923596858978,0.05802549049258232
1782811056079070000,1.021070068359375,0.12677408754825592,0.044139161705970764,0.054764553904533386
1782811056089141000,1.03114111328125,0.14703382551670074,0.05003220587968826,0.05784902721643448
1782811056099212800,1.041212890625,0.1564137488603592,0.050912898033857346,0.05363434553146362
1782811056109283800,1.051283935546875,0.16509538888931274,0.048267316073179245,0.047996699810028076
1782811056119355000,1.06135498046875,0.17640024423599243,0.04547685384750366,0.03766922652721405
1782811056129426000,1.071426025390625,0.1852635145187378,0.03820083290338516,0.02021806687116623
1782811056139498000,1.081498046875,0.18757006525993347,0.039096057415008545,0.00952931772917509
1782811056149569000,1.091569091796875,0.18759137392044067,0.044462330639362335,-0.005448300391435623
1782811056159639800,1.101639892578125,0.18111397325992584,0.04054556414484978,-0.02288059890270233
1782811056169711900,1.1117119140625,0.17485687136650085,0.03821370005607605,-0.03598734736442566
1782811056179783000,1.121782958984375,0.17300257086753845,0.0337003692984581,-0.040742527693510056
1782811056189854000,1.13185400390625,0.16606423258781433,0.018378935754299164,-0.05106733739376068
1782811056199926000,1.141926025390625,0.15894711017608643,0.004080439452081919,-0.05330909416079521
1782811056209997000,1.1519970703125,0.15311691164970398,-0.005341558251529932,-0.04511774331331253
1782811056220068000,1.162068115234375,0.14190559089183807,-0.007434746716171503,-0.027300382032990456
1782811056230140000,1.172139892578125,0.12510930001735687,-0.010602043941617012,-0.009756808169186115
1782811056240211000,1.1822109375,0.10640735179185867,-0.01555701158940792,0.006232369691133499
1782811056250281700,1.19228173828125,0.08391615748405457,-0.019850293174386024,0.0249613169580698
1782811056260354000,1.20235400390625,0.06333094090223312,-0.02211896702647209,0.04475376754999161
1782811056270424800,1.2124248046875,0.04352208226919174,-0.0162738598883152,0.07597453147172928
1782811056280495900,1.222495849609375,0.028053272515535355,-0.0055776480585336685,0.10024676471948624
1782811056290568000,1.23256787109375,0.012123841792345047,-0.001462531741708517,0.11535967141389847
1782811056300639000,1.242638916015625,-0.006861414760351181,-0.012215934693813324,0.11197169125080109
1782811056310710000,1.2527099609375,-0.024341871961951256,-0.023942364379763603,0.10480965673923492
1782811056320781000,1.262781005859375,-0.036643534898757935,-0.016397112980484962,0.11018051952123642
1782811056330852900,1.272852783203125,-0.04795451462268829,-0.0041095539927482605,0.11664401739835739
1782811056340924000,1.282923828125,-0.059800148010253906,0.0014287298545241356,0.10999194532632828
1782811056350995000,1.292994873046875,-0.07404352724552155,0.0024857386015355587,0.09395545721054077
1782811056361066800,1.303066650390625,-0.08435928821563721,0.006314437836408615,0.07722343504428864
1782811056371137800,1.3131376953125,-0.09652034938335419,0.007208194583654404,0.05755998194217682
1782811056381208800,1.323208740234375,-0.1034930869936943,0.004476803354918957,0.045185625553131104
1782811056391281000,1.333281005859375,-0.10244246572256088,0.014026366174221039,0.0418098010122776
1782811056401352000,1.34335205078125,-0.1041635125875473,0.02253931574523449,0.03780531510710716
1782811056411423000,1.353423095703125,-0.10037090629339218,0.02634124457836151,0.028491975739598274
1782811056421495000,1.3634951171875,-0.10028861463069916,0.015679683536291122,0.010079792700707912
1782811056431566000,1.373566162109375,-0.09958314150571823,-0.004942239262163639,-0.0006330391042865813
1782811056441637000,1.38363720703125,-0.09332844614982605,-0.007611917331814766,-0.001201509963721037
1782811056451709000,1.393708984375,-0.08442656695842743,-0.005513080395758152,0.015149499289691448
1782811056461779700,1.40377978515625,-0.07494570314884186,-0.01152011752128601,0.023564092814922333
1782811056471850800,1.413850830078125,-0.06476178020238876,-0.016650430858135223,0.028390539810061455
1782811056481921800,1.423921875,-0.05647162348031998,-0.023656276986002922,0.035103689879179
1782811056491993900,1.433993896484375,-0.053264643996953964,-0.02274174802005291,0.04516857489943504
1782811056502065000,1.44406494140625,-0.05262480303645134,-0.015088447369635105,0.05738379433751106
1782811056512136000,1.454135986328125,-0.05176859721541405,-0.008230541832745075,0.0631074607372284
1782811056522208000,1.4642080078125,-0.045632559806108475,-0.006052777171134949,0.06913858652114868
1782811056532279000,1.474279052734375,-0.03584810718894005,-0.010611842386424541,0.06470255553722382
1782811056542349800,1.484349853515625,-0.023067811504006386,-0.03162146359682083,0.05335007980465889
1782811056552422100,1.494422119140625,-0.0025590751320123672,-0.042952947318553925,0.05636025220155716
1782811056562493000,1.504492919921875,0.014965539798140526,-0.040428198873996735,0.06159799546003342
1782811056572564000,1.51456396484375,0.028267230838537216,-0.04858759045600891,0.06151836737990379
1782811056582635800,1.5246357421875,0.04121466726064682,-0.05867397040128708,0.05629095062613487
1782811056592706800,1.534706787109375,0.057369403541088104,-0.06378750503063202,0.05035955831408501
1782811056602777900,1.54477783203125,0.06787440180778503,-0.06605568528175354,0.05141289159655571
1782811056612850000,1.554849853515625,0.06985872983932495,-0.05198913440108299,0.05243687704205513
1782811056622921000,1.5649208984375,0.07179372757673264,-0.044670961797237396,0.053221751004457474
1782811056632992000,1.574991943359375,0.07316525280475616,-0.042923130095005035,0.04442399740219116
1782811056643064000,1.58506396484375,0.07457922399044037,-0.040426041930913925,0.034567732363939285
1782811056653134800,1.595134765625,0.07655183225870132,-0.04052004963159561,0.019269736483693123
1782811056663206000,1.605205810546875,0.07286249846220016,-0.03858223930001259,0.011970841325819492
1782811056673277000,1.61527685546875,0.06547941267490387,-0.023275986313819885,0.014594054780900478
1782811056683349000,1.625348876953125,0.058814115822315216,-0.0072636958211660385,0.02040838822722435
1782811056693420000,1.635419921875,0.05337913706898689,0.00140835577622056,0.020914388820528984
1782811056703491000,1.645490966796875,0.04462281987071037,0.01692262850701809,0.009648175910115242
1782811056713563000,1.65556298828125,0.037112172693014145,0.021582894027233124,0.000615532451774925
1782811056723634000,1.665634033203125,0.027908608317375183,0.018232159316539764,-0.01000963430851698
1782811056733705000,1.675705078125,0.019602209329605103,0.016531463712453842,-0.023914799094200134
1782811056743777000,1.685777099609375,0.005122072529047728,0.016763290390372276,-0.0280180461704731
1782811056753847800,1.695847900390625,-0.007377473637461662,0.01961953192949295,-0.02321796491742134
1782811056763918800,1.7059189453125,-0.021432358771562576,0.019808828830718994,-0.015259687788784504
1782811056773991000,1.715990966796875,-0.02770117297768593,0.01761624775826931,-0.007324799429625273
1782811056784062000,1.72606201171875,-0.031586628407239914,0.01400099415332079,0.004106458742171526
1782811056794133000,1.736133056640625,-0.03667113557457924,0.005538533441722393,0.013431251049041748
1782811056804205000,1.746205078125,-0.03610115870833397,0.009921204298734665,0.03370186686515808
1782811056814276000,1.756276123046875,-0.0418676994740963,0.015139401890337467,0.0476086288690567
1782811056824347100,1.76634716796875,-0.04214636981487274,0.012115813791751862,0.05682070925831795
1782811056834418000,1.77641796875,-0.04142758250236511,0.006186020094901323,0.05882979556918144
1782811056844489700,1.78648974609375,-0.03784802928566933,0.0011084370780736208,0.058429256081581116
1782811056854561000,1.79656103515625,-0.03154086321592331,0.0029228487983345985,0.05340626835823059
1782811056864632000,1.806632080078125,-0.022494856268167496,-0.00528789684176445,0.0457901768386364
1782811056874704100,1.8167041015625,-0.013239305466413498,-0.020197603851556778,0.03670160844922066
1782811056884775200,1.826775146484375,-0.0026142573915421963,-0.027001328766345978,0.0334712490439415
1782811056894846200,1.83684619140625,0.004204766824841499,-0.02136101946234703,0.03841806948184967
1782811056904918300,1.846918212890625,0.003228774992749095,-0.01625489816069603,0.036189086735248566
1782811056914989300,1.8569892578125,0.008554831147193909,-0.0188959538936615,0.03634940832853317
1782811056925060000,1.86706005859375,0.00914919376373291,-0.019678307697176933,0.03772340714931488
1782811056935132000,1.8771318359375,0.006840232759714127,-0.014793004840612411,0.0395018644630909
1782811056945203000,1.887202880859375,0.003780579660087824,-0.012404360808432102,0.04751748964190483
1782811056955274000,1.89727392578125,0.0031643242109566927,-0.003060393501073122,0.04954389110207558
1782811056965346000,1.907345947265625,0.0011571019422262907,0.0009363398421555758,0.04570616036653519
1782811056975417000,1.9174169921875,-0.0005411958554759622,0.0018380861729383469,0.04445980116724968
1782811056985488100,1.927488037109375,-0.001927635632455349,-0.002530166180804372,0.036569803953170776
1782811056995559200,1.93755908203125,-0.0007859384641051292,-0.011594767682254314,0.02299407497048378
1782811057005631200,1.94763134765625,-0.000728097278624773,-0.019932135939598083,0.012144784443080425
1782811057015702300,1.957702392578125,0.0020373291335999966,-0.01588120125234127,0.007106350734829903
1782811057025773000,1.96777294921875,-0.0011668758234009147,-0.015257786028087139,0.0066392431035637856
1782811057035845000,1.97784521484375,-0.007319842930883169,-0.010126939043402672,0.009004929102957249
1782811057045916200,1.987916259765625,-0.01735522225499153,0.008118325844407082,0.01413915678858757
1782811057055987200,1.9979873046875,-0.023507392033934593,0.014565838500857353,0.013707458041608334
1782811057066059000,2.00805908203125,-0.02833506278693676,0.011585201136767864,0.0047485618852078915
1782811057076130000,2.018130126953125,-0.029636282473802567,0.014545038342475891,-0.008324363268911839
1782811057086201000,2.028201171875,-0.029928218573331833,0.017298296093940735,-0.023096049204468727
1782811057096273200,2.038273193359375,-0.02461254969239235,0.006177201867103577,-0.048239219933748245
1782811057106344200,2.04834423828125,-0.020723532885313034,-0.003884756239131093,-0.06974420696496964
1782811057116415000,2.0584150390625,-0.014373491518199444,-0.009954100474715233,-0.07978059351444244
1782811057126486000,2.068486083984375,-0.0066894786432385445,-0.012606200762093067,-0.08031927794218063
1782811057136558000,2.07855810546875,0.003090980462729931,-0.02252301387488842,-0.07374420017004013
1782811057146629000,2.088629150390625,0.013924616388976574,-0.02156106010079384,-0.05794999375939369
1782811057156700200,2.0987001953125,0.02615385316312313,-0.01766911707818508,-0.030972441658377647
1782811057166772200,2.108772216796875,0.03491394966840744,-0.01173077430576086,-0.0004443033249117434
1782811057176843300,2.11884326171875,0.03894278034567833,-0.008222592063248158,0.03165184706449509
1782811057186914300,2.128914306640625,0.04275296628475189,0.0032468438148498535,0.056377168744802475
1782811057196986000,2.138986083984375,0.054075129330158234,0.013576713390648365,0.07701453566551208
1782811057207057200,2.14905712890625,0.05999267101287842,0.011245382018387318,0.0881289690732956
1782811057217128000,2.1591279296875,0.06450486183166504,0.007544918917119503,0.09319004416465759
1782811057227200000,2.169199951171875,0.07133182138204575,0.0032123015262186527,0.08889869600534439
1782811057237271000,2.17927099609375,0.08256024122238159,-0.0015965683851391077,0.0818229466676712
1782811057247342000,2.189342041015625,0.07756921648979187,-0.01932816207408905,0.06312356144189835
1782811057257414100,2.1994140625,0.08037112653255463,-0.02780713327229023,0.04115087911486626
1782811057267485200,2.209485107421875,0.07539069652557373,-0.02556493505835533,0.030615249648690224
1782811057277556200,2.21955615234375,0.06970005482435226,-0.025903422385454178,0.02258821576833725
1782811057287627300,2.229627197265625,0.06487930566072464,-0.044178321957588196,0.012516052462160587
1782811057297699300,2.23969921875,0.06041664257645607,-0.04254261404275894,0.012483029626309872
1782811057307770400,2.249770263671875,0.0477694533765316,-0.02685137651860714,0.02243650145828724
1782811057317841200,2.259841064453125,0.03204135596752167,-0.01391986571252346,0.03253840282559395
1782811057327913000,2.269912841796875,0.016762644052505493,0.002722599310800433,0.03557586669921875
1782811057337984000,2.27998388671875,0.0062974849715828896,0.009499012492597103,0.037708260118961334
1782811057348055000,2.290054931640625,-0.004636124707758427,0.01279241219162941,0.037044983357191086
1782811057358127000,2.300127197265625,-0.013332411646842957,0.00948529876768589,0.029803315177559853
1782811057368198100,2.3101982421875,-0.022571075707674026,-0.006688372232019901,0.008914255537092686
1782811057378269200,2.320269287109375,-0.02675703354179859,-0.017618782818317413,0.0007431443082168698
1782811057388341200,2.33034130859375,-0.0336693711578846,-0.02658522129058838,-0.00549433846026659
1782811057398412300,2.340412353515625,-0.040997058153152466,-0.03693080693483353,-0.007634720765054226
1782811057408483000,2.350483154296875,-0.04553695395588875,-0.04180943965911865,0.0010375618003308773
1782811057418555100,2.36055517578125,-0.046597156673669815,-0.03736808896064758,0.01169207040220499
1782811057428626200,2.370626220703125,-0.051707759499549866,-0.04057174548506737,0.01940024085342884
1782811057438697200,2.380697265625,-0.05386332422494888,-0.04563974216580391,0.021426640450954437
1782811057448768300,2.390768310546875,-0.054919689893722534,-0.05211282894015312,0.016409780830144882
1782811057458840000,2.400840087890625,-0.05629707872867584,-0.054055072367191315,0.013941830955445766
1782811057468911000,2.4109111328125,-0.05776730552315712,-0.05076105147600174,0.021289972588419914
1782811057478982100,2.420982177734375,-0.05668393149971962,-0.05069553852081299,0.02603146620094776
1782811057489054200,2.43105419921875,-0.05228513479232788,-0.05140282213687897,0.02782115526497364
1782811057499125200,2.441125244140625,-0.04979374632239342,-0.053853996098041534,0.028272828087210655
1782811057509196000,2.451196044921875,-0.040245357900857925,-0.05328098684549332,0.02816910669207573
1782811057519268000,2.46126806640625,-0.03286334127187729,-0.058452047407627106,0.023630814626812935
1782811057529339100,2.471339111328125,-0.02275562845170498,-0.0655566081404686,0.016715366393327713
1782811057539410200,2.48141015625,-0.01662716269493103,-0.06977558881044388,0.014219451695680618
1782811057549482000,2.49148193359375,-0.0067701684311032295,-0.0688210129737854,0.017983892932534218
1782811057559553000,2.501552978515625,-0.005316615104675293,-0.06672962754964828,0.02275601215660572
1782811057569624000,2.5116240234375,-0.004072064068168402,-0.06702812016010284,0.02685229852795601
1782811057579696000,2.521696044921875,-0.002659789752215147,-0.06189301609992981,0.03184172883629799
1782811057589767200,2.53176708984375,-0.0072563509456813335,-0.051710620522499084,0.04045047610998154
1782811057599838200,2.541838134765625,-0.013000523671507835,-0.04651159793138504,0.041769806295633316
1782811057609909000,2.551908935546875,-0.019768789410591125,-0.04655219241976738,0.04477768763899803
1782811057619981000,2.56198095703125,-0.026936423033475876,-0.04837752506136894,0.04036909341812134
1782811057630052000,2.572052001953125,-0.03269769251346588,-0.05071423575282097,0.03346400335431099
1782811057640123100,2.582123046875,-0.03429718688130379,-0.049369871616363525,0.022263281047344208
1782811057650195200,2.5921953125,-0.04129539057612419,-0.039497073739767075,0.023188358172774315
1782811057660266200,2.602266357421875,-0.048174336552619934,-0.025124529376626015,0.022366240620613098
1782811057670337300,2.612337158203125,-0.059288181364536285,-0.01821410097181797,0.013156075030565262
1782811057680409000,2.6224091796875,-0.0650469958782196,-0.018879359588027,0.003269356209784746
1782811057690480000,2.632480224609375,-0.068596251308918,-0.018735473975539207,-0.010727379471063614
1782811057700551000,2.642551025390625,-0.07332496345043182,-0.013133515603840351,-0.026127375662326813
1782811057710622000,2.6526220703125,-0.07132460176944733,-0.01615854538977146,-0.03913310915231705
1782811057720694000,2.662694091796875,-0.07281943410634995,-0.013634402304887772,-0.047015268355607986
1782811057730765000,2.67276513671875,-0.07627861946821213,-0.011712132021784782,-0.04993382468819618
1782811057740836000,2.682836181640625,-0.07588553428649902,-0.004909619688987732,-0.04374703764915466
1782811057750908200,2.692908203125,-0.07002274692058563,-0.002286827191710472,-0.03909197077155113
1782811057760979200,2.702979248046875,-0.06807144731283188,-0.004917763639241457,-0.03252168744802475
1782811057771050200,2.71305029296875,-0.061579085886478424,-0.009374063462018967,-0.031167523935437202
1782811057781122300,2.723122314453125,-0.05441651493310928,-0.017597906291484833,-0.02760900929570198
1782811057791193300,2.733193359375,-0.05231080576777458,-0.014234250411391258,-0.02037656120955944
1782811057801264000,2.74326416015625,-0.04964950680732727,-0.005075105465948582,-0.005017045419663191
1782811057811336000,2.7533359375,-0.05026395246386528,0.006601880304515362,0.010133244097232819
1782811057821407000,2.763406982421875,-0.04124808683991432,0.011588649824261665,0.02770291641354561
1782811057831478000,2.77347802734375,-0.03243579715490341,0.003087586723268032,0.035128604620695114
1782811057841550000,2.783550048828125,-0.016385722905397415,-0.003222507191821933,0.04484488070011139
1782811057851621000,2.79362109375,-0.00644142460078001,-0.0008715465664863586,0.06471918523311615
1782811057861691600,2.803691650390625,0.0018335494678467512,0.004648387432098389,0.08599411696195602
1782811057871762700,2.8137626953125,0.005938173271715641,0.011466105468571186,0.10415689647197723
1782811057881834800,2.823834716796875,0.011023745872080326,0.01862574741244316,0.11188991367816925
1782811057891905800,2.83390576171875,0.01820613071322441,0.022639501839876175,0.11823232471942902
1782811057901976800,2.843976806640625,0.021046392619609833,0.025707731023430824,0.11841688305139542
1782811057912049000,2.854048828125,0.021747488528490067,0.02640032023191452,0.11832404136657715
1782811057922120000,2.864119873046875,0.017228104174137115,0.02676277793943882,0.11067677289247513
1782811057932191000,2.87419091796875,0.014990735799074173,0.010461905971169472,0.09663273394107819
1782811057942262800,2.8842626953125,0.004922389052808285,0.006459707394242287,0.0810425877571106
1782811057952333600,2.89433349609375,-0.0022809826768934727,0.007985778152942657,0.06223674491047859
1782811057962404600,2.904404541015625,-0.012394070625305176,0.0009832620853558183,0.04442179575562477
1782811057972476700,2.9144765625,-0.018735269084572792,-0.0033196862787008286,0.024049611762166023
1782811057982547700,2.924547607421875,-0.023689281195402145,-0.005891234613955021,0.01421908475458622
1782811057992618800,2.93461865234375,-0.027550917118787766,-0.013513254001736641,0.0065667107701301575
1782811058002689800,2.944689697265625,-0.03153873607516289,-0.025558197870850563,-0.0032920450903475285
1782811058012761900,2.954761962890625,-0.03796420246362686,-0.035762421786785126,-0.0032857321202754974
1782811058022833000,2.9648330078125,-0.04964349418878555,-0.0428197979927063,0.0011143425945192575
1782811058032904000,2.974904052734375,-0.054456938058137894,-0.037881940603256226,0.0196391548961401
1782811058042976000,2.98497607421875,-0.06706780940294266,-0.03581319376826286,0.041027266532182693
1782811058053046800,2.995046875,-0.08197197318077087,-0.03055191971361637,0.05729297921061516
1782811058063117800,3.005117919921875,-0.09512239694595337,-0.02343648485839367,0.07354279607534409
1782811058073189600,3.015189697265625,-0.11049555242061615,-0.01935417577624321,0.08572670072317123
1782811058083260700,3.0252607421875,-0.12225393950939178,-0.02014114148914814,0.09900921583175659
1782811058093331700,3.035331787109375,-0.1242695301771164,-0.021593738347291946,0.10450239479541779
1782811058103403800,3.04540380859375,-0.1310984045267105,-0.028017815202474594,0.12095221132040024
1782811058113474800,3.055474853515625,-0.14124856889247894,-0.02387823909521103,0.15279854834079742
1782811058123545900,3.0655458984375,-0.15098801255226135,-0.012045282870531082,0.1818310022354126
1782811058133618000,3.075617919921875,-0.15587981045246124,-0.004195333458483219,0.18968890607357025
1782811058143689000,3.08568896484375,-0.1516333967447281,-0.002419005148112774,0.1823689490556717
1782811058153759700,3.095759765625,-0.13814692199230194,-0.031370408833026886,0.15436430275440216
1782811058163830800,3.105830810546875,-0.11704830825328827,-0.077452152967453,0.10752996057271957
1782811058173902800,3.11590283203125,-0.0931253507733345,-0.13544057309627533,0.07066572457551956
1782811058183974000,3.125973876953125,-0.06588174402713776,-0.1533103883266449,0.08876749873161316
1782811058194045000,3.136044921875,-0.053486164659261703,-0.11690494418144226,0.13938969373703003
1782811058204116700,3.14611669921875,-0.05154765024781227,-0.11507081985473633,0.17469201982021332
1782811058214187800,3.156187744140625,-0.05220486596226692,-0.12904250621795654,0.1872430443763733
1782811058224258800,3.1662587890625,-0.061305418610572815,-0.1308515965938568,0.18275748193264008
1782811058234331000,3.176330810546875,-0.07511609047651291,-0.13731247186660767,0.1699388176202774
1782811058244401700,3.186401611328125,-0.08573038876056671,-0.13334490358829498,0.1469125896692276
1782811058254472700,3.19647265625,-0.08886955678462982,-0.13273900747299194,0.11734513193368912
1782811058264544800,3.206544677734375,-0.08591238409280777,-0.1335534006357193,0.07821184396743774
1782811058274615800,3.21661572265625,-0.07570742070674896,-0.13438549637794495,0.039293091744184494
1782811058284686800,3.226686767578125,-0.06482122093439102,-0.13912458717823029,0.0018868616316467524
1782811058294758000,3.2367578125,-0.048500943928956985,-0.14242663979530334,-0.0344085693359375
1782811058304830000,3.246829833984375,-0.028863325715065002,-0.13173696398735046,-0.05523022636771202
1782811058314901000,3.25690087890625,-0.01222990918904543,-0.1106034517288208,-0.06318585574626923
1782811058324972000,3.266971923828125,-0.0006595402956008911,-0.10452106595039368,-0.06678298860788345
1782811058335043800,3.2770439453125,-0.0033176965080201626,-0.10177874565124512,-0.06839708238840103
1782811058345114600,3.287114501953125,0.0014171379152685404,-0.1081538200378418,-0.05919346213340759
1782811058355185700,3.297185546875,0.001401529530994594,-0.10546645522117615,-0.034065261483192444
1782811058365257700,3.3072578125,0.004168820101767778,-0.09034263342618942,0.00002479669637978077
1782811058375328800,3.317328857421875,0.005509614944458008,-0.07818234711885452,0.037887249141931534
1782811058385399800,3.32739990234375,0.0011441613314673305,-0.06308168917894363,0.06795194000005722
1782811058395472000,3.337471923828125,-0.004588237497955561,-0.05309610813856125,0.09449973702430725
1782811058405543000,3.34754296875,-0.007169373333454132,-0.03881411254405975,0.11891213804483414
1782811058415614000,3.357614013671875,-0.009536022320389748,-0.03133451193571091,0.1315307766199112
1782811058425684700,3.367684814453125,-0.011512620374560356,-0.037346597760915756,0.12502335011959076
1782811058435756800,3.3777568359375,-0.012543578632175922,-0.048626743257045746,0.0998263731598854
1782811058445827800,3.387827880859375,-0.011977657675743103,-0.05389021337032318,0.06619011610746384
1782811058455899000,3.39789892578125,-0.015332971699535847,-0.053050365298986435,0.03264431655406952
1782811058465970700,3.407970703125,-0.01893569715321064,-0.042632877826690674,0.008959491737186909
1782811058476041700,3.418041748046875,-0.02174442447721958,-0.044492729008197784,-0.016726866364479065
1782811058486112800,3.42811279296875,-0.017993096262216568,-0.044975027441978455,-0.05009494349360466
1782811058496184800,3.438184814453125,-0.011710328981280327,-0.04312843084335327,-0.08699814975261688
1782811058506256000,3.448255859375,-0.011767853051424026,-0.04459982365369797,-0.1247151643037796
1782811058516327000,3.458326904296875,-0.013182205148041248,-0.04540697857737541,-0.15436755120754242
1782811058526399000,3.46839892578125,-0.014554264955222607,-0.046332161873579025,-0.17244908213615417
1782811058536469800,3.4784697265625,-0.012521100230515003,-0.04765789583325386,-0.18482665717601776
1782811058546540800,3.488540771484375,-0.0025020218454301357,-0.05144917219877243,-0.18752551078796387
1782811058556611800,3.49861181640625,0.001137719489634037,-0.06375578045845032,-0.18489284813404083
1782811058566683600,3.50868359375,0.005571349989622831,-0.06845998764038086,-0.16634154319763184
1782811058576754700,3.518754638671875,0.01083774957805872,-0.062460821121931076,-0.1297874003648758
1782811058586825700,3.52882568359375,0.01658644899725914,-0.036703526973724365,-0.07929333299398422
1782811058596897800,3.538897705078125,0.016110651195049286,-0.016014382243156433,-0.035806719213724136
1782811058606968800,3.54896875,0.014578001573681831,0.005209146998822689,-0.0007717721164226532
1782811058617040000,3.559039794921875,0.01438545435667038,0.017058350145816803,0.01843894086778164
1782811058627112000,3.56911181640625,0.007053185719996691,0.01776815764605999,0.0245650801807642
1782811058637182700,3.5791826171875,0.006974673829972744,0.005813677329570055,0.023470420390367508
1782811058647253800,3.589253662109375,0.008921445347368717,0.0008380935760214925,0.01334694679826498
1782811058657324800,3.59932470703125,0.009718159213662148,0.0035838629119098186,0.0069061703979969025
1782811058667396900,3.60939697265625,0.005476809106767178,0.006933586671948433,0.0012264468241482973
1782811058677468000,3.619468017578125,-0.004088309593498707,0.012451527640223503,-0.0012805359438061714
1782811058687539000,3.6295390625,-0.012049030512571335,0.02536998875439167,0.0008710319525562227
1782811058697610800,3.63961083984375,-0.022014202550053596,0.0315740741789341,-0.0018760147504508495
1782811058707681800,3.649681884765625,-0.02787502110004425,0.029327964410185814,-0.007110724225640297
1782811058717752600,3.659752685546875,-0.02981620281934738,0.02107894979417324,-0.0156878475099802
1782811058727824600,3.66982470703125,-0.03649327903985977,0.02293996699154377,-0.016413824632763863
1782811058737895700,3.679895751953125,-0.042805980890989304,0.026911072432994843,-0.013154308311641216
1782811058747966700,3.689966796875,-0.05077416077256203,0.03075454570353031,-0.009229874238371849
1782811058758038800,3.700038818359375,-0.054495714604854584,0.03340538963675499,-0.0029757802840322256
1782811058768109800,3.71010986328125,-0.05786594748497009,0.03367170691490173,0.007587115745991468
1782811058778180900,3.720180908203125,-0.0580802783370018,0.03706235811114311,0.013539180159568787
1782811058788252000,3.730251953125,-0.05325942486524582,0.037926554679870605,0.017024992033839226
1782811058798324000,3.740323974609375,-0.048964813351631165,0.029745854437351227,0.011988688260316849
1782811058808395000,3.75039501953125,-0.04623640328645706,0.02929365076124668,0.014551447704434395
1782811058818465800,3.7604658203125,-0.041335705667734146,0.035491976886987686,0.022324781864881516
1782811058828537600,3.77053759765625,-0.030597306787967682,0.03571168705821037,0.020879484713077545
1782811058838608600,3.780608642578125,-0.01774797961115837,0.04020894318819046,0.014216498471796513
1782811058848679700,3.7906796875,-0.0026931308675557375,0.03215900808572769,-0.00279204617254436
1782811058858751700,3.800751708984375,0.010620170272886753,0.013771502301096916,-0.024140985682606697
1782811058868822800,3.81082275390625,0.03030226193368435,-0.005800068844109774,-0.04863034933805466
1782811058878893800,3.820893798828125,0.04610162228345871,-0.006350252777338028,-0.06185052543878555
1782811058888966000,3.8309658203125,0.05314009264111519,0.004778298549354076,-0.06163214519619942
1782811058899036700,3.84103662109375,0.05766342207789421,0.00819375179708004,-0.05417880415916443
1782811058909107700,3.851107666015625,0.06195057928562164,0.015431424602866173,-0.05438173562288284
1782811058919178800,3.8611787109375,0.06696785986423492,0.012183320708572865,-0.06653120368719101
1782811058929250800,3.871250732421875,0.07556188106536865,-0.009233820252120495,-0.0861206129193306
1782811058939321900,3.88132177734375,0.08470595628023148,-0.010694590397179127,-0.09751284122467041
1782811058949393000,3.891392822265625,0.09177425503730774,0.005689709447324276,-0.10633029788732529
1782811058959464700,3.901464599609375,0.08566096425056458,-0.006561499089002609,-0.11593114584684372
1782811058969535700,3.91153564453125,0.07660088688135147,-0.016186164692044258,-0.11214759200811386
1782811058979606800,3.921606689453125,0.07081767916679382,-0.003273844951763749,-0.09051073342561722
1782811058989678800,3.931678955078125,0.06291501224040985,0.016407448798418045,-0.0640018954873085
1782811058999749600,3.94174951171875,0.05732647329568863,0.028730658814311028,-0.036049678921699524
1782811059009820700,3.951820556640625,0.04389934986829758,0.03680136799812317,-0.01499712374061346
1782811059019891700,3.9618916015625,0.03210628777742386,0.051256559789180756,-0.0008207503706216812
1782811059029963800,3.9719638671875,0.019569989293813705,0.04448627308011055,0.0078041632659733295
1782811059040034800,3.982034912109375,0.012693334370851517,0.042238980531692505,0.01551122684031725
1782811059050105900,3.99210595703125,0.0035325922071933746,0.03865916281938553,0.025859737768769264
1782811059060178000,4.002177978515625,0.00031027646036818624,0.04089554771780968,0.04246416315436363
1782811059070249000,4.0122490234375,-0.010086704976856709,0.03818657994270325,0.04707382991909981
1782811059080320000,4.022320068359375,-0.007032432593405247,0.03248902037739754,0.05033673346042633
1782811059090391800,4.032391845703125,-0.009741666726768017,0.03197716176509857,0.052775654941797256
1782811059100462600,4.042462646484375,-0.008654776029288769,0.02630309760570526,0.05852709338068962
1782811059110533600,4.05253369140625,-0.005641409195959568,0.023384004831314087,0.06012978404760361
1782811059120605700,4.062605712890625,-0.0039239367470145226,0.019874759018421173,0.051873184740543365
1782811059130676700,4.0726767578125,-0.0028054092545062304,0.015909045934677124,0.04306957498192787
1782811059140747800,4.082747802734375,-0.0017588952323421836,0.009351289831101894,0.03551764413714409
1782811059150818800,4.09281884765625,0.0015591371338814497,0.009245296008884907,0.0340861938893795
1782811059160891000,4.102890869140625,0.0033314719330519438,0.020388899371027946,0.03662167489528656
1782811059170962000,4.1129619140625,0.0028244061395525932,0.021473603323101997,0.03143330290913582
1782811059181032700,4.12303271484375,0.006209231447428465,0.015501556918025017,0.016745802015066147
1782811059191104800,4.133104736328125,0.009214075282216072,0.007980789989233017,-0.0014015119522809982
1782811059201175800,4.14317578125,0.01652647741138935,0.005643483716994524,-0.016243429854512215
1782811059211246800,4.153246826171875,0.015392769128084183,-0.00042905635200440884,-0.026643341407179832
1782811059221318700,4.163318603515625,0.018635274842381477,-0.004044035449624062,-0.03030518814921379
1782811059231389700,4.1733896484375,0.01305968128144741,-0.0037628058344125748,-0.029432736337184906
1782811059241460700,4.183460693359375,0.013061757199466228,-0.0005288566462695599,-0.01771581918001175
1782811059251531800,4.19353173828125,0.012884125113487244,-0.002427690662443638,-0.013151426799595356
1782811059261603800,4.203603759765625,0.006404014769941568,-0.012449017725884914,-0.009517931379377842
1782811059271675000,4.2136748046875,0.0033448415342718363,-0.01405277382582426,0.0021043699234724045
1782811059281745700,4.22374560546875,-0.0017544722650200129,-0.01011076383292675,0.010573754087090492
1782811059291817700,4.233817626953125,-0.011082193814218044,-0.0027732227463275194,0.01969774439930916
1782811059301888800,4.243888671875,-0.014616102911531925,-0.0025270695332437754,0.020526858046650887
1782811059311959800,4.253959716796875,-0.02280212938785553,-0.009345294907689095,0.020741242915391922
1782811059322031600,4.264031494140625,-0.02908841148018837,-0.011870120652019978,0.02084576152265072
1782811059332102700,4.2741025390625,-0.02842102386057377,-0.0158800408244133,0.016959410160779953
1782811059342173700,4.284173583984375,-0.028705395758152008,-0.0168555099517107,0.019483601674437523
1782811059352244700,4.29424462890625,-0.027786871418356895,-0.01852637715637684,0.020758191123604774
1782811059362316800,4.30431689453125,-0.02606114372611046,-0.0188938919454813,0.015757571905851364
1782811059372387600,4.3143876953125,-0.026827067136764526,-0.02658803202211857,0.016176488250494003
1782811059382458600,4.324458740234375,-0.02403533272445202,-0.02519046887755394,0.002000141190364957
1782811059392530700,4.33453076171875,-0.02024725265800953,-0.035693444311618805,-0.01192073430866003
1782811059402601700,4.344601806640625,-0.01831294409930706,-0.02591545693576336,-0.018548615276813507
1782811059412672800,4.3546728515625,-0.018995778635144234,-0.026975395157933235,-0.011201219633221626
1782811059422744800,4.364744873046875,-0.022366007789969444,-0.018636098131537437,-0.007300873752683401
1782811059432815900,4.37481591796875,-0.02077077329158783,-0.005987680982798338,0.0003256205527577549
1782811059442887000,4.384886962890625,-0.014565768651664257,-0.006754571571946144,-0.00007961652590893209
1782811059452958700,4.394958740234375,-0.012993439100682735,-0.00793381966650486,-0.0035401280038058758
1782811059463029800,4.40502978515625,-0.0079264547675848,-0.004113567993044853,-0.010957346297800541
1782811059473100500,4.4151005859375,-0.00815761648118496,-0.004290401935577393,-0.015753433108329773
1782811059483171600,4.425171630859375,-0.007712443359196186,-0.00956062600016594,-0.018175143748521805
1782811059493243600,4.43524365234375,-0.007800061255693436,-0.008616268634796143,-0.019008180126547813
1782811059503314700,4.445314697265625,-0.00997133832424879,-0.0015581350307911634,-0.013280834071338177
1782811059513385700,4.4553857421875,-0.009435243904590607,0.0061003174632787704,-0.01134338416159153
1782811059523457800,4.465457763671875,-0.012451325543224812,0.00905147846788168,-0.012331828474998474
1782811059533528800,4.47552880859375,-0.013853480108082294,0.013486174866557121,-0.014488722197711468
1782811059543599900,4.485599853515625,-0.018403489142656326,0.009256662800908089,-0.0257167536765337
1782811059553672000,4.495671875,-0.02144668437540531,0.0010999325895681977,-0.03223137930035591
1782811059563743000,4.505742919921875,-0.022030236199498177,-0.0003883098252117634,-0.034427493810653687
1782811059573813800,4.515813720703125,-0.023214276880025864,0.004069289192557335,-0.03504002094268799
1782811059583884800,4.525884765625,-0.02690776437520981,0.0042038289830088615,-0.036466095596551895
1782811059593956600,4.53595654296875,-0.024838753044605255,0.008005757816135883,-0.032565630972385406
1782811059604027600,4.546027587890625,-0.01982061192393303,0.005465604364871979,-0.02891765534877777
1782811059614098700,4.5560986328125,-0.017372367903590202,0.0022293308284133673,-0.022070402279496193
1782811059624170800,4.566170654296875,-0.018276510760188103,0.005241898819804192,-0.017578449100255966
1782811059634241800,4.57624169921875,-0.022248081862926483,0.010812965221703053,-0.007013955153524876
1782811059644312800,4.586312744140625,-0.023158084601163864,0.011187119409441948,0.006274129264056683
1782811059654385000,4.596385009765625,-0.024897128343582153,0.015348042361438274,0.01504018995910883
1782811059664455700,4.60645556640625,-0.024012906476855278,0.017736312001943588,0.020648492500185966
1782811059674526700,4.616526611328125,-0.022023258730769157,0.019941143691539764,0.02103731408715248
1782811059684597800,4.62659765625,-0.01667190156877041,0.013373909518122673,0.023298991844058037
1782811059694669800,4.636669921875,-0.01650225929915905,0.009778641164302826,0.02169523574411869
1782811059704740900,4.646740966796875,-0.013357387855648994,0.012725221924483776,0.021474240347743034
1782811059714812000,4.65681201171875,-0.010285165160894394,0.006501681171357632,0.016103442758321762
1782811059724883700,4.6668837890625,-0.007196961902081966,0.0006229120772331953,0.0049409749917685986
1782811059734954800,4.676954833984375,-0.008798587135970592,-0.00037284381687641144,-0.004673302639275789
1782811059745025800,4.68702587890625,-0.011301158927381039,0.0058891684748232365,-0.007560580503195524
1782811059755097900,4.697097900390625,-0.010912870056927204,0.009942499920725822,-0.004356530960649252
1782811059765168600,4.707168701171875,-0.01706210896372795,0.004925781395286322,0.00771678751334548
1782811059775239700,4.71723974609375,-0.019777201116085052,0.0025166859850287437,0.03614683076739311
1782811059785311700,4.727311767578125,-0.017652852460741997,0.009215819649398327,0.08072197437286377
1782811059795382800,4.7373828125,-0.013775289058685303,0.036859430372714996,0.12370193004608154
1782811059805453800,4.747453857421875,-0.011654987931251526,0.05459168925881386,0.15209241211414337
1782811059815524900,4.75752490234375,-0.01264834776520729,0.06230872869491577,0.16522711515426636
1782811059825597000,4.767596923828125,-0.01525302417576313,0.06067121401429176,0.15813998878002167
1782811059835668000,4.77766796875,-0.009510183706879616,0.04562382027506828,0.1418616771697998
1782811059845738800,4.78773876953125,-0.013007289730012417,0.031235413625836372,0.11226926743984222
1782811059855810600,4.797810546875,-0.012223787605762482,0.016613062471151352,0.07469259947538376
1782811059865881600,4.807881591796875,-0.014770512469112873,-0.006632385775446892,0.03717449679970741
1782811059875952600,4.81795263671875,-0.021298186853528023,-0.013209594413638115,0.009791075251996517
1782811059886024700,4.828024658203125,-0.021902671083807945,-0.00839137565344572,-0.0061212875880301
1782811059896095700,4.838095703125,-0.025631096214056015,-0.012536052614450455,-0.012900630943477154
1782811059906166800,4.848166748046875,-0.02913469634950161,-0.010426348075270653,-0.02397756464779377
1782811059916237600,4.858237548828125,-0.03039437346160412,0.00018981029279530048,-0.027458051219582558
1782811059926309600,4.8683095703125,-0.039873041212558746,-0.006564471870660782,-0.03101281262934208
1782811059936380700,4.878380615234375,-0.03939873352646828,-0.00533302640542388,-0.0276484414935112
1782811059946451700,4.88845166015625,-0.04298478364944458,0.010252635926008224,-0.005989436991512775
1782811059956523800,4.898523681640625,-0.04316694661974907,0.026626016944646835,0.010312571190297604
1782811059966594800,4.9085947265625,-0.041051384061574936,0.03379519656300545,0.020826682448387146
1782811059976665900,4.918665771484375,-0.040753111243247986,0.02954479306936264,0.01867857575416565
1782811059986737700,4.928737548828125,-0.03793676570057869,0.024300841614603996,0.015928398817777634
1782811059996808700,4.93880859375,-0.030857814475893974,0.013566171750426292,0.006802544463425875
1782811060006879500,4.94887939453125,-0.02816578932106495,-0.0023172725923359394,-0.009001814760267735
1782811060016950500,4.958950439453125,-0.02553112432360649,-0.010392509400844574,-0.020167117938399315
1782811060027022600,4.969022705078125,-0.02298508584499359,-0.016686545684933662,-0.01959550380706787
1782811060037093600,4.97909375,-0.014226747676730156,-0.01125742495059967,-0.010474175214767456
1782811060047164700,4.98916455078125,-0.006328025367110968,-0.01143273338675499,0.0017240939196199179
1782811060057236700,4.99923681640625,-0.003848089836537838,-0.020328756421804428,0.010788694955408573
1782811060067307800,5.009307861328125,-0.0001870956039056182,-0.021017497405409813,0.025226974859833717
1782811060077378800,5.01937890625,0.0005689758691005409,-0.014192349277436733,0.048016976565122604
1782811060087450600,5.02945068359375,0.006715019233524799,-0.0157184861600399,0.0597858726978302
1782811060097521700,5.039521728515625,0.013764672912657261,-0.017907071858644485,0.06913835555315018
1782811060107592700,5.0495927734375,0.018393192440271378,-0.02185673452913761,0.0699690729379654
1782811060117663700,5.059663818359375,0.020681647583842278,-0.026149217039346695,0.06695650517940521
1782811060127735600,5.069735595703125,0.0214830469340086,-0.030375991016626358,0.05658981204032898
1782811060137806600,5.079806640625,0.020316848531365395,-0.030920609831809998,0.0400899313390255
1782811060147877600,5.089877685546875,0.022207211703062057,-0.030576033517718315,0.020388344302773476
1782811060157949700,5.09994970703125,0.021159790456295013,-0.029993334785103798,0.0047670407220721245
1782811060168020700,5.110020751953125,0.021944358944892883,-0.0363369844853878,-0.01972392201423645
1782811060178091800,5.120091796875,0.024312973022460938,-0.038946084678173065,-0.03409300372004509
1782811060188163800,5.130163818359375,0.023113539442420006,-0.021089307963848114,-0.039108775556087494
1782811060198235000,5.14023486328125,0.016144847497344017,-0.01522928848862648,-0.035738810896873474
1782811060208305700,5.1503056640625,0.012855363078415394,-0.01957004703581333,-0.03384218364953995
1782811060218376700,5.160376708984375,0.010283282026648521,-0.021448640152812004,-0.029254619032144547
1782811060228448500,5.170448486328125,0.0069649298675358295,-0.021677453070878983,-0.017563657835125923
1782811060238519600,5.18051953125,0.001908918609842658,-0.016089873388409615,-0.0043325405567884445
1782811060248590600,5.190590576171875,-0.0029689804650843143,-0.0021754372864961624,0.008638602681457996
1782811060258662700,5.20066259765625,-0.009449782781302929,-0.0027280431240797043,0.011197101324796677
1782811060268733700,5.210733642578125,-0.012721743434667587,-0.013784327544271946,0.007960661314427853
1782811060278804700,5.2208046875,-0.014469841495156288,-0.01950506493449211,-0.002047498244792223
1782811060288876800,5.230876708984375,-0.01810596138238907,-0.021921688690781593,-0.011945744045078754
1782811060298947600,5.240947509765625,-0.020265253260731697,-0.02713269554078579,-0.02194751240313053
1782811060309018600,5.2510185546875,-0.024665115401148796,-0.03366600722074509,-0.029901357367634773
1782811060319089700,5.261089599609375,-0.024227824062108994,-0.03301965817809105,-0.033766672015190125
1782811060329161700,5.27116162109375,-0.020611731335520744,-0.03165491297841072,-0.03769521415233612
1782811060339232800,5.281232666015625,-0.022638661786913872,-0.030054617673158646,-0.0358768105506897
1782811060349303800,5.2913037109375,-0.026559580117464066,-0.03833535313606262,-0.040927402675151825
1782811060359375600,5.301375732421875,-0.025393914431333542,-0.053694602102041245,-0.042238473892211914
1782811060369446700,5.31144677734375,-0.029477179050445557,-0.054668791592121124,-0.03436829894781113
1782811060379517700,5.321517578125,-0.029886240139603615,-0.04472827538847923,-0.022316962480545044
1782811060389589800,5.33158984375,-0.02802559919655323,-0.03494365140795708,-0.009639347903430462
1782811060399660500,5.34166064453125,-0.03499136120080948,-0.03134012967348099,0.004172870423644781
1782811060409731600,5.351731689453125,-0.03991757333278656,-0.029712043702602386,0.015436275862157345
1782811060419802600,5.361802734375,-0.045358676463365555,-0.022713521495461464,0.02151920087635517
1782811060429874700,5.371874755859375,-0.04449506476521492,-0.01650121435523033,0.026298994198441505
1782811060439945700,5.38194580078125,-0.04503675177693367,-0.00992853194475174,0.03294171765446663
1782811060450016800,5.392016845703125,-0.04862158000469208,-0.005349711049348116,0.03479931876063347
1782811060460088800,5.4020888671875,-0.04831531643867493,-0.007399279624223709,0.037542641162872314
1782811060470160000,5.412159912109375,-0.046518005430698395,-0.0015054557006806135,0.045300137251615524
1782811060480230700,5.422230712890625,-0.044360045343637466,0.011826861649751663,0.05305712670087814
1782811060490302500,5.432302490234375,-0.04483003914356232,0.01380738615989685,0.046682506799697876
1782811060500373500,5.44237353515625,-0.04594616964459419,0.00002765771932899952,0.031028714030981064
1782811060510444500,5.452444580078125,-0.04048759117722511,-0.012411179021000862,0.009808652102947235
1782811060520515600,5.462515625,-0.0392707958817482,-0.022459818050265312,0.006250136066228151
1782811060530587600,5.472587646484375,-0.04006846621632576,-0.008560176007449627,0.003699700115248561
1782811060540658700,5.48265869140625,-0.04007592052221298,0.004643776919692755,0.00827154889702797
1782811060550729700,5.492729736328125,-0.0397726409137249,0.016567381098866463,0.008315052837133408
1782811060560801800,5.5028017578125,-0.03546657785773277,0.01950591243803501,-0.004581037908792496
1782811060570872800,5.512872802734375,-0.02841830812394619,0.012303764931857586,-0.02640235424041748
1782811060580943600,5.522943603515625,-0.021658141165971756,-0.002011791104450822,-0.05444144457578659
1782811060591014700,5.5330146484375,-0.018468258902430534,-0.011463280767202377,-0.07543187588453293
1782811060601086700,5.543086669921875,-0.015231720171868801,-0.02315961942076683,-0.08631701022386551
1782811060611157800,5.55315771484375,-0.01423319336026907,-0.013454699888825417,-0.07761131227016449
1782811060621228800,5.563228759765625,-0.011595598421990871,-0.004772794898599386,-0.060299959033727646
1782811060631300600,5.573300537109375,-0.0153901232406497,-0.0012383228167891502,-0.04343529790639877
1782811060641371600,5.58337158203125,-0.018940916284918785,0.005705337040126324,-0.012415861710906029
1782811060651442700,5.593442626953125,-0.023793622851371765,0.021664336323738098,0.014559293165802956
1782811060661514800,5.6035146484375,-0.030220627784729004,0.018517544493079185,0.031281813979148865
1782811060671585800,5.613585693359375,-0.03376167640089989,0.01703682169318199,0.03462861105799675
1782811060681656600,5.623656494140625,-0.03640139847993851,0.009638292714953423,0.03053266927599907
1782811060691727600,5.6337275390625,-0.038418956100940704,-0.0038846307434141636,0.014362558722496033
1782811060701799700,5.643799560546875,-0.034336596727371216,-0.008228778839111328,-0.0013002901105210185
1782811060711870700,5.65387060546875,-0.030692381784319878,-0.010859401896595955,-0.01993783935904503
1782811060721941800,5.663941650390625,-0.033803753554821014,-0.01504482515156269,-0.03443795070052147
1782811060732013800,5.674013916015625,-0.03436733037233353,-0.016684316098690033,-0.04191695526242256
1782811060742084900,5.6840849609375,-0.03414122760295868,-0.00830015353858471,-0.034765034914016724
1782811060752156000,5.694156005859375,-0.033221639692783356,0.0044502136297523975,-0.022045332938432693
1782811060762227700,5.704227783203125,-0.03229619190096855,0.005543973762542009,-0.019635971635580063
1782811060772298500,5.714298583984375,-0.036357298493385315,0.010330651886761189,-0.01935773715376854
1782811060782369500,5.72436962890625,-0.03782523423433304,0.01535976491868496,-0.01373553741723299
1782811060792440600,5.734440673828125,-0.04096398130059242,0.024089770391583443,-0.00912117026746273
1782811060802512600,5.7445126953125,-0.03896448016166687,0.01432795263826847,-0.0106266550719738
1782811060812583700,5.754583740234375,-0.04164031520485878,0.012297509238123894,-0.009260766208171844
1782811060822654700,5.76465478515625,-0.041505828499794006,0.015606218948960304,-0.014606263488531113
1782811060832726800,5.774726806640625,-0.03855222463607788,0.0206587016582489,-0.01874462701380253
1782811060842797800,5.7847978515625,-0.03112812526524067,0.0221553985029459,-0.024700254201889038
1782811060852868900,5.794868896484375,-0.023645445704460144,0.04463689401745796,-0.0328935943543911
1782811060862940700,5.804940673828125,-0.017581161111593246,0.11937877535820007,-0.018599076196551323
1782811060873011700,5.81501171875,-0.049306757748126984,0.08948579430580139,-0.053674012422561646
1782811060883082800,5.825082763671875,-0.05162690579891205,-0.01745609939098358,-0.11636696010828018
1782811060893153800,5.83515380859375,-0.05404228717088699,-0.03383372351527214,-0.09513891488313675
1782811060903225600,5.8452255859375,-0.07592547684907913,-0.020200472325086594,-0.021507298573851585
1782811060913296600,5.855296630859375,-0.09131243079900742,-0.002477322006598115,0.03642881289124489
1782811060923367700,5.86536767578125,-0.1023634821176529,-0.006808953359723091,0.07483293116092682
1782811060933439700,5.875439697265625,-0.12055548280477524,0.007148372940719128,0.1273786425590515
1782811060943510800,5.8855107421875,-0.12268094718456268,0.025993699207901955,0.15731443464756012
1782811060953581800,5.895581787109375,-0.11062987893819809,0.024110808968544006,0.14617334306240082
1782811060963654000,5.90565380859375,-0.09169080853462219,0.04776633530855179,0.13719023764133453
1782811060973725000,5.915724853515625,-0.08479049801826477,0.03796808049082756,0.08635373413562775
