time,seconds_elapsed,z,y,x
1782811069584404500,0.076404541015625,0.25963527104854583,0.07013005954176187,-0.20579463099595158
1782811069594476500,0.0864765625,0.34545009871721266,0.16412673236131667,-0.23149350120220333
1782811069604547300,0.09654736328125,0.43576632945835586,0.20471622464209793,-0.2189130922988057
1782811069614618400,0.106618408203125,0.5530658441931009,0.18762129745632408,-0.23295385607834904
1782811069624690200,0.116690185546875,0.7099778228700161,0.1178252921745181,-0.3243248565694317
1782811069634761200,0.12676123046875,0.8238292429774999,0.03581891687810421,-0.36221528249196705
1782811069644832300,0.136832275390625,0.8562637781143188,-0.01539952144473791,-0.4136088581860065
1782811069654904300,0.146904296875,0.8551169461667537,0.046153556148707864,-0.49350978563576936
1782811069664975400,0.156975341796875,0.81258304181993,0.23546967482417822,-0.5268433885041623
1782811069675046400,0.16704638671875,0.7479536255210638,0.39863486867696046,-0.6260981279823928
1782811069685118500,0.177118408203125,0.734001088014245,0.5757838719576597,-0.6770953978352249
1782811069695189500,0.187189453125,0.8521674487113952,0.737902771627903,-0.7474810395732522
1782811069705260300,0.19726025390625,0.9632453124523163,0.749126176431775,-0.820766275210306
1782811069715332400,0.207332275390625,1.0056137971043586,0.7162234392613173,-0.9411576915457844
1782811069725403400,0.2174033203125,1.0047761772364376,0.7267997783333062,-0.9888106924720108
1782811069735474400,0.227474365234375,1.0923276194393634,0.7718640779405832,-1.0382279996570198
1782811069745546200,0.237546142578125,1.1649357595324517,0.8951350683003664,-1.1156797073237597
1782811069755617300,0.2476171875,1.2372498851150273,1.1735057272180913,-1.1968445172294975
1782811069765688300,0.257688232421875,1.381896840980649,1.3771461393222213,-1.2718759389467538
1782811069775760400,0.267760498046875,1.408874279755354,1.6022028489425777,-1.1735448901847003
1782811069785831400,0.27783154296875,1.3342267427891492,1.7855618127793074,-1.012032724235952
1782811069795902200,0.287902099609375,1.3564929351329802,1.8400424677684901,-0.9205066793136298
1782811069805974300,0.297974365234375,1.5000217006236314,1.774463787920773,-1.011791608956456
1782811069816045300,0.30804541015625,1.5746189687073229,1.8504989798530935,-1.1801472110591829
1782811069826116400,0.318116455078125,1.7440870620965956,1.9829367347478866,-1.191821209174767
1782811069836188400,0.3281884765625,2.0727724884957075,2.217197618304193,-0.8508516168724745
1782811069846259500,0.338259521484375,2.481431030797958,2.38670341335535,-0.4816017230359837
1782811069856330500,0.34833056640625,2.417825696849823,2.6177687157407403,-0.4006051458366215
1782811069866402000,0.358402099609375,2.1058108347445725,2.812666141679883,-0.8785870344076305
1782811069876473000,0.36847314453125,1.6005980440944432,2.806061921109259,-1.1414476972434668
1782811069886544100,0.378544189453125,1.4261574229896068,1.9112150221005082,-1.3393034615315496
1782811069896616200,0.3886162109375,1.5592133097827434,1.4156579485461116,-1.4822196480818093
1782811069906687200,0.398687255859375,1.9511592022150754,1.3360352535158395,-1.0165106733676046
1782811069916758000,0.408758056640625,2.140029330688715,1.104836972400546,-0.4322355980489403
1782811069926830000,0.418830078125,1.5001204848229883,0.9777116447001695,-0.38529129338134077
1782811069936901000,0.428901123046875,0.5978776303440332,0.8038102450385689,-0.6549129382520914
1782811069946973200,0.43897314453125,0.17344225771725177,0.21139292592704295,-1.1327305761720985
1782811069957044200,0.449044189453125,0.3267693636447191,-0.17262188124507666,-1.2149180801890789
1782811069967115300,0.459115234375,0.5322592030078173,-0.17696137175410984,-0.9229147633686661
1782811069977187000,0.46918701171875,0.48208676660656924,-0.06922434287369252,-0.5805325277894735
1782811069987258000,0.479258056640625,0.16335399442315102,-0.13758359335064888,-0.39798093481287355
1782811069997329200,0.4893291015625,-0.49244566353559494,-0.28845483055859805,-0.4578131068978458
1782811070007401200,0.499401123046875,-1.178301437062025,-0.2622343476310372,-0.6600703940805047
1782811070017472300,0.50947216796875,-1.6533739409923554,-0.19500527022778988,-0.9139926212444901
1782811070027543000,0.51954296875,-1.8420242892354726,-0.3412617071166634,-1.1484485889814793
1782811070037615000,0.529614990234375,-1.8575982904642818,-0.5652265298470854,-1.230904753872007
1782811070047686100,0.53968603515625,-1.658984182089567,-0.7606123238250613,-1.1353789717890321
1782811070057757200,0.549757080078125,-1.3400655319452286,-0.864519857545197,-0.845280319546163
1782811070067829200,0.559829345703125,-1.0908405957520007,-0.955037748338282,-0.531053042088449
1782811070077900300,0.569900390625,-0.8535024967074394,-0.8478042850658297,-0.2352253446742892
1782811070087971300,0.579971435546875,-0.9309522316128015,-0.37370033390671015,0.13969780902564524
1782811070098043100,0.590043212890625,-1.2440852840930223,-0.03160597535818815,0.4114098868370056
1782811070108114200,0.6001142578125,-1.5568851590961217,0.09009148207455873,0.652516983026266
1782811070118185000,0.61018505859375,-1.6972423088133335,0.1019296577759087,0.9044162529952824
1782811070128257000,0.620257080078125,-1.8490379673898218,-0.13190204058289526,1.0227855889186261
1782811070138328000,0.630328125,-2.0469979957699773,-0.31490020828321574,1.1089460151545703
1782811070148399000,0.640399169921875,-2.141676513373852,-0.3098117991030216,1.1556295865267514
1782811070158471200,0.65047119140625,-2.1454840889632703,-0.1790855243012309,1.1736718775652348
1782811070168542200,0.660542236328125,-2.160413362547755,-0.04003974944353103,1.300232557120174
1782811070178613200,0.67061328125,-2.140799730539322,0.027255378933250904,1.490507145564258
1782811070188685000,0.68068505859375,-2.1373165645986796,-0.15026757222637532,1.6028377858452498
1782811070198756000,0.690756103515625,-2.047226543828845,-0.5093291399277746,1.6513045873723924
1782811070208827100,0.7008271484375,-1.9499615168631075,-0.8525123166263103,1.598460593674332
1782811070218899200,0.710899169921875,-1.7935984042406081,-0.9952872680749744,1.5426590653449297
1782811070228970000,0.720969970703125,-1.6310007811427116,-1.012516269969195,1.483068666126579
1782811070239041000,0.731041015625,-1.5592618250995873,-0.8970412672478705,1.4627626679398118
1782811070249113000,0.741113037109375,-1.5604495735794306,-0.6680036712978035,1.5178955032274126
1782811070259184000,0.75118408203125,-1.6137182224303483,-0.49423539649657905,1.5860574775665996
1782811070269255200,0.761255126953125,-1.7826666758596896,-0.4964862441632896,1.555425461807102
1782811070279327200,0.7713271484375,-1.9210253452360628,-0.6301599705938249,1.4670067352503537
1782811070289398300,0.781398193359375,-1.890450174230337,-0.8194790849439799,1.3359908298522234
1782811070299469300,0.79146923828125,-1.7656991744458674,-0.9554580926422029,1.2652299250610173
1782811070309541000,0.801541015625,-1.5665531511515378,-0.9605518355846404,1.2405496573127806
1782811070319612200,0.811612060546875,-1.34964876832664,-0.8260498416364193,1.248478696746379
1782811070329683000,0.821682861328125,-1.1650146699875592,-0.6799464033521712,1.2408549238696693
1782811070339755000,0.831755126953125,-0.9944979443281888,-0.5867076362278312,1.2577967063203452
1782811070349826000,0.841825927734375,-0.8931284046530723,-0.5595835555240511,1.2026206164129079
1782811070359897000,0.85189697265625,-0.8081389218926429,-0.6559405277341603,1.079947591946274
1782811070369969200,0.86196923828125,-0.8583511057823896,-0.8286303596489131,0.8716429874233901
1782811070380040200,0.872040283203125,-0.9530424828678369,-0.8739765449374913,0.7194491233095526
1782811070390112300,0.8821123046875,-1.0442939486324787,-0.8053861160531639,0.6225225345179438
1782811070400183300,0.892183349609375,-1.0624258176505565,-0.6902098040174692,0.5483294633209705
1782811070410254300,0.90225439453125,-0.9374795875549315,-0.5460916943315416,0.5283892297066748
1782811070420326100,0.912326171875,-0.7555407196491957,-0.6529674302075058,0.38460648945495485
1782811070430397000,0.92239697265625,-0.4364496355473995,-0.748215710523352,0.19072350125536322
1782811070440468000,0.932468017578125,-0.18674071522951124,-0.9977139107000083,-0.0734820003181696
1782811070450540000,0.9425400390625,-0.16612229009270668,-1.2820013193808495,-0.26836817421093584
1782811070460611000,0.952611083984375,-0.08708090208172797,-1.4010773422688245,-0.4388185566358268
1782811070470682000,0.96268212890625,-0.028676059386134146,-1.3725880376264452,-0.521963872834295
1782811070480754200,0.972754150390625,-0.03109305739998817,-1.2269842194274068,-0.4604721700392663
1782811070490825200,0.9828251953125,-0.014047230052947998,-1.0686792520221322,-0.368277139814198
1782811070500896300,0.992896240234375,-0.008717559462785721,-0.8630286691393703,-0.24769056623280047
1782811070510968300,1.00296826171875,-0.029521278038620948,-0.687145667206496,-0.17214987981915472
1782811070521039400,1.013039306640625,-0.06242986042797565,-0.561335075366497,-0.15030673519298435
1782811070531110100,1.023110107421875,-0.15885376039445398,-0.4185609276354313,-0.1493092485882342
1782811070541182000,1.033181884765625,-0.28165713324248787,-0.2646686986384913,-0.11466551296934485
1782811070551253000,1.0432529296875,-0.2943412582486868,-0.11957319528777152,-0.11842121224105358
1782811070561324000,1.053323974609375,-0.1827338176757097,-0.016744652443379162,-0.09625672670602797
1782811070571396000,1.06339599609375,-0.10336275931894778,-0.028643764551728963,-0.11094649244621395
1782811070581467100,1.073467041015625,-0.19251696054339407,-0.08785890071690082,-0.0961319312825799
1782811070591538200,1.0835380859375,-0.40432781962156294,-0.14699983913470058,-0.036192134104669094
1782811070601610200,1.0936103515625,-0.6497124469995498,-0.13435977246593683,0.023416385292261838
1782811070611681300,1.103681396484375,-0.8024427560776471,0.0682055577525869,0.0013273030810058116
1782811070621752300,1.11375244140625,-0.7201724691480398,0.26931488047651947,-0.04336575206108391
1782811070631824100,1.12382421875,-0.5743810194224119,0.4036702324956655,-0.07378580557033419
1782811070641895200,1.133895263671875,-0.4490764774084091,0.43715237698927517,-0.08213014780655503
1782811070651966200,1.14396630859375,-0.35540742910802364,0.3922791429746896,-0.024476781065389513
1782811070662038000,1.1540380859375,-0.3045657151430845,0.33470066810064014,-0.018615633947029708
1782811070672109000,1.164109130859375,-0.29102585009038445,0.1892205128138885,-0.11978007950410247
1782811070682180000,1.17418017578125,-0.25106851823329923,0.054837414271291345,-0.22040070050805805
1782811070692252200,1.184252197265625,-0.10618716908991337,-0.01790664200252504,-0.2889111960239708
1782811070702323200,1.1943232421875,0.12594751609265803,0.010094327708706259,-0.31016455806344745
1782811070712394200,1.204394287109375,0.376949398830533,-0.010592669152282177,-0.34054011484384533
1782811070722466300,1.21446630859375,0.4484907864749431,-0.13369859601031056,-0.41191549827158447
1782811070732537000,1.224537109375,0.4003267672866583,-0.22152258067745714,-0.4076680699601769
1782811070742608100,1.234608154296875,0.4059282405555248,-0.1608274168212898,-0.3572290185119957
1782811070752680000,1.244679931640625,0.49335927124917506,-0.06568794890847057,-0.29992819153554734
1782811070762751000,1.2547509765625,0.6116086340546608,0.035806093929149206,-0.19022709604054688
1782811070772822000,1.264822021484375,0.6508633706003427,0.042089795574825256,-0.08116649040617048
1782811070782894000,1.27489404296875,0.6470698235362767,0.0012346015625633298,0.0007149433363229036
1782811070792965000,1.284965087890625,0.611576485350728,-0.03260691429534927,0.054252399191260334
1782811070803036200,1.2950361328125,0.5527689070731401,-0.08440972837740555,0.02975954377390444
1782811070813108200,1.305108154296875,0.4836439329206943,-0.09724204794894903,0.008754019015654922
1782811070823179300,1.31517919921875,0.4173357697546482,0.005668090497981756,0.06373787428662181
1782811070833250000,1.32525,0.38176235207021236,0.10687779996888712,0.13852503891922532
1782811070843322000,1.335322021484375,0.29348376463651654,0.1308242187509313,0.14166019513979553
1782811070853393200,1.34539306640625,0.16566519397497176,0.09137690050890669,0.10270794867202639
1782811070863464200,1.355464111328125,0.04493161313831806,-0.02137055867835879,0.03467741869278252
1782811070873536000,1.365535888671875,-0.16862053664922713,-0.03852960060890764,0.021442527936026454
1782811070883607000,1.37560693359375,-0.3867091608226299,-0.010980353295616805,0.030706834561377763
1782811070893679000,1.38567919921875,-0.45567046884596346,0.006839673294313252,-0.04399878926761448
1782811070903750100,1.395750244140625,-0.37927871856093404,-0.005445241527538746,-0.14295505725592375
1782811070913821200,1.4058212890625,-0.30373452501595016,-0.06685491946176625,-0.18546806494519114
1782811070923893200,1.415893310546875,-0.30197511412799355,-0.13303536459491588,-0.2005237413883209
1782811070933964300,1.42596435546875,-0.3687403734117746,-0.1899856154348701,-0.18643669078163802
1782811070944035000,1.43603515625,-0.4451373843938112,-0.16957696059122682,-0.17115509662814438
1782811070954107100,1.446107177734375,-0.4444792127460241,-0.14829495697915554,-0.15561908932216464
1782811070964178200,1.45617822265625,-0.39045477709174153,-0.11980004457989707,-0.13299772686511277
1782811070974249200,1.466249267578125,-0.3032236528843641,-0.11370602028742433,-0.14207615552954375
1782811070984321000,1.476321044921875,-0.2036222919255495,-0.1336612505414523,-0.14629201965890823
1782811070994392000,1.48639208984375,-0.05777998879551887,-0.1450320461930707,-0.14704269189573824
1782811071004463000,1.496463134765625,0.09150456374287605,-0.14061057648900896,-0.14180676400363446
1782811071014535200,1.50653515625,0.2990688712924719,-0.1348955963756889,-0.12951653368584812
1782811071024606200,1.516606201171875,0.5010509947955608,-0.11999456250499933,-0.09938011942356824
1782811071034677200,1.52667724609375,0.6027618952542543,-0.14818935944652184,-0.057188306512683626
1782811071044749300,1.536749267578125,0.6038824237167835,-0.16921663937885315,-0.02487221012376249
1782811071054820000,1.546820068359375,0.5214391183078289,-0.1669383009170182,-0.004834726680070162
1782811071064891100,1.55689111328125,0.3432663249373436,-0.16777219445789232,0.011360913578420877
1782811071074963200,1.566963134765625,0.14904665212929247,-0.14744849621765316,-0.01236081133596599
1782811071085034200,1.5770341796875,0.027454408636689184,-0.12264620952494441,-0.05674238937608898
1782811071095105300,1.587105224609375,-0.03687456341087818,-0.13253241090830414,-0.07727737401314079
1782811071105177000,1.597177001953125,-0.10773439853191374,-0.1004843178058043,-0.030485154634714125
1782811071115248000,1.607248046875,-0.1753974834382534,-0.06802136029209942,0.055011693125963206
1782811071125319200,1.617319091796875,-0.1531587636232376,-0.0761149791702628,0.07488835998475551
1782811071135391200,1.62739111328125,-0.050553544673323625,-0.04882098525967449,0.0943146527275443
1782811071145462000,1.6374619140625,0.06997720706760883,-0.05509661319674924,0.13943915808945895
1782811071155533000,1.647532958984375,0.1781470744073391,-0.06956820614160969,0.1920835375621915
1782811071165605000,1.657605224609375,0.2279945166379213,-0.06580859787976369,0.22687881048098205
1782811071175676200,1.66767626953125,0.16623919447064398,-0.09987016796283424,0.2734969154015183
1782811071185747200,1.677747314453125,-0.04260229340791702,-0.09420414155777543,0.2752804378174245
1782811071195819300,1.6878193359375,-0.24219664499163626,-0.053715442770347,0.23698650912791488
1782811071205890300,1.697890380859375,-0.36823593102097507,-0.011086151757650077,0.20779080978184938
1782811071215961300,1.70796142578125,-0.36946225794553755,0.011325056813750416,0.1405906662121415
1782811071226033200,1.718033203125,-0.3794301097303629,-0.05456486267391592,0.05782017467543482
1782811071236104200,1.728104248046875,-0.34791152039468287,-0.10362842451781033,-0.03682195644080639
1782811071246175000,1.738175048828125,-0.28608897821009155,-0.07570890085371211,-0.05615019563660025
1782811071256247000,1.7482470703125,-0.13861293639838695,-0.052431576972268516,-0.061561114769428965
1782811071266318000,1.758318115234375,0.03426350412964821,-0.048801842167787254,-0.06970204338803887
1782811071276389000,1.76838916015625,0.20343699848651886,-0.02859864676836878,-0.05929536179453134
1782811071286461200,1.778461181640625,0.336881592336297,-0.021273491512052715,-0.010133271479606628
1782811071296532200,1.7885322265625,0.424245987534523,-0.02343340949229896,0.014165887996554374
1782811071306603300,1.798603271484375,0.45713937235474583,-0.062258157122880214,0.01778831627741456
1782811071316675000,1.808675048828125,0.4135486524313688,-0.0620909655961208,0.0156843297354877
1782811071326746000,1.81874609375,0.27430910856723784,-0.07532855976661666,-0.036602468471229076
1782811071336818200,1.828818115234375,0.09758300687372684,-0.09620185471363366,-0.10184534049332142
1782811071346889200,1.83888916015625,-0.04515080884695053,-0.09914240167755634,-0.15725640820041298
1782811071356960000,1.8489599609375,-0.18731705381274222,-0.08972328808298334,-0.14764993707388638
1782811071367032000,1.859031982421875,-0.246443781042099,-0.06323872912544756,-0.11444514821693301
1782811071377103000,1.86910302734375,-0.2441775896757841,-0.050590205155592406,-0.06471811749562621
1782811071387174100,1.879174072265625,-0.1251134033560753,-0.012250829889159648,-0.0037098143033683297
1782811071397246200,1.88924609375,0.04064589864313602,0.007464508928079158,0.03883724178597331
1782811071407317200,1.899317138671875,0.16811784782409667,-0.008233484006579965,0.06419643170908093
1782811071417388300,1.90938818359375,0.2492880645573139,-0.024934589569177476,0.0914252148963511
1782811071427460000,1.919460205078125,0.24396307014226912,-0.07659876236552372,0.08800605410262942
1782811071437531100,1.92953125,0.1755184794694185,-0.11502203478943555,0.03668663962334394
1782811071447602000,1.939601806640625,0.04888648824393749,-0.1233732086252421,0.016984744809567926
1782811071457674200,1.94967431640625,-0.07249708093404769,-0.14569040050394833,-0.0008943184912204742
1782811071467745000,1.9597451171875,-0.1191127016365528,-0.12666017614034936,-0.0010237900897860526
1782811071477816000,1.969816162109375,-0.09093231681287288,-0.12342302085002883,0.052681058221310376
1782811071487888100,1.97988818359375,-0.007255670216679572,-0.08799944169875235,0.11986695406995714
1782811071497959200,1.989959228515625,0.035956279522180556,-0.06730382313989103,0.18429953262247145
1782811071508030200,2.0000302734375,0.05100187296271324,-0.07406458597909658,0.21245361396111548
1782811071518102300,2.010102294921875,-0.0591296498388052,-0.11627661969410255,0.17902122689336536
1782811071528173300,2.02017333984375,-0.1935141548871994,-0.16219395593414082,0.1256299015108496
1782811071538244400,2.030244384765625,-0.2395902618855238,-0.12985126379923895,0.08378536766767501
1782811071548316200,2.040316162109375,-0.1710053859591484,-0.09891228271611034,0.10624671725742518
1782811071558387000,2.050386962890625,0.023963059389591215,-0.1210733889839612,0.10662592583335935
1782811071568458000,2.0604580078125,0.13074585628509522,-0.05460587053773924,0.17593173644542692
1782811071578530000,2.070530029296875,0.05935293720066547,-0.09477925629829988,0.20836765982173383
1782811071588601000,2.08060107421875,-0.10501169556975364,-0.07146640444574877,0.25476466933749614
1782811071598672100,2.090672119140625,-0.2341647297054529,-0.09095242801913991,0.2242051342923194
1782811071608744200,2.100744140625,-0.2692225990831852,-0.061940944399870926,0.19753420418351889
1782811071618815200,2.110815185546875,-0.19294950674176214,-0.020039894596487282,0.18729484198093413
1782811071628886300,2.12088623046875,-0.14288286880254744,0.016011716792639345,0.19284816525913773
1782811071638958300,2.130958251953125,-0.13268880704641342,0.03344983139289543,0.19495733943283558
1782811071649029400,2.141029296875,-0.14215163191854954,0.05850570925418287,0.17680895767137408
1782811071659100200,2.15110009765625,-0.19662147325277327,0.06995176209909841,0.1364637955404818
1782811071669172000,2.161171875,-0.23535656983852385,0.07339074183814227,0.08087883257120847
1782811071679243000,2.171242919921875,-0.20017069016695022,0.04450946046980098,-0.03137099755853414
1782811071689314000,2.18131396484375,-0.10059037199616432,-0.014993132600933313,-0.10119272180348635
1782811071699386000,2.19138623046875,0.0594476297467947,-0.05943895324999466,-0.1508107391923666
1782811071709457200,2.20145703125,0.1780892067402601,-0.05629168646652251,-0.18767865366674957
1782811071719529200,2.211529296875,0.3160428024470806,-0.08907046846374869,-0.22173260669894515
1782811071729600300,2.221600341796875,0.3588198679000139,-0.1866390449533239,-0.29461649499349296
1782811071739671300,2.23167138671875,0.3147135996699333,-0.26798213403541593,-0.362313701365143
1782811071749743000,2.2417431640625,0.24440555321276186,-0.27482699496150015,-0.39312012384347617
1782811071759814100,2.251814208984375,0.17092647550404072,-0.2548568411329761,-0.3839126619718969
1782811071769885200,2.26188525390625,0.17169161465764043,-0.21046806616708635,-0.38164500930085776
1782811071779957000,2.27195703125,0.2992553337752819,-0.1851404038934037,-0.3653296881854534
1782811071790028000,2.282028076171875,0.3918026845693588,-0.1770291397606954,-0.3101435152754187
1782811071800099000,2.29209912109375,0.3979483477175236,-0.17108760261619463,-0.26878230796977876
1782811071810171100,2.302171142578125,0.285278830870986,-0.18935599402813239,-0.2644770119912922
1782811071820242200,2.3122421875,0.06304653102159499,-0.17170040075229479,-0.28273645291179417
1782811071830313200,2.322313232421875,-0.16927870829701422,-0.1099777022129856,-0.22083324670642612
1782811071840385300,2.33238525390625,-0.3497428274750709,-0.06113174690883606,-0.16738164250403642
1782811071850456300,2.342456298828125,-0.40416649158000945,-0.060808670700620855,-0.1367109021693468
1782811071860527000,2.352527099609375,-0.4580605788528919,-0.062018137821927666,-0.13667612311691044
1782811071870599000,2.362598876953125,-0.6417851611316203,-0.060717978476174175,-0.16503800198733806
1782811071880670000,2.372669921875,-0.6543506281942129,-0.08179748178608715,-0.14870485295429825
1782811071890741000,2.382740966796875,-0.5085924962162971,-0.04548051572535187,-0.09296046163961291
1782811071900813000,2.39281298828125,-0.27906828579306603,0.005292297721840441,-0.0019818214669823646
1782811071910884000,2.402884033203125,-0.05227496163845062,0.014715375105477869,0.08846519604697824
1782811071920955000,2.412954833984375,0.10670973165929316,0.036064014212973415,0.11731865782663226
1782811071931027000,2.42302685546875,0.17393851680159567,0.01964271197244525,0.12854834624081848
1782811071941098000,2.433097900390625,0.1925643068164587,-0.005334858221933246,0.10626681019738315
1782811071951169000,2.4431689453125,0.16984043383300304,0.009351181191205978,0.13207228258326648
1782811071961241000,2.453240966796875,0.14000234493017197,0.016649156179651618,0.12176906136423349
1782811071971312000,2.46331201171875,0.17090367915034294,0.015701974990032612,0.08177505075857043
1782811071981383200,2.473383056640625,0.2309369998306036,-0.02257887502219528,0.06701558078303933
1782811071991455000,2.483455078125,0.22695932837128638,-0.05247859445177018,0.027521920914947984
1782811072001526000,2.493526123046875,0.19198095397055148,-0.058498548861034214,0.00908770794942975
1782811072011596800,2.5035966796875,0.24597850161790846,-0.011201558298245071,-0.027144319774210453
1782811072021668900,2.5136689453125,0.336872239986062,0.003319426746293902,-0.030477117458730933
1782811072031740000,2.523739990234375,0.40232290953993793,0.018768632551655173,0.0015741174489259718
1782811072041811000,2.53381103515625,0.45175417218506336,0.010936733349598944,0.06695785924643277
1782811072051883000,2.543883056640625,0.4826163434386253,-0.020196217669360337,0.09647212302237748
1782811072061954000,2.5539541015625,0.2739543037801981,-0.0643272184818983,0.08145078724026679
1782811072072025000,2.564025146484375,-0.06370937884449958,-0.051589098266139624,0.06399784039705991
1782811072082097200,2.57409716796875,-0.28830957686901093,-0.031229835522174832,0.020090748000890016
1782811072092168200,2.584168212890625,-0.31444588864445683,-0.014608480664901434,-0.024783874253183603
1782811072102239200,2.5942392578125,-0.20638708046376705,-0.056750828410871326,0.005562894824147224
1782811072112311000,2.60431103515625,-0.09309855493605136,-0.12925751742348074,-0.022618074521422386
1782811072122381800,2.6143818359375,-0.0574520720154047,-0.15447532611452042,-0.04987725284695625
1782811072132454000,2.624453857421875,-0.17844167343974113,-0.12059369744192808,-0.02640738380178809
1782811072142525000,2.63452490234375,-0.2899310405910015,-0.10034677249863744,-0.009803747264295816
1782811072152596000,2.644595947265625,-0.31929566676318644,-0.09757829416599124,-0.007013532023876905
1782811072162668000,2.65466796875,-0.22760639410316943,-0.10990271901432425,0.015465426287800073
1782811072172739000,2.664739013671875,-0.16564824284017085,-0.11900131368394941,0.0315340791657567
1782811072182810000,2.67481005859375,-0.11395488048195838,-0.1081721323620528,0.025737521716207263
1782811072192882200,2.684882080078125,-0.09108546154797077,-0.09899272754117847,0.03240136351957917
1782811072202953200,2.694953125,-0.16465864728093146,-0.128659076606296,0.014099544762074947
1782811072213024300,2.705024169921875,-0.17210194902420042,-0.12518098869957028,0.0033126316793262956
1782811072223096000,2.715095947265625,-0.07707096472084522,-0.12920885597616433,-0.009724398417770862
1782811072233166800,2.725166748046875,0.07362462365925311,-0.1417997132083401,0.029734336267411707
1782811072243238000,2.73523779296875,0.1697206068456173,-0.12281970292832702,0.09226356541663408
1782811072253310000,2.74531005859375,0.16401567320227622,-0.07413315770328044,0.11503683049976825
1782811072263381000,2.755381103515625,0.13266542617082594,-0.05381101209931075,0.13460983823686837
1782811072273452000,2.7654521484375,0.09751227972507476,-0.06759758192207664,0.12904314402043818
1782811072283524000,2.775524169921875,0.054642859813570976,-0.09437821948304771,0.10787892156913875
1782811072293595100,2.78559521484375,0.034819968968629836,-0.07539316770173608,0.06057268825396895
1782811072303666200,2.795666259765625,0.08887012358605861,-0.0687159914927557,0.05810907461941242
1782811072313738000,2.805738037109375,0.14979834727942942,-0.0870411545932293,0.07271335403323173
1782811072323809000,2.81580908203125,0.16154957534968853,-0.11359203851893543,0.08824643872976302
1782811072333880000,2.825880126953125,0.06988485260903834,-0.08758121628668158,0.06134615684449672
1782811072343952000,2.835951904296875,-0.02892155857980251,-0.07064308709781617,0.026400077278167008
1782811072354023000,2.84602294921875,-0.08743395330309868,-0.039576113987155256,0.00029927520751953123
1782811072364094000,2.856093994140625,-0.08713584713935851,-0.050394664317183195,-0.03154445442929864
1782811072374166000,2.866166015625,-0.07146715336441993,-0.06684537531528621,-0.06943126362264156
1782811072384237000,2.876237060546875,-0.09559037175178527,-0.04332644296400249,-0.07278714992180466
1782811072394308000,2.88630810546875,-0.07797989625930786,-0.03751242292299867,-0.10119666732624173
1782811072404380200,2.896380126953125,0.005427285745739936,-0.07179273205697537,-0.12219152456000447
1782811072414451200,2.906451171875,0.07634498853385448,-0.07613781205657869,-0.11899287464916705
1782811072424522000,2.91652197265625,0.15151742615699768,-0.08454630557019263,-0.0912388985440135
1782811072434593800,2.92659375,0.13034779687821865,-0.07899769499972462,-0.07144362635836005
1782811072444664800,2.936664794921875,0.12998071713149548,-0.045149858998879785,-0.04813566987663507
1782811072454736000,2.94673583984375,0.12106617379188536,-0.06313515915311872,-0.026600276025384662
1782811072464808000,2.956807861328125,0.06827566384673119,-0.05175590620040893,-0.0213287653632462
1782811072474879000,2.96687890625,0.03566986379623413,-0.0508571307297796,-0.013547171576321125
1782811072484950000,2.976949951171875,-0.01293254680931568,-0.04656915121227503,-0.0010246668726205826
1782811072495022000,2.98702197265625,-0.03627016777694225,-0.04602634957246482,0.018399726174026725
1782811072505093000,2.997093017578125,-0.0497965888261795,-0.06810352215021848,0.0068301382809877395
1782811072515164200,3.0071640625,-0.029569793355464932,-0.09550459316447377,-0.0010904255852103232
1782811072525236200,3.017236328125,-0.09082184217572212,-0.12066234223134815,-0.038463293907046316
1782811072535307000,3.02730712890625,-0.10351239692270756,-0.12237846196684986,-0.05816591937318444
1782811072545378000,3.0373779296875,-0.05036182149350643,-0.13359529089946298,-0.0241674959205091
1782811072555449900,3.047449951171875,-0.007376666247844696,-0.13569394367914647,0.03377192122042179
1782811072565521000,3.05752099609375,-0.023619360518455503,-0.11189305258132516,0.07121069438531995
1782811072575593000,3.067593017578125,-0.04034253178238868,-0.10190927257500589,0.10746566459313034
1782811072585664000,3.0776640625,-0.06919628582298755,-0.10620057656075804,0.12833002731502055
1782811072595735000,3.087735107421875,-0.1800596300303936,-0.1155381676180288,0.09749474406838417
1782811072605807000,3.09780712890625,-0.2366220597296953,-0.1180447436114773,0.04474105900228023
1782811072615878100,3.107878173828125,-0.13804711920917034,-0.10525902139432727,0.05328954550847411
1782811072625949000,3.117948974609375,-0.09967676428258418,-0.06241027894467115,0.0997666345231235
1782811072636021200,3.128021240234375,-0.14016016584038735,-0.06807692640423774,0.12776231042966246
1782811072646092000,3.138092041015625,-0.11263912170827388,-0.05867898346185684,0.09523469018191098
1782811072656163000,3.1481630859375,-0.048372693502902984,-0.056375821086019275,0.05436199704557657
1782811072666235000,3.15823486328125,0.04372340639233589,-0.05794606607742607,0.00041910219490528107
1782811072676306000,3.168305908203125,0.0863607711136341,-0.0851172738585621,-0.04680208318531513
1782811072686377000,3.178376953125,0.13072598254084586,-0.10244695964828134,-0.11651304053217172
1782811072696449000,3.188448974609375,0.20605039585530757,-0.09286898396387695,-0.24175533096492288
1782811072706520000,3.19852001953125,0.3498030332297086,-0.08643843945972621,-0.2639902513876557
1782811072716591000,3.208591064453125,0.3965969331085682,-0.07477189399823546,-0.19611147790402172
1782811072726663200,3.2186630859375,0.3473562245994806,-0.06423924793750048,-0.15218115076273678
1782811072736734000,3.22873388671875,0.2124403891533613,-0.052830330498889085,-0.08736205711066722
1782811072746805000,3.238804931640625,0.10479600699245929,0.011710530733689665,0.0028292320765554903
1782811072756877000,3.248876953125,0.05057692554891109,0.0510063299421221,0.06532777382656932
1782811072766948000,3.258947998046875,-0.02413841595649719,0.000709390378370881,0.06714402946829795
1782811072777019100,3.26901904296875,-0.10515081177949905,-0.0637627895321697,0.005039601602405309
1782811072787091000,3.279091064453125,-0.21913725644350052,-0.09310461935065686,-0.01897182697355747
1782811072797162000,3.289161865234375,-0.34539982983469963,-0.051987669129669664,0.02651113643720746
1782811072807233000,3.29923291015625,-0.3512853807419538,-0.006468538426980376,0.03813230838701129
1782811072817305000,3.30930517578125,-0.18649287794828415,0.01429696703031659,0.14971666034534573
1782811072827376000,3.319376220703125,-0.010107552516460418,0.010169219575822354,0.22415815334543585
1782811072837447000,3.329447021484375,0.20445231300890446,-0.031053090715780853,0.2622187116704881
1782811072847519000,3.33951904296875,0.27606735041141506,-0.08165697733685373,0.2616245451696217
1782811072857590000,3.349590087890625,0.20227847610116004,-0.09333952408507466,0.19513342665210365
1782811072867661000,3.3596611328125,0.13962941996455192,-0.09065605715475976,0.10838263330757618
1782811072877733000,3.369733154296875,0.02505553080141544,-0.08387721066959201,0.023200988975912332
1782811072887804000,3.379803955078125,-0.09647183076143265,-0.04326842916645109,-0.031372897254675625
1782811072897875000,3.389875,-0.17018237913846967,-0.038511151636764406,-0.09107464789301156
1782811072907946800,3.39994677734375,-0.15561083295047282,-0.028252500211820006,-0.15435352636575697
1782811072918017800,3.410017822265625,-0.13844400957226752,-0.056257090077176684,-0.22871157886609433
1782811072928088800,3.4200888671875,-0.06992576914131642,-0.03716733581237495,-0.27379195282533764
1782811072938161000,3.430160888671875,0.09743512283563613,0.03096248982287943,-0.2350504264988005
1782811072948232000,3.44023193359375,0.2984831803590059,0.07106850943565368,-0.15909706763103604
1782811072958303000,3.450302978515625,0.4591425288707018,0.1121005578521639,-0.06387801340967417
1782811072968375000,3.460375,0.4377975430250168,0.1295867493778467,0.004789426233619451
1782811072978446000,3.470446044921875,0.20551672737002372,0.12039112407453358,0.015171850168704986
1782811072988516900,3.480516845703125,0.03913198694884777,0.06010872400403022,-0.054573886230587954
1782811072998589000,3.4905888671875,0.021596914780139923,0.00926971345283091,-0.14593538824096322
1782811073008659700,3.50065966796875,0.0436444959372282,0.00824175864458084,-0.18762392780482767
1782811073018731800,3.510731689453125,0.043859599992632864,-0.003861278538033366,-0.25640023465007544
1782811073028802800,3.520802734375,0.0603799421608448,-0.0350127881269902,-0.2988409077554941
1782811073038873900,3.530873779296875,0.055035658523440355,-0.02417107611708343,-0.31464506447836754
1782811073048946000,3.54094580078125,-0.045889059993624685,-0.04313113958761096,-0.29978783321678637
1782811073059017000,3.551016845703125,-0.15059388157129286,-0.07956899208165705,-0.2567250826902687
1782811073069088000,3.561087890625,-0.13402677765190601,-0.0721311702311039,-0.15037965429872274
1782811073079160000,3.57116015625,-0.08865385048687457,-0.0691243165653199,-0.012174568048864602
1782811073089231000,3.581231201171875,-0.14896774167418478,-0.03401625137031078,0.08807049764096736
1782811073099302000,3.591302001953125,-0.2215297045379877,-0.02599807234853506,0.10617752447873353
1782811073109373700,3.601373779296875,-0.3040472442269325,-0.030806349413096904,0.10397621504217386
1782811073119444700,3.61144482421875,-0.3423416113078594,-0.0534866024505347,0.11157032343298195
1782811073129515800,3.621515869140625,-0.25842297264933584,-0.09327661491669714,0.10455328427776693
1782811073139587800,3.631587890625,-0.15838848097026348,-0.08778503176309167,0.15762275729477404
1782811073149659000,3.641658935546875,-0.005057283389568328,-0.10375139331035316,0.2058501971080899
1782811073159730000,3.65172998046875,0.23836393496096134,-0.10455949482284485,0.2666531869865954
1782811073169802000,3.661802001953125,0.3814677530378103,-0.09234598300307989,0.314317001567781
1782811073179873000,3.671873046875,0.42115854291319843,-0.11983663199692964,0.32876375233232974
1782811073189943800,3.68194384765625,0.3566296643793583,-0.13042327326722442,0.2709603826612234
1782811073200016000,3.692015869140625,0.1383195064097643,-0.14602365104630588,0.15521423484832048
1782811073210087000,3.7020869140625,-0.01730360150039196,-0.1738961389645934,0.04103738217875361
1782811073220158000,3.712157958984375,-0.04723287581801414,-0.15610526540391145,0.003430266709625721
1782811073230229800,3.722229736328125,0.01368073482811451,-0.12204437117427587,0.036439386864006516
1782811073240300800,3.73230078125,0.10938333478271961,-0.11122136386483907,0.04936199680119752
1782811073250371800,3.742371826171875,0.004988309806585311,-0.1222174627188593,0.05273235001713037
1782811073260444000,3.75244384765625,-0.13880173696875572,-0.10503456498868763,-0.02439282910898328
1782811073270515000,3.762514892578125,-0.16987550514638422,-0.10996025788784027,-0.052983109907805914
1782811073280586000,3.7725859375,-0.13786884003281594,-0.09025902066119015,-0.07303995563909411
1782811073290658000,3.782657958984375,-0.021663550275564193,-0.08127586906477809,-0.03007818126901984
1782811073300728800,3.792728759765625,0.046806174838542935,-0.09366568729951977,0.009532236846536398
1782811073310800000,3.8027998046875,-0.02776128262877464,-0.11589914641752838,0.0473547486320138
1782811073320872000,3.812871826171875,-0.13140168984532355,-0.10544928326942025,0.07282835871502756
1782811073330943000,3.82294287109375,-0.15643325524926185,-0.0876812060624361,0.045748190218210215
1782811073341014000,3.833013916015625,-0.1471329274624586,-0.08759623119272292,0.05000409409701824
1782811073351085800,3.8430859375,-0.019932780960202217,-0.09500665357969701,0.06573416267037391
1782811073361156900,3.853156982421875,0.20446809509992597,-0.10022716470696032,0.07394348035007715
1782811073371228000,3.863227783203125,0.40137306146919727,-0.11121018488369881,0.14768077060356735
1782811073381300000,3.873300048828125,0.41170623943507667,-0.11477598760649561,0.15100012428462503
1782811073391371000,3.88337109375,0.42118718448579306,-0.12175664027407765,0.13088643379956483
1782811073401441800,3.89344189453125,0.3702396720588207,-0.12683730453923345,0.11494856769442557
1782811073411513900,3.903513916015625,0.1996604025572538,-0.15008622431010007,0.07560410703867673
1782811073421585000,3.9135849609375,0.0798211402118206,-0.15777283328995106,0.016291794109344483
1782811073431656000,3.923656005859375,-0.005257774397730827,-0.1484762318301946,0.010709902323782444
1782811073441728000,3.93372802734375,-0.0900859291166067,-0.1472167332883924,-0.0005434592269361019
1782811073451799000,3.943799072265625,-0.10603811600804328,-0.14753478626161812,-0.030967092932760714
1782811073461870000,3.9538701171875,-0.04929039286971092,-0.11777524248771369,-0.014286445636302231
1782811073471942000,3.96394189453125,0.0066261401414871215,-0.0998767438340932,0.04821414194032549
1782811073482013000,3.974012939453125,0.007073883908987045,-0.07531615694276989,0.10310673873126507
1782811073492083700,3.984083740234375,-0.01667231785953045,-0.062386496210284526,0.11169029655084013
1782811073502155800,3.99415576171875,-0.020448329266905783,-0.07971022718325257,0.1072736491523683
1782811073512226800,4.004226806640625,-0.06174889242649078,-0.10344667474273592,0.10745865033045411
1782811073522297900,4.0142978515625,-0.0934802477300167,-0.124526908705011,0.07351561032682657
1782811073532370000,4.024369873046875,-0.07511456995606422,-0.10970953452978283,0.05740267991572618
1782811073542441000,4.03444091796875,-0.09980126744508742,-0.11177837669309228,0.07683949405252934
1782811073552512800,4.0445126953125,-0.14078268165290356,-0.1278004504829645,0.07547405091822147
1782811073562583800,4.054583740234375,-0.21935469858646392,-0.11317041557338088,0.07219386020377278
1782811073572654800,4.06465478515625,-0.3120908499509096,-0.09814553612731397,0.06551145983040332
1782811073582727000,4.074726806640625,-0.4351607647806406,-0.08563614663351327,-0.0160502404384315
1782811073592798000,4.0847978515625,-0.37903497293293476,-0.050516244870238,-0.0601719984985888
1782811073602868700,4.09486865234375,-0.1516997969865799,-0.05743716670721769,-0.019277678052335975
1782811073612940800,4.10494091796875,0.0284036721855402,-0.05638674433883279,0.029651772550493477
1782811073623011800,4.11501171875,0.09665829324424266,-0.05979246112909168,0.062315148007124656
1782811073633083000,4.125082763671875,0.06535948413908481,-0.05370302168019116,0.041998774556815624
1782811073643155000,4.135155029296875,-0.06624678836762905,-0.06385960097014903,0.0074114453002810474
1782811073653226000,4.14522607421875,-0.12045768650472163,-0.06418970970734954,-0.04652677337527275
1782811073663297000,4.155297119140625,-0.0636696313560009,-0.07484605521298944,-0.040625732637941836
1782811073673368800,4.165368896484375,0.08523848908543587,-0.06539755112715065,-0.01096168512776494
1782811073683439900,4.17543994140625,0.20153613330125808,-0.04917158879563212,0.045627924839407204
1782811073693511000,4.185510986328125,0.17613047388792036,-0.04129300090763718,0.046969256445765495
1782811073703583000,4.1955830078125,0.16876783616542815,-0.03177899383753538,0.03328749870434403
1782811073713653800,4.20565380859375,0.0842038853406906,-0.058001559124328195,-0.04042801810875535
1782811073723724800,4.215724853515625,-0.05057166485190391,-0.06113112585432827,-0.09274316562712193
1782811073733796900,4.225796875,-0.10129530539512634,-0.029406017628498374,-0.10380202751904725
1782811073743868000,4.235867919921875,-0.002873509609699249,-0.053594373673945664,-0.07800254648253321
1782811073753939000,4.24593896484375,0.11989888357818126,-0.04884286829791963,-0.04097878385931253
1782811073764011000,4.256010986328125,0.18963000693023205,-0.0389803035184741,-0.004358633600920438
1782811073774082000,4.26608203125,0.23150106345415114,-0.0377522960934788,0.006432225004583597
1782811073784153000,4.276153076171875,0.2594604990035295,-0.038075098307058214,-0.004456102626025677
1782811073794225000,4.286224853515625,0.19350597158074379,-0.06393314113039524,-0.017017478035390377
1782811073804296000,4.2962958984375,0.12008768414855002,-0.07145783754680306,-0.024778759686648843
1782811073814366700,4.30636669921875,0.05763678093254566,-0.05780435605179518,-0.04000482426062226
1782811073824438800,4.316438720703125,-0.05578092393279075,-0.06480846266020089,-0.030173604467511175
1782811073834509800,4.326509765625,-0.1428115571320057,-0.06298263547252864,0.019970921013504266
1782811073844580900,4.336580810546875,-0.19283610949516294,-0.05437562371212989,0.07140270982608199
1782811073854653000,4.34665283203125,-0.21079086838066577,-0.02386646714732051,0.04994681095182895
1782811073864724000,4.356723876953125,-0.2226490639567375,-0.0074037003852427,0.0013141513384878636
1782811073874795000,4.366794921875,-0.20780805317759513,-0.029380042937025425,-0.021463059267401694
1782811073884867000,4.3768671875,-0.15271101985573768,-0.0596548792893067,-0.05416267508119344
1782811073894938000,4.386938232421875,-0.12548983545303344,-0.08590075238645076,-0.08213993854820728
1782811073905009000,4.3970087890625,-0.07976268802285194,-0.09190733585748821,-0.0956667979888618
1782811073915080700,4.407080810546875,-0.02931026563644409,-0.09877605258319526,-0.12195406254231929
1782811073925151700,4.41715185546875,0.06426759724915027,-0.10863938454762101,-0.12847177387326955
1782811073935222800,4.427222900390625,0.1262415306031704,-0.10561441070325672,-0.11555281719788908
1782811073945294800,4.437294921875,0.10718494795560836,-0.07721256514862179,-0.07294424017965793
1782811073955366000,4.447365966796875,0.075890815025568,-0.03406257473006844,-0.03603548223823309
1782811073965437000,4.45743701171875,0.045450668576359744,-0.04609298506788909,-0.06490136510804295
1782811073975509000,4.467509033203125,-0.002840191861987114,-0.05220474594645202,-0.06787044404670596
1782811073985580000,4.477580078125,0.05931611232161522,-0.07096008062511681,-0.0353226577937603
1782811073995651000,4.487651123046875,0.09346212755143642,-0.06535100857168435,-0.03767375096455216
1782811074005723000,4.497722900390625,0.0758645115405321,-0.025342311853542923,-0.03159662300795316
1782811074015794000,4.5077939453125,0.048887657287716865,-0.019854455026984213,-0.021848259192705152
1782811074025865000,4.517864990234375,0.024214988324046133,-0.04436462690532207,-0.036037820325791836
1782811074035936800,4.527936767578125,0.04157762653529644,-0.06798720229417085,-0.03593450608178973
1782811074046007800,4.5380078125,0.0922948373377323,-0.07924728584662079,-0.02090849412456155
1782811074056078800,4.548078857421875,0.12748890031576157,-0.09585231062360107,-0.019094868831336497
1782811074066151000,4.55815087890625,0.11123159299790858,-0.10313318834677337,-0.018246873699873684
1782811074076222000,4.568221923828125,0.044319618719816205,-0.06619074733145534,0.0235464414127171
1782811074086293000,4.57829296875,-0.030249007791280744,-0.03128580349311232,0.05961290331110358
1782811074096365000,4.588364990234375,-0.06528115820586682,-0.017431684859469533,0.03745820851773023
1782811074106436000,4.59843603515625,-0.06507774458825588,-0.046690074178203936,0.006585954261571168
1782811074116507000,4.6085068359375,-0.05304828409850597,-0.06325871246755123,-0.0027687340609729287
1782811074126578700,4.61857861328125,-0.02143792482614517,-0.07057794943973422,-0.00796206492036581
1782811074136649700,4.628649658203125,0.014438275197148322,-0.06495360675193369,-0.015486615206301211
1782811074146720800,4.638720703125,-0.02983575081527233,-0.04945595869496464,0.0016730477787554262
1782811074156792800,4.648792724609375,-0.05540449183583259,-0.022028949521854517,0.012532295445352792
1782811074166864000,4.65886376953125,-0.056310500764846796,-0.046008448589593166,0.032056641735136504
1782811074176935000,4.668934814453125,-0.06733750621378422,-0.06222827344126999,0.007921440649032592
1782811074187007000,4.679007080078125,-0.024710662886500357,-0.06759586488902568,-0.028381898745149372
1782811074197078000,4.689078125,0.0391132822483778,-0.07324636493138968,-0.05184840678945184
1782811074207150000,4.699150146484375,0.11960896072089672,-0.08970504004023969,-0.04880889296308159
1782811074217220900,4.709220947265625,0.20266484507024288,-0.07881773532293737,-0.034467502269148825
1782811074227292000,4.7192919921875,0.1510463015139103,-0.08277553303800522,-0.03323080008104443
1782811074237363700,4.72936376953125,0.01924596773982048,-0.03554039219766855,-0.03197875419333577
1782811074247434800,4.739434814453125,-0.060438394349813455,-0.004775616903975606,0.004938771576434374
1782811074257505800,4.749505859375,-0.027389526706933974,-0.002221913833171129,0.03590118833407759
1782811074267577900,4.759577880859375,0.06933657107651234,-0.03627367490828037,0.05687763312831521
1782811074277649000,4.76964892578125,0.10867255616486073,-0.06388714656420051,0.013591302978992461
1782811074287720000,4.779719970703125,0.11182137558460235,-0.08454108140580356,-0.0569322859250009
1782811074297792000,4.7897919921875,0.09427227489054202,-0.07565620255209506,-0.07921075322851538
1782811074307863000,4.799863037109375,-0.00007540332376956939,-0.055083223992213604,-0.10068082675859331
1782811074317933800,4.809933837890625,-0.059521864026784894,-0.04291610859744251,-0.07712269490808248
1782811074328006000,4.820005859375,-0.05095043503642082,-0.016796163434907793,-0.0602766279168427
1782811074338077000,4.830076904296875,-0.03744271868765354,-0.020221096382290124,-0.05344298250451684
1782811074348148000,4.84014794921875,-0.029081717577576636,-0.05439020022675395,-0.041297932811081406
1782811074358219800,4.8502197265625,-0.02706687062382698,-0.05061857273355126,-0.04956657946258783
1782811074368290800,4.860290771484375,-0.08471768008172512,-0.06543174565769731,-0.071896923083812
1782811074378361900,4.87036181640625,-0.06968085446953773,-0.06506758852042258,-0.09138985132202505
1782811074388434000,4.880433837890625,-0.015641221246123313,-0.0866294319871813,-0.06150120127573609
1782811074398505000,4.8905048828125,0.04731178627312183,-0.10323854841738939,-0.027571751406043767
1782811074408576000,4.900575927734375,0.06233809049129486,-0.09419833287149668,0.008575959035009146
1782811074418648000,4.91064794921875,0.04848433718383312,-0.06616210575886071,-0.004237345308810472
1782811074428718800,4.92071875,0.05885609359443188,-0.039648996560275554,0.004196867167949677
1782811074438790000,4.930789794921875,0.059251230391860005,-0.038754605003818866,0.01519172391295433
1782811074448862000,4.940862060546875,0.08702128084897995,-0.03634498657882213,0.042014702778309584
1782811074458933000,4.95093310546875,0.11497487117946147,-0.05257767091207206,0.052115533293038606
1782811074469004000,4.961004150390625,0.056929509446024894,-0.05942534484975039,0.03425137530043721
1782811074479075800,4.971075927734375,0.01608136622905731,-0.09357260218858718,-0.00916150383800268
1782811074489147000,4.98114697265625,0.04067161760628223,-0.09009345483593642,-0.02211786991432309
1782811074499218000,4.991218017578125,0.023641572350263595,-0.08415953474231064,0.0046133390143513675
1782811074509290000,5.0012900390625,0.0022416414469480514,-0.06622574557960033,0.019012012853473422
1782811074519360800,5.01136083984375,-0.06144084939062595,-0.07101926346644759,0.019918167912960052
1782811074529431800,5.021431884765625,-0.1293435882717371,-0.06400741194300354,0.03765226978510618
1782811074539503900,5.03150390625,-0.150578684002161,-0.07684431635811924,0.003840601076185703
1782811074549575000,5.041574951171875,-0.10647650742530822,-0.09556114565730095,0.00569748098924756
1782811074559646000,5.05164599609375,-0.04883563483953476,-0.08466331954598426,0.009446312128752469
1782811074569717800,5.0617177734375,-0.008000935626029968,-0.09951996628567576,0.012337941917032002
1782811074579788800,5.071788818359375,0.054469256812334055,-0.10687383617982267,-0.00872998055294156
1782811074589859800,5.08185986328125,0.03682838618159294,-0.10726583117209375,-0.02244987834766507
1782811074599932000,5.091931884765625,0.006114098966121673,-0.10672690198980271,-0.03984612656757235
1782811074610003000,5.1020029296875,-0.036784547039866444,-0.07279314127117395,-0.01862286740541458
1782811074620073700,5.11207373046875,0.0013023147702217101,-0.08313822887055575,-0.011502952397614718
1782811074630145800,5.122145751953125,0.09137655344903468,-0.11373057020679116,-0.006507189936935901
1782811074640216800,5.132216796875,0.17144143928885458,-0.14640074073038994,-0.006946312006562948
1782811074650287900,5.142287841796875,0.16877251234054563,-0.12555800531841813,-0.01912774818763137
1782811074660360000,5.15235986328125,0.15851239961087701,-0.09590491759367287,-0.016935498840361832
1782811074670431000,5.162430908203125,0.10924655666053294,-0.07051569785848259,0.041526334739476436
1782811074680502000,5.172501953125,0.03285889802873134,-0.061630526743829246,0.07311389765813946
1782811074690573800,5.18257373046875,-0.02152326502203941,-0.07257599138915538,0.06302227336317301
1782811074700644900,5.192644775390625,-0.06850362738370895,-0.10482391791269183,0.01912614075243473
1782811074710716000,5.2027158203125,-0.09708967039883136,-0.1575616747573018,-0.04494695683792233
1782811074720788000,5.2127880859375,-0.11113573140799998,-0.1538130628135055,-0.06791004540473222
1782811074730858800,5.222858642578125,-0.06303074893057346,-0.11565664289854466,-0.03999313382282853
1782811074740929800,5.2329296875,0.047080315604805946,-0.08948971678912639,0.008822042750567197
1782811074751001900,5.243001953125,0.16077391480207442,-0.07891659258753062,0.0948944984421134
1782811074761073000,5.253072998046875,0.16067571512460707,-0.0629777035690844,0.12778963682800532
1782811074771144000,5.26314404296875,0.11428455082774161,-0.06240282629057765,0.0809222333215177
1782811074781216000,5.273216064453125,0.11219488507211207,-0.0944604909390211,0.006824293062090874
1782811074791287000,5.283287109375,0.1457470260620117,-0.0996269337914884,0.00658522360920906
1782811074801358000,5.293358154296875,0.11078209566473961,-0.08199556164145469,0.025845219874382017
1782811074811430000,5.303429931640625,0.006204115337133408,-0.07909757517762482,0.03505757711678743
1782811074821501000,5.3135009765625,-0.06064414605498313,-0.0897996595211327,0.05256166962534189
1782811074831571700,5.32357177734375,-0.065002925786376,-0.07599938996657729,0.027152795341610907
1782811074841643800,5.333643798828125,-0.09583236381411551,-0.07086911440603434,0.0029158874467015263
1782811074851714800,5.34371484375,-0.1277343995094299,-0.059937532155588266,-0.01463964298814535
1782811074861785900,5.353785888671875,-0.15727555129230023,-0.023063041809946297,0.017017331904917953
1782811074871858000,5.36385791015625,-0.14168810606002807,-0.037309228501096366,-0.006805296100676059
1782811074881929000,5.373928955078125,-0.09401742334663868,-0.05980111935958266,-0.013611761245131491
1782811074892000000,5.384,-0.024386837759613988,-0.046944414265453815,-0.012961480642855166
1782811074902072000,5.394072021484375,-0.0004915829092264175,-0.0315320333391428,-0.0011795651733875275
1782811074912143000,5.40414306640625,-0.015777414846420288,-0.022338380797207354,0.029046061742305753
1782811074922214000,5.4142138671875,-0.02120353154838085,-0.02329575458727777,0.04168985473811626
1782811074932285700,5.42428564453125,-0.05008884977102279,-0.02140139220803976,0.034189854371547694
1782811074942356700,5.434356689453125,-0.06583002426028252,-0.03593202186375856,0.031483079630881546
1782811074952427800,5.444427734375,-0.04111410067677498,-0.03722315765284002,0.053786096853762864
1782811074962499800,5.454499755859375,-0.019065350475907326,-0.03833024211190641,0.034234716426581144
1782811074972571000,5.46457080078125,-0.01873918726146221,-0.03860533272624016,0.0420728627063334
1782811074982642000,5.474641845703125,-0.0583756166011095,-0.04888225046023726,0.008488280751556158
1782811074992714000,5.4847138671875,-0.0372135861068964,-0.033273543244227766,-0.03578720656558871
1782811075002785000,5.494784912109375,0.057740241307020185,-0.01087291086576879,-0.019139292494952678
1782811075012856000,5.50485595703125,0.16883271809518335,-0.041945875325798986,0.022181144408881664
1782811075022928000,5.514927978515625,0.2546995682120323,-0.06664864716678857,0.014627806419879198
1782811075032999000,5.5249990234375,0.1943938603311777,-0.05240355645418167,-0.012910919499397277
1782811075043070000,5.535070068359375,0.09685819973051547,-0.03557064120545983,-0.0468424151957035
1782811075053141800,5.545141845703125,0.04810790508687496,-0.013962474378943442,-0.07450491362512111
1782811075063212800,5.555212890625,0.093489015558362,0.0025220658235251903,-0.02828136098012328
1782811075073283800,5.565283935546875,0.17077333076894283,-0.044227483456954354,0.01404664553105831
1782811075083356000,5.57535595703125,0.2215209367096424,-0.08463160923346877,-0.027652707687765357
1782811075093427000,5.585427001953125,0.12270108151733874,-0.10775354162380099,-0.0349088162958622
1782811075103498000,5.595498046875,-0.011090718334913253,-0.0890644405817613,-0.0816365190707147
1782811075113570000,5.605570068359375,-0.18721885413527486,-0.01356806823387742,-0.10297039900049566
1782811075123641000,5.61564111328125,-0.1997182702243328,-0.02938358660098165,-0.07722717819586396
1782811075133713000,5.625712890625,-0.07797112843096256,-0.06996610115170479,-0.10166311579421163
1782811075143783700,5.63578369140625,-0.2235211706161499,-0.02960190552677959,-0.2163227835446596
1782811075153854700,5.645854736328125,0.025534254229068756,-0.028582024427130818,-0.21842589330375192
1782811075163925800,5.65592578125,-0.22141864537894723,-0.10608915207553654,-0.13123071719259022
1782811075173997800,5.665997802734375,-0.27256957142353055,-0.11499774059839546,-0.2493359953522682
1782811075184068900,5.67606884765625,-0.2469873863995075,-0.12803203074913472,-0.3008798662371933
1782811075194140000,5.686139892578125,-0.20021628287434576,-0.1936080437157303,-0.305751856187731
1782811075204212000,5.6962119140625,0.039134325036406514,-0.0979539590779692,-0.14357640402466057
1782811075214284800,5.706284912109375,0.16335633251070975,-0.05878167665135115,0.024923721115291116
1782811075224355800,5.71635595703125,0.15000234541893004,-0.0495096616435796,0.11833061134815215
1782811075234428000,5.726427978515625,0.2480325115382671,-0.060836088430508965,0.11385726532638073
