time,seconds_elapsed,z,y,x
1782811069584404500,0.076404541015625,-0.03156392276287079,0.05144980549812317,0.5402215123176575
1782811069594476500,0.0864765625,-0.01842522621154785,0.11938326805830002,0.5180191993713379
1782811069604547300,0.09654736328125,-0.0019604992121458054,0.16716383397579193,0.4696923792362213
1782811069614618400,0.106618408203125,0.009934691712260246,0.20662030577659607,0.3915610909461975
1782811069624690200,0.116690185546875,0.0011835451005026698,0.22083039581775665,0.31365057826042175
1782811069634761200,0.12676123046875,-0.026107655838131905,0.2028173953294754,0.24901582300662994
1782811069644832300,0.136832275390625,-0.07401792705059052,0.16886155307292938,0.2046629935503006
1782811069654904300,0.146904296875,-0.12099161744117737,0.12551647424697876,0.19271531701087952
1782811069664975400,0.156975341796875,-0.15295566618442535,0.10222819447517395,0.1965755671262741
1782811069675046400,0.16704638671875,-0.16523943841457367,0.12067809700965881,0.20943522453308105
1782811069685118500,0.177118408203125,-0.14366410672664642,0.18505655229091644,0.19494788348674774
1782811069695189500,0.187189453125,-0.1076035425066948,0.2684650421142578,0.16457650065422058
1782811069705260300,0.19726025390625,-0.0760437548160553,0.34635743498802185,0.1329868882894516
1782811069715332400,0.207332275390625,-0.0474296472966671,0.42053279280662537,0.10928549617528915
1782811069725403400,0.2174033203125,-0.0167018324136734,0.46254974603652954,0.11842226982116699
1782811069735474400,0.227474365234375,0.015216026455163956,0.4912220239639282,0.15638421475887299
1782811069745546200,0.237546142578125,0.054681941866874695,0.5426905155181885,0.21585312485694885
1782811069755617300,0.2476171875,0.08409246802330017,0.5871307849884033,0.2681305706501007
1782811069765688300,0.257688232421875,0.11658170074224472,0.6055516004562378,0.3194611370563507
1782811069775760400,0.267760498046875,0.16068577766418457,0.5665237307548523,0.3873295783996582
1782811069785831400,0.27783154296875,0.22605226933956146,0.47757256031036377,0.49174973368644714
1782811069795902200,0.287902099609375,0.28848913311958313,0.3208603262901306,0.6218871474266052
1782811069805974300,0.297974365234375,0.32892897725105286,0.15071682631969452,0.7664762735366821
1782811069816045300,0.30804541015625,0.35483551025390625,-0.014554457738995552,0.8899564146995544
1782811069826116400,0.318116455078125,0.41123166680336,-0.17877161502838135,0.962763249874115
1782811069836188400,0.3281884765625,0.508093535900116,-0.3998519480228424,0.9617995023727417
1782811069846259500,0.338259521484375,0.6468786001205444,-0.576102077960968,0.8392868638038635
1782811069856330500,0.34833056640625,0.7937138080596924,-0.5258601903915405,0.5685933232307434
1782811069866402000,0.358402099609375,0.953258752822876,-0.18435826897621155,0.13651731610298157
1782811069876473000,0.36847314453125,1.099858283996582,0.09872616082429886,-0.2193717509508133
1782811069886544100,0.378544189453125,1.1488673686981201,0.15879616141319275,-0.42656567692756653
1782811069896616200,0.3886162109375,1.107311725616455,0.037470582872629166,-0.5316444635391235
1782811069906687200,0.398687255859375,1.0610013008117676,-0.3233056962490082,-0.618358850479126
1782811069916758000,0.408758056640625,1.0517513751983643,-0.7131637334823608,-0.6801359057426453
1782811069926830000,0.418830078125,1.0416280031204224,-0.9071382880210876,-0.693373441696167
1782811069936901000,0.428901123046875,0.9606489539146423,-0.8941901922225952,-0.6978232264518738
1782811069946973200,0.43897314453125,0.8257070779800415,-0.849217414855957,-0.7553989291191101
1782811069957044200,0.449044189453125,0.6795886754989624,-0.8720455765724182,-0.8572491407394409
1782811069967115300,0.459115234375,0.5748340487480164,-0.9729902744293213,-0.9668446183204651
1782811069977187000,0.46918701171875,0.509377658367157,-1.1518964767456055,-1.0508885383605957
1782811069987258000,0.479258056640625,0.4472842216491699,-1.2974430322647095,-1.1122709512710571
1782811069997329200,0.4893291015625,0.3637569546699524,-1.2862416505813599,-1.1682076454162598
1782811070007401200,0.499401123046875,0.2518450617790222,-1.1183592081069946,-1.2320585250854492
1782811070017472300,0.50947216796875,0.10664394497871399,-0.8434070348739624,-1.3209457397460938
1782811070027543000,0.51954296875,-0.05469062179327011,-0.5290866494178772,-1.4443284273147583
1782811070037615000,0.529614990234375,-0.21933944523334503,-0.24388135969638824,-1.578965425491333
1782811070047686100,0.53968603515625,-0.3718315064907074,-0.04346996918320656,-1.6900371313095093
1782811070057757200,0.549757080078125,-0.49417367577552795,0.0598609484732151,-1.8105888366699219
1782811070067829200,0.559829345703125,-0.6247716546058655,0.025409232825040817,-1.8723094463348389
1782811070077900300,0.569900390625,-0.7189760804176331,-0.07503657788038254,-1.8515336513519287
1782811070087971300,0.579971435546875,-0.7449917197227478,-0.1728486269712448,-1.7764970064163208
1782811070098043100,0.590043212890625,-0.7414963245391846,-0.20095333456993103,-1.674448847770691
1782811070108114200,0.6001142578125,-0.7234123945236206,-0.24473489820957184,-1.5529769659042358
1782811070118185000,0.61018505859375,-0.6993752121925354,-0.3327852487564087,-1.4248101711273193
1782811070128257000,0.620257080078125,-0.6716737747192383,-0.4176689684391022,-1.2950612306594849
1782811070138328000,0.630328125,-0.6466645002365112,-0.4446999728679657,-1.1832019090652466
1782811070148399000,0.640399169921875,-0.6136594414710999,-0.4489644765853882,-1.0924280881881714
1782811070158471200,0.65047119140625,-0.5559999942779541,-0.4367932677268982,-1.0200872421264648
1782811070168542200,0.660542236328125,-0.4697817265987396,-0.40964075922966003,-0.958808958530426
1782811070178613200,0.67061328125,-0.381718248128891,-0.39715027809143066,-0.9022935032844543
1782811070188685000,0.68068505859375,-0.3208993673324585,-0.39963632822036743,-0.8497005701065063
1782811070198756000,0.690756103515625,-0.3087003231048584,-0.40437331795692444,-0.823136031627655
1782811070208827100,0.7008271484375,-0.3298061490058899,-0.3855935335159302,-0.8319857120513916
1782811070218899200,0.710899169921875,-0.3627498745918274,-0.3428148627281189,-0.8805801868438721
1782811070228970000,0.720969970703125,-0.38520511984825134,-0.2670292854309082,-0.9649097323417664
1782811070239041000,0.731041015625,-0.38537248969078064,-0.17318297922611237,-1.0590386390686035
1782811070249113000,0.741113037109375,-0.36528798937797546,-0.10041556507349014,-1.108973503112793
1782811070259184000,0.75118408203125,-0.3267715573310852,-0.07148352265357971,-1.0862923860549927
1782811070269255200,0.761255126953125,-0.3026622235774994,-0.046884700655937195,-0.9970008134841919
1782811070279327200,0.7713271484375,-0.30125319957733154,-0.015921827405691147,-0.8652426600456238
1782811070289398300,0.781398193359375,-0.31476661562919617,0.008977929130196571,-0.7396519780158997
1782811070299469300,0.79146923828125,-0.33804643154144287,0.0129937082529068,-0.6367570161819458
1782811070309541000,0.801541015625,-0.35005274415016174,0.011225102469325066,-0.5545945167541504
1782811070319612200,0.811612060546875,-0.3417471647262573,0.010864191688597202,-0.496776282787323
1782811070329683000,0.821682861328125,-0.3167283535003662,0.010144605301320553,-0.45580968260765076
1782811070339755000,0.831755126953125,-0.2849680483341217,0.004905500914901495,-0.42785269021987915
1782811070349826000,0.841825927734375,-0.25693801045417786,-0.001994216814637184,-0.4106515944004059
1782811070359897000,0.85189697265625,-0.2408284693956375,-0.016383036971092224,-0.3921581208705902
1782811070369969200,0.86196923828125,-0.24636490643024445,-0.0033034533262252808,-0.36622318625450134
1782811070380040200,0.872040283203125,-0.25877809524536133,0.04512477293610573,-0.3297666609287262
1782811070390112300,0.8821123046875,-0.25970831513404846,0.11661094427108765,-0.2853323519229889
1782811070400183300,0.892183349609375,-0.24730519950389862,0.20661547780036926,-0.2537594735622406
1782811070410254300,0.90225439453125,-0.20884941518306732,0.29286596179008484,-0.23950061202049255
1782811070420326100,0.912326171875,-0.16473548114299774,0.3527834713459015,-0.2625010907649994
1782811070430397000,0.92239697265625,-0.11135454475879669,0.34970536828041077,-0.2930874824523926
1782811070440468000,0.932468017578125,-0.10346468538045883,0.35639140009880066,-0.3223976492881775
1782811070450540000,0.9425400390625,-0.12895698845386505,0.3712765872478485,-0.3549260199069977
1782811070460611000,0.952611083984375,-0.1754945069551468,0.38082802295684814,-0.3913804888725281
1782811070470682000,0.96268212890625,-0.2262120097875595,0.37569716572761536,-0.4193839132785797
1782811070480754200,0.972754150390625,-0.257417231798172,0.3536717891693115,-0.43308502435684204
1782811070490825200,0.9828251953125,-0.27275732159614563,0.33673274517059326,-0.4289102554321289
1782811070500896300,0.992896240234375,-0.27257224917411804,0.3130722641944885,-0.4012789726257324
1782811070510968300,1.00296826171875,-0.2647923529148102,0.2550364136695862,-0.35759061574935913
1782811070521039400,1.013039306640625,-0.24727752804756165,0.18934163451194763,-0.2988561987876892
1782811070531110100,1.023110107421875,-0.21894149482250214,0.14255867898464203,-0.22685043513774872
1782811070541182000,1.033181884765625,-0.18321436643600464,0.1357399821281433,-0.15884625911712646
1782811070551253000,1.0432529296875,-0.14300009608268738,0.1519290655851364,-0.0992036983370781
1782811070561324000,1.053323974609375,-0.10771635919809341,0.1445680856704712,-0.04965644329786301
1782811070571396000,1.06339599609375,-0.08179447799921036,0.09004838764667511,0.0006655845791101456
1782811070581467100,1.073467041015625,-0.07264441251754761,0.018572257831692696,0.05373971536755562
1782811070591538200,1.0835380859375,-0.0779169350862503,-0.02154666557908058,0.11215721815824509
1782811070601610200,1.0936103515625,-0.08534786850214005,0.002694945316761732,0.16172437369823456
1782811070611681300,1.103681396484375,-0.08828000724315643,0.06811869144439697,0.2252301126718521
1782811070621752300,1.11375244140625,-0.07903539389371872,0.13626784086227417,0.2836947441101074
1782811070631824100,1.12382421875,-0.06303485482931137,0.1634986698627472,0.3354972302913666
1782811070641895200,1.133895263671875,-0.03176969289779663,0.16560079157352448,0.37438127398490906
1782811070651966200,1.14396630859375,0.004854630678892136,0.1484564244747162,0.40403664112091064
1782811070662038000,1.1540380859375,0.028688563033938408,0.13539829850196838,0.4309685528278351
1782811070672109000,1.164109130859375,0.029625995084643364,0.13963697850704193,0.45911896228790283
1782811070682180000,1.17418017578125,0.018956739455461502,0.15973934531211853,0.4797462224960327
1782811070692252200,1.184252197265625,0.006253194063901901,0.18383696675300598,0.48310473561286926
1782811070702323200,1.1943232421875,-0.004743741359561682,0.1769058108329773,0.46291738748550415
1782811070712394200,1.204394287109375,-0.019297650083899498,0.12393741309642792,0.43470999598503113
1782811070722466300,1.21446630859375,-0.04331774637103081,0.09747420996427536,0.3944288194179535
1782811070732537000,1.224537109375,-0.06441877037286758,0.11541859060525894,0.3506768047809601
1782811070742608100,1.234608154296875,-0.08656136691570282,0.13981148600578308,0.3028612732887268
1782811070752680000,1.244679931640625,-0.10030194371938705,0.1451902687549591,0.24662832915782928
1782811070762751000,1.2547509765625,-0.10251206904649734,0.1304706484079361,0.18634362518787384
1782811070772822000,1.264822021484375,-0.09446772187948227,0.10057719051837921,0.1315957009792328
1782811070782894000,1.27489404296875,-0.07923091948032379,0.06219492107629776,0.0755653902888298
1782811070792965000,1.284965087890625,-0.06514839082956314,0.017574990168213844,0.019247258082032204
1782811070803036200,1.2950361328125,-0.05560574680566788,-0.018244212493300438,-0.03425528481602669
1782811070813108200,1.305108154296875,-0.04359915107488632,-0.037752665579319,-0.07850370556116104
1782811070823179300,1.31517919921875,-0.018709413707256317,-0.04914889484643936,-0.12011934816837311
1782811070833250000,1.32525,0.007166924886405468,-0.06948399543762207,-0.15125223994255066
1782811070843322000,1.335322021484375,0.032339658588171005,-0.08766911923885345,-0.16639363765716553
1782811070853393200,1.34539306640625,0.045635756105184555,-0.10543080419301987,-0.17488858103752136
1782811070863464200,1.355464111328125,0.045627765357494354,-0.12901468575000763,-0.17623987793922424
1782811070873536000,1.365535888671875,0.05783569812774658,-0.12639173865318298,-0.15899164974689484
1782811070883607000,1.37560693359375,0.07076144218444824,-0.09654923528432846,-0.12336745858192444
1782811070893679000,1.38567919921875,0.07371355593204498,-0.07029473036527634,-0.08094409853219986
1782811070903750100,1.395750244140625,0.06936515867710114,-0.07163260132074356,-0.03890237212181091
1782811070913821200,1.4058212890625,0.062445469200611115,-0.07681697607040405,-0.00542856752872467
1782811070923893200,1.415893310546875,0.04862608015537262,-0.0890868753194809,0.02557961829006672
1782811070933964300,1.42596435546875,0.03576754033565521,-0.09171009063720703,0.06367746740579605
1782811070944035000,1.43603515625,0.02350984513759613,-0.08709970861673355,0.10387755185365677
1782811070954107100,1.446107177734375,0.01465989463031292,-0.08265729248523712,0.14270751178264618
1782811070964178200,1.45617822265625,0.009535163640975952,-0.08029165863990784,0.17135344445705414
1782811070974249200,1.466249267578125,-0.0016999137587845325,-0.06852580606937408,0.19154419004917145
1782811070984321000,1.476321044921875,-0.010460051707923412,-0.0490412637591362,0.20630161464214325
1782811070994392000,1.48639208984375,-0.02004529908299446,-0.032405562698841095,0.20466509461402893
1782811071004463000,1.496463134765625,-0.03400873765349388,-0.021249882876873016,0.18998338282108307
1782811071014535200,1.50653515625,-0.047990601509809494,-0.02411118522286415,0.1559375375509262
1782811071024606200,1.516606201171875,-0.059358835220336914,-0.045854829251766205,0.10776201635599136
1782811071034677200,1.52667724609375,-0.06623698025941849,-0.07417435199022293,0.05833961069583893
1782811071044749300,1.536749267578125,-0.07260646671056747,-0.10311998426914215,0.006430074106901884
1782811071054820000,1.546820068359375,-0.07588507980108261,-0.12985998392105103,-0.03280175104737282
1782811071064891100,1.55689111328125,-0.07971058040857315,-0.13179439306259155,-0.05428379029035568
1782811071074963200,1.566963134765625,-0.08353115618228912,-0.11823198199272156,-0.06444347649812698
1782811071085034200,1.5770341796875,-0.0895029753446579,-0.10110784322023392,-0.06584462523460388
1782811071095105300,1.587105224609375,-0.0930766686797142,-0.09772668778896332,-0.05692064389586449
1782811071105177000,1.597177001953125,-0.08952627331018448,-0.08110016584396362,-0.04403049498796463
1782811071115248000,1.607248046875,-0.0840260460972786,-0.05595379322767258,-0.025873327627778053
1782811071125319200,1.617319091796875,-0.07644294947385788,-0.034397855401039124,-0.014214174821972847
1782811071135391200,1.62739111328125,-0.06569016724824905,-0.02341923862695694,-0.017293855547904968
1782811071145462000,1.6374619140625,-0.05165005847811699,-0.02343345619738102,-0.028259294107556343
1782811071155533000,1.647532958984375,-0.04178358241915703,-0.04119301214814186,-0.04550619050860405
1782811071165605000,1.657605224609375,-0.02020706608891487,-0.07691045105457306,-0.06864428520202637
1782811071175676200,1.66767626953125,-0.008040414191782475,-0.11041967570781708,-0.07895445078611374
1782811071185747200,1.677747314453125,0.0071098231710493565,-0.1170874834060669,-0.06867966800928116
1782811071195819300,1.6878193359375,0.020306851714849472,-0.10419139266014099,-0.038421630859375
1782811071205890300,1.697890380859375,0.029096081852912903,-0.07054395228624344,-0.005675668362528086
1782811071215961300,1.70796142578125,0.029717663303017616,-0.04443405196070671,0.0286218523979187
1782811071226033200,1.718033203125,0.02709295228123665,-0.02380390278995037,0.05917281657457352
1782811071236104200,1.728104248046875,0.015389159321784973,-0.0005739475600421429,0.0878385454416275
1782811071246175000,1.738175048828125,0.009059486910700798,0.02196955680847168,0.10469883680343628
1782811071256247000,1.7482470703125,0.0008460314129479229,0.03629869595170021,0.1183302253484726
1782811071266318000,1.758318115234375,-0.007698500994592905,0.04249751195311546,0.11324800550937653
1782811071276389000,1.76838916015625,-0.007655357476323843,0.03738211467862129,0.09583572298288345
1782811071286461200,1.778461181640625,-0.009077632799744606,0.018822064623236656,0.06385860592126846
1782811071296532200,1.7885322265625,-0.007615290116518736,-0.0013681575655937195,0.019808854907751083
1782811071306603300,1.798603271484375,-0.008831528946757317,-0.02478918805718422,-0.02629115618765354
1782811071316675000,1.808675048828125,-0.006535883527249098,-0.04489845037460327,-0.06277219951152802
1782811071326746000,1.81874609375,-0.007271907292306423,-0.04501153528690338,-0.08132416754961014
1782811071336818200,1.828818115234375,-0.017011886462569237,-0.036300335079431534,-0.08069247007369995
1782811071346889200,1.83888916015625,-0.030196433886885643,-0.01494862511754036,-0.066707082092762
1782811071356960000,1.8489599609375,-0.0435178317129612,0.009928228333592415,-0.04430883377790451
1782811071367032000,1.859031982421875,-0.048757921904325485,0.04261000454425812,-0.015419872477650642
1782811071377103000,1.86910302734375,-0.05148952826857567,0.0712680071592331,0.0050004469230771065
1782811071387174100,1.879174072265625,-0.04522401839494705,0.08515318483114243,0.007279769517481327
1782811071397246200,1.88924609375,-0.04161223769187927,0.09157752990722656,-0.0030644803773611784
1782811071407317200,1.899317138671875,-0.03361986577510834,0.08502623438835144,-0.0265047624707222
1782811071417388300,1.90938818359375,-0.02804240584373474,0.07060174643993378,-0.05053233355283737
1782811071427460000,1.919460205078125,-0.02305416762828827,0.054319340735673904,-0.07387103140354156
1782811071437531100,1.92953125,-0.024592142552137375,0.04774213209748268,-0.08171670883893967
1782811071447602000,1.939601806640625,-0.02622142992913723,0.05681144446134567,-0.08321505784988403
1782811071457674200,1.94967431640625,-0.02717404253780842,0.07727278023958206,-0.07506632059812546
1782811071467745000,1.9597451171875,-0.027160322293639183,0.09661467373371124,-0.06748118251562119
1782811071477816000,1.969816162109375,-0.02275119163095951,0.10279720276594162,-0.061835020780563354
1782811071487888100,1.97988818359375,-0.013316584751009941,0.0969802513718605,-0.0586654432117939
1782811071497959200,1.989959228515625,0.00032359285978600383,0.07118194550275803,-0.057261690497398376
1782811071508030200,2.0000302734375,0.014050856232643127,0.04452157020568848,-0.05524488165974617
1782811071518102300,2.010102294921875,0.024886799976229668,0.038755130022764206,-0.04338941350579262
1782811071528173300,2.02017333984375,0.030972223728895187,0.04936700314283371,-0.02221623994410038
1782811071538244400,2.030244384765625,0.03887861594557762,0.07523028552532196,-0.004634316079318523
1782811071548316200,2.040316162109375,0.04035960137844086,0.08506640791893005,0.00880292896181345
1782811071558387000,2.050386962890625,0.053705766797065735,0.06396831572055817,0.0022962940856814384
1782811071568458000,2.0604580078125,0.07492862641811371,0.024436991661787033,-0.009297959506511688
1782811071578530000,2.070530029296875,0.09898176044225693,-0.0018108568619936705,-0.0071091074496507645
1782811071588601000,2.08060107421875,0.1212208941578865,-0.005697581917047501,0.007127801422029734
1782811071598672100,2.090672119140625,0.13930083811283112,0.00913515966385603,0.02772868238389492
1782811071608744200,2.100744140625,0.15747663378715515,0.021596357226371765,0.04812077432870865
1782811071618815200,2.110815185546875,0.17309820652008057,0.015144849196076393,0.06944790482521057
1782811071628886300,2.12088623046875,0.18616800010204315,-0.0011174236424267292,0.07949657738208771
1782811071638958300,2.130958251953125,0.19715167582035065,-0.015593567863106728,0.08937664330005646
1782811071649029400,2.141029296875,0.2127690613269806,-0.02667173184454441,0.1081535667181015
1782811071659100200,2.15110009765625,0.22487391531467438,-0.026683183386921883,0.13014328479766846
1782811071669172000,2.161171875,0.23696368932724,-0.00831725262105465,0.15145495533943176
1782811071679243000,2.171242919921875,0.2351607382297516,0.0058041587471961975,0.16926591098308563
1782811071689314000,2.18131396484375,0.22472403943538666,0.008484402671456337,0.17139984667301178
1782811071699386000,2.19138623046875,0.21409083902835846,0.009954201057553291,0.15973466634750366
1782811071709457200,2.20145703125,0.2110230177640915,0.006004135124385357,0.13491350412368774
1782811071719529200,2.211529296875,0.19956156611442566,-0.022263722494244576,0.10342774540185928
1782811071729600300,2.221600341796875,0.18102000653743744,-0.06054051220417023,0.07351195067167282
1782811071739671300,2.23167138671875,0.15875597298145294,-0.09846419095993042,0.05044897273182869
1782811071749743000,2.2417431640625,0.13666503131389618,-0.11824175715446472,0.03170767053961754
1782811071759814100,2.251814208984375,0.11042729765176773,-0.11396738141775131,0.015069304965436459
1782811071769885200,2.26188525390625,0.0829002633690834,-0.09902848303318024,-0.005522129591554403
1782811071779957000,2.27195703125,0.057517144829034805,-0.11565832793712616,-0.03363871946930885
1782811071790028000,2.282028076171875,0.02513067238032818,-0.14160862565040588,-0.06760887801647186
1782811071800099000,2.29209912109375,-0.0013347575441002846,-0.18339069187641144,-0.0992264598608017
1782811071810171100,2.302171142578125,-0.02836887165904045,-0.21276134252548218,-0.11778201162815094
1782811071820242200,2.3122421875,-0.04808292165398598,-0.22800074517726898,-0.11098934710025787
1782811071830313200,2.322313232421875,-0.0633162260055542,-0.20716851949691772,-0.0858728215098381
1782811071840385300,2.33238525390625,-0.07553081214427948,-0.1767544150352478,-0.048202406615018845
1782811071850456300,2.342456298828125,-0.08836372196674347,-0.160598024725914,-0.011592420749366283
1782811071860527000,2.352527099609375,-0.10054954886436462,-0.13649268448352814,0.03630027174949646
1782811071870599000,2.362598876953125,-0.11190550774335861,-0.09112934023141861,0.09453518688678741
1782811071880670000,2.372669921875,-0.12056104838848114,-0.05244772136211395,0.14573180675506592
1782811071890741000,2.382740966796875,-0.12930050492286682,-0.02587062492966652,0.18023258447647095
1782811071900813000,2.39281298828125,-0.12320826202630997,-0.020011670887470245,0.19005031883716583
1782811071910884000,2.402884033203125,-0.11274410784244537,-0.025587210431694984,0.1869848072528839
1782811071920955000,2.412954833984375,-0.1021183654665947,-0.038710203021764755,0.1785777360200882
1782811071931027000,2.42302685546875,-0.09213340282440186,-0.05674739554524422,0.1580856740474701
1782811071941098000,2.433097900390625,-0.08485338091850281,-0.07601909339427948,0.14644499123096466
1782811071951169000,2.4431689453125,-0.069828562438488,-0.06923756748437881,0.1282697468996048
1782811071961241000,2.453240966796875,-0.059284839779138565,-0.05047879368066788,0.11539683490991592
1782811071971312000,2.46331201171875,-0.05048428475856781,-0.0412134975194931,0.10062713176012039
1782811071981383200,2.473383056640625,-0.04343995824456215,-0.041946664452552795,0.07826483249664307
1782811071991455000,2.483455078125,-0.03802304342389107,-0.0312756784260273,0.05953359603881836
1782811072001526000,2.493526123046875,-0.03786112368106842,-0.01407964713871479,0.03859155997633934
1782811072011596800,2.5035966796875,-0.03584623709321022,0.007386172190308571,0.011914634145796299
1782811072021668900,2.5136689453125,-0.039130982011556625,0.0210961252450943,-0.01711808145046234
1782811072031740000,2.523739990234375,-0.035509735345840454,0.025697732344269753,-0.053259558975696564
1782811072041811000,2.53381103515625,-0.028366871178150177,0.014744950458407402,-0.09330790489912033
1782811072051883000,2.543883056640625,-0.02574445679783821,-0.018207939341664314,-0.1293807029724121
1782811072061954000,2.5539541015625,-0.025634733960032463,-0.02823527343571186,-0.14301474392414093
1782811072072025000,2.564025146484375,-0.027981603518128395,-0.0017660369630903006,-0.129181370139122
1782811072082097200,2.57409716796875,-0.0317411869764328,0.03814329579472542,-0.09983013570308685
1782811072092168200,2.584168212890625,-0.03546219319105148,0.062443651258945465,-0.07231482118368149
1782811072102239200,2.5942392578125,-0.0358736515045166,0.06758435070514679,-0.058176636695861816
1782811072112311000,2.60431103515625,-0.03831441327929497,0.052304334938526154,-0.05065976083278656
1782811072122381800,2.6143818359375,-0.041606876999139786,0.031971368938684464,-0.04387802258133888
1782811072132454000,2.624453857421875,-0.04463915154337883,0.026512421667575836,-0.01966189593076706
1782811072142525000,2.63452490234375,-0.04589642956852913,0.033774059265851974,0.004977670032531023
1782811072152596000,2.644595947265625,-0.04451104626059532,0.03357091546058655,0.02751290425658226
1782811072162668000,2.65466796875,-0.04552730917930603,0.022482044994831085,0.04381304606795311
1782811072172739000,2.664739013671875,-0.044494982808828354,0.007947985082864761,0.053546417504549026
1782811072182810000,2.67481005859375,-0.044087253510951996,-0.005503907334059477,0.06344351917505264
1782811072192882200,2.684882080078125,-0.04440166428685188,-0.017443638294935226,0.07470717281103134
1782811072202953200,2.694953125,-0.043094851076602936,-0.006370215676724911,0.09251653403043747
1782811072213024300,2.705024169921875,-0.044438283890485764,0.00828553456813097,0.10548913478851318
1782811072223096000,2.715095947265625,-0.044223103672266006,0.01775573566555977,0.10789237171411514
1782811072233166800,2.725166748046875,-0.04348177835345268,0.006130266934633255,0.09730499982833862
1782811072243238000,2.73523779296875,-0.03620202839374542,-0.004840625450015068,0.0821143314242363
1782811072253310000,2.74531005859375,-0.03321504592895508,-0.009257561527192593,0.07107605040073395
1782811072263381000,2.755381103515625,-0.024179739877581596,-0.02004283107817173,0.06377153098583221
1782811072273452000,2.7654521484375,-0.021066615357995033,-0.02120053395628929,0.057276275008916855
1782811072283524000,2.775524169921875,-0.01725829392671585,-0.011916222050786018,0.054203253239393234
1782811072293595100,2.78559521484375,-0.016946401447057724,-0.003049307968467474,0.04868245869874954
1782811072303666200,2.795666259765625,-0.007185915485024452,-0.003202972002327442,0.040460746735334396
1782811072313738000,2.805738037109375,-0.005155686754733324,-0.012898502871394157,0.027098312973976135
1782811072323809000,2.81580908203125,0.00015838496619835496,-0.022510118782520294,0.015835272148251534
1782811072333880000,2.825880126953125,0.0002143664751201868,-0.019979575648903847,0.015275420621037483
1782811072343952000,2.835951904296875,-0.0005433028563857079,-0.013704635202884674,0.021303750574588776
1782811072354023000,2.84602294921875,-0.0006740461103618145,-0.00915585458278656,0.031477220356464386
1782811072364094000,2.856093994140625,-0.004461061209440231,-0.007220801897346973,0.036887168884277344
1782811072374166000,2.866166015625,-0.008632185868918896,-0.009890511631965637,0.04440503194928169
1782811072384237000,2.876237060546875,-0.01551938708871603,0.00337735703215003,0.05684385821223259
1782811072394308000,2.88630810546875,-0.02061460167169571,0.011486944742500782,0.05788947269320488
1782811072404380200,2.896380126953125,-0.03061796724796295,0.019974440336227417,0.05433575063943863
1782811072414451200,2.906451171875,-0.03973062336444855,0.014272811822593212,0.0457087941467762
1782811072424522000,2.91652197265625,-0.04316743463277817,0.0067477840930223465,0.03510914742946625
1782811072434593800,2.92659375,-0.04924997314810753,0.006994191557168961,0.02197248488664627
1782811072444664800,2.936664794921875,-0.05053761228919029,-0.002488259691745043,0.008714736439287663
1782811072454736000,2.94673583984375,-0.05258575826883316,-0.00791159924119711,-0.001247468520887196
1782811072464808000,2.956807861328125,-0.04982219636440277,-0.011315652169287205,-0.005148200783878565
1782811072474879000,2.96687890625,-0.054825201630592346,-0.010100133717060089,-0.001788792316801846
1782811072484950000,2.976949951171875,-0.0533953495323658,-0.008508095517754555,0.0021790512837469578
1782811072495022000,2.98702197265625,-0.05125923827290535,-0.006402119994163513,0.009329276159405708
1782811072505093000,2.997093017578125,-0.04951433464884758,-0.012619535438716412,0.012138111516833305
1782811072515164200,3.0071640625,-0.04822414368391037,-0.010926312766969204,0.016433443874120712
1782811072525236200,3.017236328125,-0.0506923608481884,0.0013431364204734564,0.02971036732196808
1782811072535307000,3.02730712890625,-0.051999568939208984,0.008914656937122345,0.033397696912288666
1782811072545378000,3.0373779296875,-0.0513249933719635,0.0017787168035283685,0.03617404028773308
1782811072555449900,3.047449951171875,-0.043165817856788635,-0.006907216738909483,0.03960662707686424
1782811072565521000,3.05752099609375,-0.03795667365193367,-0.012732082977890968,0.04259629175066948
1782811072575593000,3.067593017578125,-0.028315739706158638,-0.030009204521775246,0.04868891090154648
1782811072585664000,3.0776640625,-0.01959575153887272,-0.044746339321136475,0.05833568051457405
1782811072595735000,3.087735107421875,-0.012809088453650475,-0.039598073810338974,0.07651716470718384
1782811072605807000,3.09780712890625,-0.013580339029431343,-0.03475325182080269,0.09320186823606491
1782811072615878100,3.107878173828125,-0.010275072418153286,-0.048909444361925125,0.10766975581645966
1782811072625949000,3.117948974609375,-0.007324290461838245,-0.04815364256501198,0.11954772472381592
1782811072636021200,3.128021240234375,-0.0004971659509465098,-0.03940621390938759,0.12540090084075928
1782811072646092000,3.138092041015625,0.004186268895864487,-0.029383141547441483,0.13706262409687042
1782811072656163000,3.1481630859375,0.0037076440639793873,-0.024828879162669182,0.13175073266029358
1782811072666235000,3.15823486328125,0.0011022735852748156,-0.0274619460105896,0.12822124361991882
1782811072676306000,3.168305908203125,-0.005445484537631273,-0.020937751978635788,0.11148693412542343
1782811072686377000,3.178376953125,-0.021979186683893204,0.0070587280206382275,0.08928974717855453
1782811072696449000,3.188448974609375,-0.0450105257332325,0.02294633910059929,0.048582322895526886
1782811072706520000,3.19852001953125,-0.05669621005654335,-0.0031185499392449856,0.007229554932564497
1782811072716591000,3.208591064453125,-0.0595785491168499,-0.036765992641448975,-0.02811565063893795
1782811072726663200,3.2186630859375,-0.06432297080755234,-0.0639725774526596,-0.05442395433783531
1782811072736734000,3.22873388671875,-0.06591960042715073,-0.08035293966531754,-0.05811034515500069
1782811072746805000,3.238804931640625,-0.057298678904771805,-0.08521853387355804,-0.056186478585004807
1782811072756877000,3.248876953125,-0.047587595880031586,-0.0921631008386612,-0.04956487938761711
1782811072766948000,3.258947998046875,-0.03635384887456894,-0.09581402689218521,-0.03921796754002571
1782811072777019100,3.26901904296875,-0.035931847989559174,-0.09670354425907135,-0.020283497869968414
1782811072787091000,3.279091064453125,-0.033398646861314774,-0.0839850902557373,0.005698034539818764
1782811072797162000,3.289161865234375,-0.03334992006421089,-0.04644281789660454,0.040112901479005814
1782811072807233000,3.29923291015625,-0.02870377153158188,-0.016230586916208267,0.06584382802248001
1782811072817305000,3.30930517578125,-0.016265302896499634,-0.007790425792336464,0.07928705960512161
1782811072827376000,3.319376220703125,0.003634104272350669,-0.027728712186217308,0.06831882894039154
1782811072837447000,3.329447021484375,0.024633165448904037,-0.05883371829986572,0.0475572906434536
1782811072847519000,3.33951904296875,0.044226840138435364,-0.08709598332643509,0.02747892215847969
1782811072857590000,3.349590087890625,0.054892729967832565,-0.10561516880989075,0.018917517736554146
1782811072867661000,3.3596611328125,0.059763118624687195,-0.12167775630950928,0.01581546850502491
1782811072877733000,3.369733154296875,0.05722480267286301,-0.12337367236614227,0.023302998393774033
1782811072887804000,3.379803955078125,0.058837614953517914,-0.11458230763673782,0.043294817209243774
1782811072897875000,3.389875,0.05421419069170952,-0.09593040496110916,0.05818283185362816
1782811072907946800,3.39994677734375,0.04087361693382263,-0.07249138504266739,0.07498951256275177
1782811072918017800,3.410017822265625,0.030443981289863586,-0.023507896810770035,0.08304368704557419
1782811072928088800,3.4200888671875,0.012981900945305824,0.02261965163052082,0.07837357372045517
1782811072938161000,3.430160888671875,-0.00043360807467252016,0.04770958423614502,0.06122656166553497
1782811072948232000,3.44023193359375,-0.00198676367290318,0.04303227365016937,0.03142552077770233
1782811072958303000,3.450302978515625,-0.0012139510363340378,0.01790064014494419,-0.010408946312963963
1782811072968375000,3.460375,0.0062045506201684475,0.005652229301631451,-0.04091465845704079
1782811072978446000,3.470446044921875,0.014543780125677586,0.022104809060692787,-0.0508292019367218
1782811072988516900,3.480516845703125,0.005790502764284611,0.04205081984400749,-0.05736912414431572
1782811072998589000,3.4905888671875,-0.01022985391318798,0.047312673181295395,-0.06672834604978561
1782811073008659700,3.50065966796875,-0.02773534320294857,0.04471609368920326,-0.07585553079843521
1782811073018731800,3.510731689453125,-0.051507510244846344,0.03964681178331375,-0.0834592953324318
1782811073028802800,3.520802734375,-0.07543334364891052,0.04028170928359032,-0.09097713232040405
1782811073038873900,3.530873779296875,-0.09866582602262497,0.03537658974528313,-0.09483320266008377
1782811073048946000,3.54094580078125,-0.1216779351234436,0.04894113540649414,-0.08466792106628418
1782811073059017000,3.551016845703125,-0.13472972810268402,0.0559188574552536,-0.06676563620567322
1782811073069088000,3.561087890625,-0.14198683202266693,0.034889739006757736,-0.05422002077102661
1782811073079160000,3.57116015625,-0.13665303587913513,0.003780422732234001,-0.044416554272174835
1782811073089231000,3.581231201171875,-0.12729735672473907,-0.014994862489402294,-0.028392579406499863
1782811073099302000,3.591302001953125,-0.11967578530311584,-0.028796587139368057,0.0014199954457581043
1782811073109373700,3.601373779296875,-0.1142975315451622,-0.02086728997528553,0.034034132957458496
1782811073119444700,3.61144482421875,-0.11235325038433075,-0.008281114511191845,0.06405473500490189
1782811073129515800,3.621515869140625,-0.10798486322164536,-0.0028354828245937824,0.08795660734176636
1782811073139587800,3.631587890625,-0.10008083283901215,0.004544323310256004,0.09843261539936066
1782811073149659000,3.641658935546875,-0.0882452130317688,0.00006302213296294212,0.09282319992780685
1782811073159730000,3.65172998046875,-0.06947280466556549,-0.026601649820804596,0.0650675818324089
1782811073169802000,3.661802001953125,-0.050848789513111115,-0.052828460931777954,0.03179830685257912
1782811073179873000,3.671873046875,-0.030671121552586555,-0.08213352411985397,-0.0008003993425518274
1782811073189943800,3.68194384765625,-0.018157195299863815,-0.1044050008058548,-0.025831717997789383
1782811073200016000,3.692015869140625,-0.015065052546560764,-0.09351882338523865,-0.027788201346993446
1782811073210087000,3.7020869140625,-0.022452127188444138,-0.07916944473981857,-0.021290088072419167
1782811073220158000,3.712157958984375,-0.022129904478788376,-0.0732826218008995,-0.018427466973662376
1782811073230229800,3.722229736328125,-0.022082500159740448,-0.09714587032794952,-0.028711263090372086
1782811073240300800,3.73230078125,-0.018809152767062187,-0.12198890000581741,-0.03309088572859764
1782811073250371800,3.742371826171875,-0.016093794256448746,-0.11854010820388794,-0.029036488384008408
1782811073260444000,3.75244384765625,-0.0184331052005291,-0.102850042283535,-0.01943036913871765
1782811073270515000,3.762514892578125,-0.021180422976613045,-0.08404786139726639,-0.00666770339012146
1782811073280586000,3.7725859375,-0.025741389021277428,-0.06761607527732849,-0.0024217618629336357
1782811073290658000,3.782657958984375,-0.02438344433903694,-0.06807680428028107,-0.0061959936283528805
1782811073300728800,3.792728759765625,-0.023340916261076927,-0.07272718846797943,-0.010551839135587215
1782811073310800000,3.8027998046875,-0.019113149493932724,-0.06301597505807877,-0.004002060275524855
1782811073320872000,3.812871826171875,-0.013952034525573254,-0.0499458946287632,0.013609274290502071
1782811073330943000,3.82294287109375,-0.012673716992139816,-0.023980075493454933,0.026827340945601463
1782811073341014000,3.833013916015625,-0.01239078864455223,0.0031159655191004276,0.0324053131043911
1782811073351085800,3.8430859375,-0.010753476992249489,0.01809944212436676,0.026368191465735435
1782811073361156900,3.853156982421875,-0.008328834548592567,0.0016935454914346337,-0.00027649052208289504
1782811073371228000,3.863227783203125,-0.0014701294712722301,-0.020280729979276657,-0.0385194830596447
1782811073381300000,3.873300048828125,0.011651817709207535,-0.02811034396290779,-0.06958258152008057
1782811073391371000,3.88337109375,0.020605098456144333,-0.05841605365276337,-0.10299912840127945
1782811073401441800,3.89344189453125,0.02566477470099926,-0.08117601275444031,-0.12687920033931732
1782811073411513900,3.903513916015625,0.02674548514187336,-0.08376726508140564,-0.1403803676366806
1782811073421585000,3.9135849609375,0.026914851740002632,-0.08359473943710327,-0.1430785208940506
1782811073431656000,3.923656005859375,0.027370519936084747,-0.07137295603752136,-0.13879083096981049
1782811073441728000,3.93372802734375,0.022852981463074684,-0.045338522642850876,-0.12886682152748108
1782811073451799000,3.943799072265625,0.02137625776231289,-0.02742743119597435,-0.1168367937207222
1782811073461870000,3.9538701171875,0.019796598702669144,-0.02300567738711834,-0.11211039870977402
1782811073471942000,3.96394189453125,0.02103603444993496,-0.028860904276371002,-0.10879956185817719
1782811073482013000,3.974012939453125,0.026489095762372017,-0.03086133860051632,-0.107383131980896
1782811073492083700,3.984083740234375,0.030276909470558167,-0.04072994738817215,-0.10027914494276047
1782811073502155800,3.99415576171875,0.03418213129043579,-0.04854198545217514,-0.09815840423107147
1782811073512226800,4.004226806640625,0.03921417519450188,-0.04882907122373581,-0.0880008414387703
1782811073522297900,4.0142978515625,0.04268607497215271,-0.041780274361371994,-0.07908515632152557
1782811073532370000,4.024369873046875,0.04660091921687126,-0.0486762635409832,-0.07324271649122238
1782811073542441000,4.03444091796875,0.04896167293190956,-0.045121099799871445,-0.06435219943523407
1782811073552512800,4.0445126953125,0.051025357097387314,-0.03882379084825516,-0.05124838277697563
1782811073562583800,4.054583740234375,0.05363045632839203,-0.040543973445892334,-0.028569532558321953
1782811073572654800,4.06465478515625,0.06018263101577759,-0.02444995753467083,0.004064577165991068
1782811073582727000,4.074726806640625,0.05773932486772537,0.016175439581274986,0.044628530740737915
1782811073592798000,4.0847978515625,0.05418986454606056,0.03743359073996544,0.07107558101415634
1782811073602868700,4.09486865234375,0.056769467890262604,0.027262764051556587,0.07407328486442566
1782811073612940800,4.10494091796875,0.06075621768832207,0.007159627042710781,0.06463796645402908
1782811073623011800,4.11501171875,0.06498904526233673,-0.017572883516550064,0.056833572685718536
1782811073633083000,4.125082763671875,0.06758695840835571,-0.03166712820529938,0.05660746991634369
1782811073643155000,4.135155029296875,0.06926164776086807,-0.0193058792501688,0.06628794223070145
1782811073653226000,4.14522607421875,0.06515558063983917,-0.006100861355662346,0.07698506116867065
1782811073663297000,4.155297119140625,0.06437841802835464,-0.0012928450014442205,0.08177631348371506
1782811073673368800,4.165368896484375,0.06161484867334366,-0.01429279986768961,0.06660401821136475
1782811073683439900,4.17543994140625,0.06732949614524841,-0.02541077882051468,0.04840097948908806
1782811073693511000,4.185510986328125,0.07344171404838562,-0.024680806323885918,0.032382067292928696
1782811073703583000,4.1955830078125,0.06688715517520905,-0.02834978885948658,0.02254204824566841
1782811073713653800,4.20565380859375,0.06545757502317429,-0.024092992767691612,0.019751587882637978
1782811073723724800,4.215724853515625,0.0577823668718338,-0.003332987893372774,0.03268187493085861
1782811073733796900,4.225796875,0.05330905690789223,0.01121506281197071,0.04146790876984596
1782811073743868000,4.235867919921875,0.053518734872341156,0.010195314884185791,0.03883596137166023
1782811073753939000,4.24593896484375,0.0527578666806221,0.003532352624461055,0.028199829161167145
1782811073764011000,4.256010986328125,0.053743042051792145,-0.007968508638441563,0.0082542197778821
1782811073774082000,4.26608203125,0.0499831922352314,-0.014262091368436813,-0.015692390501499176
1782811073784153000,4.276153076171875,0.053051646798849106,-0.01968260481953621,-0.03570332005620003
1782811073794225000,4.286224853515625,0.0520353838801384,-0.02088848501443863,-0.050611428916454315
1782811073804296000,4.2962958984375,0.05193711444735527,-0.027475813403725624,-0.05600592866539955
1782811073814366700,4.30636669921875,0.05289185792207718,-0.031936872750520706,-0.0536399781703949
1782811073824438800,4.316438720703125,0.053841061890125275,-0.031516075134277344,-0.04110141843557358
1782811073834509800,4.326509765625,0.05774179473519325,-0.03184390813112259,-0.025363201275467873
1782811073844580900,4.336580810546875,0.060540683567523956,-0.03407394886016846,-0.010048313066363335
1782811073854653000,4.34665283203125,0.06432797014713287,-0.030337803065776825,0.008311519399285316
1782811073864724000,4.356723876953125,0.06800903379917145,-0.02673301100730896,0.03126249462366104
1782811073874795000,4.366794921875,0.06527689844369888,-0.025186780840158463,0.04986467584967613
1782811073884867000,4.3768671875,0.0652351975440979,-0.014718132093548775,0.061917953193187714
1782811073894938000,4.386938232421875,0.057615090161561966,-0.009505528025329113,0.06921234726905823
1782811073905009000,4.3970087890625,0.05118319019675255,0.00011889624875038862,0.07731343805789948
1782811073915080700,4.407080810546875,0.044218759983778,0.005012454465031624,0.07694991677999496
1782811073925151700,4.41715185546875,0.032700248062610626,-0.003227206878364086,0.06988067924976349
1782811073935222800,4.427222900390625,0.023951763287186623,-0.013922727666795254,0.06153993308544159
1782811073945294800,4.437294921875,0.017608635127544403,-0.01430116780102253,0.05451379343867302
1782811073955366000,4.447365966796875,0.016040299087762833,-0.012184220366179943,0.050585631281137466
1782811073965437000,4.45743701171875,0.012551377527415752,-0.003387421602383256,0.05074094980955124
1782811073975509000,4.467509033203125,0.004152832552790642,0.009875120595097542,0.04514751210808754
1782811073985580000,4.477580078125,0.0022558816708624363,0.009139372035861015,0.03908483684062958
1782811073995651000,4.487651123046875,-0.00031327002216130495,0.0029616376850754023,0.029642600566148758
1782811074005723000,4.497722900390625,-0.0005410899175330997,0.007927577011287212,0.026872657239437103
1782811074015794000,4.5077939453125,-0.004470850341022015,0.006956055760383606,0.02474053017795086
1782811074025865000,4.517864990234375,-0.0051668556407094,0.014527648687362671,0.023844650015234947
1782811074035936800,4.527936767578125,-0.007033199071884155,0.018213730305433273,0.020406244322657585
1782811074046007800,4.5380078125,-0.007093559950590134,0.009454770013689995,0.013280575163662434
1782811074056078800,4.548078857421875,-0.008076000027358532,-0.0018926928751170635,0.00045665603829547763
1782811074066151000,4.55815087890625,-0.015256018377840519,-0.010102582164108753,-0.005956948269158602
1782811074076222000,4.568221923828125,-0.008713963441550732,-0.012907690368592739,-0.006756961811333895
1782811074086293000,4.57829296875,-0.006672651041299105,-0.01161632314324379,-0.0030687504913657904
1782811074096365000,4.588364990234375,-0.000010992051102221012,-0.004588375333696604,0.007991730235517025
1782811074106436000,4.59843603515625,0.004118376411497593,0.0005945628508925438,0.016156097874045372
1782811074116507000,4.6085068359375,0.006289651617407799,0.0027333474718034267,0.01644744724035263
1782811074126578700,4.61857861328125,0.0069770412519574165,-0.0036972546949982643,0.018006836995482445
1782811074136649700,4.628649658203125,0.006299533881247044,-0.005349746439605951,0.016996165737509727
1782811074146720800,4.638720703125,0.007777495309710503,-0.012626219540834427,0.020679699257016182
1782811074156792800,4.648792724609375,0.00577905960381031,-0.01427391730248928,0.03011368215084076
1782811074166864000,4.65886376953125,0.00772200059145689,-0.009826412424445152,0.036523133516311646
1782811074176935000,4.668934814453125,0.008647449314594269,-0.003394612343981862,0.044815950095653534
1782811074187007000,4.679007080078125,0.008327172137796879,0.003860611468553543,0.04863463714718819
1782811074197078000,4.689078125,0.00478463526815176,0.007371722720563412,0.04057884216308594
1782811074207150000,4.699150146484375,0.007593939080834389,0.0012503954349085689,0.028058210387825966
1782811074217220900,4.709220947265625,0.003237274009734392,-0.01811930723488331,0.010523959994316101
1782811074227292000,4.7192919921875,0.0016140853986144066,-0.022452471777796745,0.0023039383813738823
1782811074237363700,4.72936376953125,0.0004851714475080371,-0.01478469930589199,0.00957064051181078
1782811074247434800,4.739434814453125,0.002281207125633955,0.0003069021040573716,0.017863990738987923
1782811074257505800,4.749505859375,0.006038128398358822,0.00814511813223362,0.013471106067299843
1782811074267577900,4.759577880859375,0.01363742258399725,0.005847150459885597,0.0036243991926312447
1782811074277649000,4.76964892578125,0.01249013189226389,0.006298555992543697,-0.009233076125383377
1782811074287720000,4.779719970703125,0.009160741232335567,-0.000637467484921217,-0.01994629018008709
1782811074297792000,4.7897919921875,0.004948685877025127,-0.0038814640138298273,-0.02469577081501484
1782811074307863000,4.799863037109375,0.0025546972174197435,0.000506784301251173,-0.016947440803050995
1782811074317933800,4.809933837890625,0.00017223338363692164,-0.00006233318708837032,-0.012315405532717705
1782811074328006000,4.820005859375,-0.003632138017565012,-0.0020298417657613754,-0.007349444553256035
1782811074338077000,4.830076904296875,-0.0017170589417219162,-0.00044579338282346725,-0.0009354870999231935
1782811074348148000,4.84014794921875,-0.007287034299224615,-0.004930395632982254,-0.005148053169250488
1782811074358219800,4.8502197265625,-0.009722761809825897,-0.0045607490465044975,0.0032187998294830322
1782811074368290800,4.860290771484375,-0.014877619221806526,0.006550242658704519,0.013816554099321365
1782811074378361900,4.87036181640625,-0.016204673796892166,0.016118712723255157,0.019113846123218536
1782811074388434000,4.880433837890625,-0.016768090426921844,0.015818342566490173,0.018387408927083015
1782811074398505000,4.8905048828125,-0.014531034044921398,0.007697831839323044,0.011701278388500214
1782811074408576000,4.900575927734375,-0.019416943192481995,0.008760054595768452,0.005987062584608793
1782811074418648000,4.91064794921875,-0.018855547532439232,0.00422202842310071,0.006274950224906206
1782811074428718800,4.92071875,-0.01915542036294937,0.003918960690498352,0.00521740922704339
1782811074438790000,4.930789794921875,-0.019412415102124214,0.006821273826062679,-0.001912938547320664
1782811074448862000,4.940862060546875,-0.014650445431470871,-0.0007182643748819828,-0.00872461311519146
1782811074458933000,4.95093310546875,-0.010467151179909706,-0.01013786531984806,-0.016507169231772423
1782811074469004000,4.961004150390625,-0.005332015920430422,-0.002093924442306161,-0.018017074093222618
1782811074479075800,4.971075927734375,-0.008639395236968994,0.0019298456609249115,-0.020475171506404877
1782811074489147000,4.98114697265625,-0.006077241152524948,0.0037223119288682938,-0.016706936061382294
1782811074499218000,4.991218017578125,-0.009584624320268631,0.002163829980418086,-0.015743404626846313
1782811074509290000,5.0012900390625,-0.007599375676363707,0.0032323983032256365,-0.01509563997387886
1782811074519360800,5.01136083984375,-0.006929590832442045,-0.0009975002612918615,-0.005196137819439173
1782811074529431800,5.021431884765625,-0.003855467075482011,0.0048163654282689095,0.008088179863989353
1782811074539503900,5.03150390625,-0.004618729464709759,0.009199129417538643,0.017985284328460693
1782811074549575000,5.041574951171875,-0.0033342863898724318,0.005934626795351505,0.02698597125709057
1782811074559646000,5.05164599609375,-0.0025574422907084227,0.003888786304742098,0.0313359759747982
1782811074569717800,5.0617177734375,-0.002603728324174881,0.0009716023923829198,0.030471637845039368
1782811074579788800,5.071788818359375,-0.003626648336648941,-0.005851682275533676,0.024087509140372276
1782811074589859800,5.08185986328125,-0.008523935452103615,-0.0068351877853274345,0.025286730378866196
1782811074599932000,5.091931884765625,-0.008654696866869926,-0.007306301034986973,0.027682509273290634
1782811074610003000,5.1020029296875,-0.007612609304487705,0.00539717823266983,0.03456588834524155
1782811074620073700,5.11207373046875,-0.007199553772807121,0.011975452303886414,0.029797501862049103
1782811074630145800,5.122145751953125,-0.009112739935517311,0.006699859164655209,0.017719373106956482
1782811074640216800,5.132216796875,-0.010558038018643856,0.0009034895338118076,-0.0020037307403981686
1782811074650287900,5.142287841796875,-0.011908838525414467,-0.003931982442736626,-0.014275344088673592
1782811074660360000,5.15235986328125,-0.014370664954185486,-0.01827523671090603,-0.027671843767166138
1782811074670431000,5.162430908203125,-0.01634855754673481,-0.023693252354860306,-0.031604330986738205
1782811074680502000,5.172501953125,-0.0066107092425227165,-0.02389778383076191,-0.03240061551332474
1782811074690573800,5.18257373046875,-0.008944060653448105,-0.02202954888343811,-0.026975147426128387
1782811074700644900,5.192644775390625,-0.006980779115110636,-0.010119627229869366,-0.020959068089723587
1782811074710716000,5.2027158203125,-0.01612178608775139,0.0009531300747767091,-0.015249143354594707
1782811074720788000,5.2127880859375,-0.01555213425308466,0.01289554312825203,-0.0072037335485219955
1782811074730858800,5.222858642578125,-0.022273585200309753,0.02613781951367855,0.0021711045410484076
1782811074740929800,5.2329296875,-0.017933698371052742,0.019048484042286873,-0.004198111593723297
1782811074751001900,5.243001953125,-0.014332729391753674,0.005488232709467411,-0.019898971542716026
1782811074761073000,5.253072998046875,-0.008380564860999584,-0.0010413057170808315,-0.03267255425453186
1782811074771144000,5.26314404296875,-0.0060115172527730465,0.005707968957722187,-0.04386819899082184
1782811074781216000,5.273216064453125,-0.007585445418953896,0.0053444476798176765,-0.05568144842982292
1782811074791287000,5.283287109375,-0.006799987051635981,-0.012189356610178947,-0.0629916712641716
1782811074801358000,5.293358154296875,-0.0023213487584143877,-0.013804829679429531,-0.06617974489927292
1782811074811430000,5.303429931640625,0.000916502729523927,-0.00021958001889288425,-0.06675713509321213
1782811074821501000,5.3135009765625,0.001928237616084516,0.004807402845472097,-0.0599527582526207
1782811074831571700,5.32357177734375,0.003562639467418194,0.00005639065057039261,-0.053343839943408966
1782811074841643800,5.333643798828125,0.0023807284887880087,-0.0011931643821299076,-0.04441665858030319
1782811074851714800,5.34371484375,0.004252159968018532,0.007514440920203924,-0.028998447582125664
1782811074861785900,5.353785888671875,0.008688187226653099,0.01869519054889679,-0.017313562333583832
1782811074871858000,5.36385791015625,0.007341894321143627,0.027742691338062286,-0.004681433085352182
1782811074881929000,5.373928955078125,0.006091807037591934,0.031945426017045975,0.0019660834223031998
1782811074892000000,5.384,0.0037493351846933365,0.025510409846901894,-0.001160969608463347
1782811074902072000,5.394072021484375,0.004681974183768034,0.020598210394382477,0.000470749189844355
1782811074912143000,5.40414306640625,0.0070301564410328865,0.01320565678179264,0.001476494362577796
1782811074922214000,5.4142138671875,0.009974280372262001,0.0027524828910827637,0.006191621068865061
1782811074932285700,5.42428564453125,0.013784372247755527,0.0037699067033827305,0.008983258157968521
1782811074942356700,5.434356689453125,0.014902100898325443,0.002274275291711092,0.014332749880850315
1782811074952427800,5.444427734375,0.015700343996286392,-0.004450302571058273,0.019208353012800217
1782811074962499800,5.454499755859375,0.0196002759039402,-0.00851668231189251,0.01706903614103794
1782811074972571000,5.46457080078125,0.021106954663991928,-0.008885164745151997,0.020806604996323586
1782811074982642000,5.474641845703125,0.02130136638879776,-0.0056885723024606705,0.026407498866319656
1782811074992714000,5.4847138671875,0.0201290063560009,0.003586761187762022,0.032093677669763565
1782811075002785000,5.494784912109375,0.02252957969903946,0.01035678293555975,0.025544432923197746
1782811075012856000,5.50485595703125,0.02460663579404354,0.007806003093719482,0.0036398801021277905
1782811075022928000,5.514927978515625,0.023554420098662376,0.000132104498334229,-0.02041272446513176
1782811075032999000,5.5249990234375,0.020395688712596893,0.0014524782309308648,-0.031741514801979065
1782811075043070000,5.535070068359375,0.020156271755695343,0.01152934692800045,-0.03311171010136604
1782811075053141800,5.545141845703125,0.017459793016314507,0.01650587096810341,-0.04036121442914009
1782811075063212800,5.555212890625,0.01669226959347725,0.021785853430628777,-0.04920050874352455
1782811075073283800,5.565283935546875,0.01910049468278885,0.006276021245867014,-0.07244151830673218
1782811075083356000,5.57535595703125,0.015723872929811478,-0.012719773687422276,-0.0939907506108284
1782811075093427000,5.585427001953125,0.00707835890352726,-0.0319727398455143,-0.10369333624839783
1782811075103498000,5.595498046875,-0.002299695974215865,-0.03253227099776268,-0.09388437867164612
1782811075113570000,5.605570068359375,-0.014208193868398666,-0.01040602009743452,-0.07117971032857895
1782811075123641000,5.61564111328125,-0.018937435001134872,0.008020658046007156,-0.06162269413471222
1782811075133713000,5.625712890625,-0.03131752833724022,0.02331382781267166,-0.0413922518491745
1782811075143783700,5.63578369140625,-0.06115318834781647,0.030860960483551025,-0.014768898487091064
1782811075153854700,5.645854736328125,-0.07374075055122375,-0.052235957235097885,-0.02595515176653862
1782811075163925800,5.65592578125,-0.08071637153625488,-0.06898591667413712,-0.00742114894092083
1782811075173997800,5.665997802734375,-0.0880846455693245,-0.08365730196237564,0.008253348059952259
1782811075184068900,5.67606884765625,-0.1081869825720787,-0.0635906532406807,0.025692258030176163
1782811075194140000,5.686139892578125,-0.126887246966362,-0.03969842195510864,0.036666836589574814
1782811075204212000,5.6962119140625,-0.1286901980638504,-0.022842740640044212,0.035179730504751205
1782811075214284800,5.706284912109375,-0.11467817425727844,0.0050643086433410645,0.039912208914756775
1782811075224355800,5.71635595703125,-0.0996137410402298,0.036596134305000305,0.05090227350592613
1782811075234428000,5.726427978515625,-0.09620235115289688,0.0009970956016331911,0.02148367092013359
