time,seconds_elapsed,z,y,x
1782811790593966800,0.077966796875,0.8335878359258174,-0.4598733273632824,0.2615665313720703
1782811790604038000,0.088037841796875,1.273603055000305,-0.38079686803892254,0.3262758810393512
1782811790614109700,0.098109619140625,1.5738783794730902,-0.3789174840331077,0.38596155732572074
1782811790624180700,0.1081806640625,1.6181752018392086,-0.4001059641428292,0.4258379329010844
1782811790634252800,0.118252685546875,1.499119783347845,-0.3372372739061713,0.4221118981152773
1782811790644324900,0.128324951171875,1.5048428371697664,-0.22809388535916805,0.3972707407169044
1782811790654396000,0.13839599609375,1.4649234992355107,-0.09439180961698293,0.37987799962833524
1782811790664467700,0.1484677734375,1.3473960209637879,0.08226867949441075,0.35487624484077096
1782811790674538800,0.158538818359375,1.2072422848641873,0.23027897431328892,0.29172713022753594
1782811790684610800,0.16861083984375,1.1048375569224358,0.35903497195541856,0.23087518664076923
1782811790694681900,0.178681884765625,1.0848054072409867,0.34552477138862014,0.10745821193903685
1782811790704754000,0.18875390625,1.0374661484390497,0.20490254099443553,-0.04282236589938402
1782811790714825000,0.198824951171875,0.9617086044043301,-0.06095408878698945,-0.2648905612282455
1782811790724897000,0.20889697265625,0.7437608500063418,-0.28197862028181553,-0.5091039528697728
1782811790734968000,0.218968017578125,0.3069377049714327,-0.32858006632849573,-0.7532895797215402
1782811790745040000,0.229039794921875,-0.24551672932505605,-0.26896760140880943,-1.0499075507305562
1782811790755110700,0.239110595703125,-0.6311410175204276,-0.02936521069407463,-1.3154141980305314
1782811790765182700,0.2491826171875,-0.6972650562912225,0.3410224915333092,-1.4839100853867828
1782811790775253800,0.259253662109375,-0.5037339502692222,0.7246279872521758,-1.5408384257890284
1782811790785325800,0.269325927734375,-0.12719371676146984,1.12318102286458,-1.503207637183368
1782811790795397600,0.279397705078125,0.20466274088919162,1.4282637476190925,-1.4723995342046021
1782811790805468700,0.28946875,0.08343407001197338,1.6078104596912859,-1.516671222129464
1782811790815540700,0.299540771484375,-0.6350076298207045,1.807449381069094,-1.5063824678272009
1782811790825611800,0.30961181640625,-1.787302518966794,1.9505692734979092,-1.403940184354037
1782811790835683800,0.319683837890625,-2.881848398977518,1.76530286860466,-1.4025680192179977
1782811790845755000,0.3297548828125,-3.7560406324923035,1.2170184134691953,-1.5105945325642822
1782811790855827000,0.339826904296875,-4.5968104888767005,0.44796267094761133,-1.6800374915122984
1782811790865898000,0.34989794921875,-5.626282715952396,-0.2671956233002245,-1.847028235002607
1782811790875969800,0.3599697265625,-6.789182585743069,-0.5058224469810724,-1.8910329425543546
1782811790886040800,0.370040771484375,-7.72034056906104,-0.4865644965425133,-1.7662635303303598
1782811790896113000,0.38011279296875,-8.340566224813461,-0.5924865849554538,-1.6349087483666835
1782811790906184000,0.390183837890625,-8.77324920130372,-0.6860504193156958,-1.5757126091629265
1782811790916256000,0.400256103515625,-8.78809313469231,-0.7875935619920492,-1.5959144163228571
1782811790926326800,0.410326904296875,-8.154671312758326,-1.1003929986037313,-1.5361358010560273
1782811790936398800,0.42039892578125,-6.972034476840496,-1.9415783039212227,-1.4041057501792906
1782811790946470700,0.430470703125,-5.281243536123633,-2.981635053375363,-1.3791362902261315
1782811790956541700,0.440541748046875,-3.4412872853338716,-3.8440298815906044,-1.6496309550717472
1782811790966613800,0.45061376953125,-2.1037533176928758,-4.414038092756271,-2.0704070745386183
1782811790976684800,0.460684814453125,-0.7831260611891746,-4.625934876552224,-2.4208244402743873
1782811790986756900,0.4707568359375,0.12401274863779545,-4.2903263728916645,-2.236578026078641
1782811790996828000,0.480827880859375,-0.6170785898983479,-3.6313112600177524,-1.6991870131403206
1782811791006899700,0.490899658203125,-1.9695546906054018,-1.896587215680629,-1.1960117927324025
1782811791016970800,0.500970703125,-2.0507862821370364,0.2653463421717286,-0.44674438119903204
1782811791027042800,0.511042724609375,-1.748696601718664,1.7012817934624849,0.6438434088356793
1782811791037113900,0.52111376953125,-1.6575988652110099,2.3169854417458176,1.7729834862351417
1782811791047186000,0.53118603515625,-0.9955161814600229,2.0983099575951694,2.3268416498497126
1782811791057257000,0.541257080078125,1.1560253078460692,1.178619197774306,1.9812888214103876
1782811791067329000,0.5513291015625,4.220829642817378,0.01367850633841008,1.4726549702703953
1782811791077400800,0.56140087890625,6.259252702465653,-0.9370869349755346,1.4578911163806914
1782811791087471900,0.571471923828125,6.581007452818751,-1.3852122491389511,1.6949992060616612
1782811791097544000,0.5815439453125,6.225733294701576,-1.5500795707345008,1.798412526524067
1782811791107614700,0.59161474609375,6.443288250389695,-1.3813247401811182,1.8144113290362058
1782811791117686800,0.601686767578125,6.824252730080485,-1.0474451792050152,1.8681532944872974
1782811791127757800,0.6117578125,7.1943889417648315,-0.427175209386833,2.4276380658119914
1782811791137830000,0.621829833984375,7.426163561463356,0.07779297711877152,2.9998148531883952
1782811791147901400,0.6319013671875,7.472059051197767,0.3722499159026891,3.182517106682062
1782811791157973500,0.641973388671875,7.524587110814451,0.5992455211637542,3.0831150676876304
1782811791168044500,0.65204443359375,7.6311559726983305,0.7069607400711625,2.8174370093435046
1782811791178116600,0.66211669921875,7.869881726709008,0.7056970037456601,2.711981369398534
1782811791188187600,0.672187744140625,8.260340595453977,0.7823321343325078,2.954387857748568
1782811791198259700,0.682259765625,8.634162802174687,0.8628146610625088,3.3580504914596676
1782811791208330800,0.692330810546875,8.624819804289936,0.7812633360572159,3.402926575018465
1782811791218402600,0.702402587890625,8.625554548305272,0.662727995917201,3.1526737570822236
1782811791228474600,0.712474609375,8.694063436385989,0.42761568316332993,2.839439874576032
1782811791238545400,0.72254541015625,8.236512560620904,0.15425810316726565,2.607436414557695
1782811791248617500,0.732617431640625,7.259747256860137,0.30575865125469864,2.4211546951420604
1782811791258688500,0.7426884765625,6.073659988227487,0.7972492060225457,2.234155475106835
1782811791268760300,0.75276025390625,4.919135732594132,1.113878649251163,2.037497761496901
1782811791278831400,0.762831298828125,4.425302414092421,1.2652949531212447,1.7665213044837116
1782811791288903400,0.7729033203125,4.456306624165177,1.4535171390801667,1.724877042452991
1782811791298974500,0.782974365234375,3.9904929469674824,1.6896341718971728,1.85699111835137
1782811791309046500,0.793046630859375,2.617095638784766,1.9438504866369068,1.8199989199101925
1782811791319117600,0.80311767578125,0.5288222142964601,2.137375455179065,1.6206236179046332
1782811791329189600,0.813189697265625,-1.9622762240350244,2.259382270821929,1.1692675781916826
1782811791339260700,0.8232607421875,-4.546698842751979,2.1722981538698076,0.19415384103022515
1782811791349332500,0.83333251953125,-6.705888216462731,1.6548421138487754,-0.7583383144784718
1782811791359404500,0.843404541015625,-8.177724856087565,0.9146557613283395,-1.4838083785779774
1782811791369475600,0.8534755859375,-8.831635923820734,0.774912797986716,-1.8905533423438667
1782811791379547600,0.863547607421875,-9.218392430916428,0.9851980549328029,-1.6441941708452998
1782811791389618400,0.873618408203125,-9.497391743126512,0.6522612546995282,-1.4534868900723754
1782811791399690800,0.883690673828125,-8.354657878530025,-0.43423488210737704,-2.1262311069607733
1782811791409761500,0.893761474609375,-5.88471036477685,-1.8401894750237464,-3.3490982464581727
1782811791419833300,0.903833251953125,-4.022807655116916,-3.0281659184038636,-3.4714603052794932
1782811791429904400,0.913904296875,-4.18572618073225,-4.3904239929348226,-2.232852283553779
1782811791439976400,0.9239765625,-5.596787741398811,-5.401516513711214,-1.1845461766704917
1782811791450047500,0.934047607421875,-6.743172529718279,-5.833575805345177,-1.1734243325449525
1782811791460119600,0.94411962890625,-8.01065096435845,-5.4050458568811415,-1.4371744915664195
1782811791470190600,0.954190673828125,-9.875314955425262,-4.332645757704973,-1.4274616374559699
1782811791480262400,0.964262451171875,-11.553830351936817,-3.424144135092199,-1.2232386031582951
1782811791490333400,0.97433349609375,-12.064952658891677,-2.8228964437931774,-0.9834595407024025
1782811791500405500,0.984405517578125,-11.452434508776664,-2.5996590585544705,-0.6948851754173636
1782811791510476500,0.9944765625,-10.175373422276973,-2.4459156269110736,-0.5994486425204202
1782811791520548600,1.004548583984375,-8.215022613346576,-2.086034997911751,-0.7756219691693782
1782811791530619600,1.01461962890625,-5.415903350982069,-1.6651185931913555,-0.8536918817996978
1782811791540691700,1.024691650390625,-2.029980809995532,-1.2693829530872405,-0.757806034232676
1782811791550763500,1.034763427734375,0.922663126695156,-0.989281086462736,-0.530775101929903
1782811791560834300,1.044834228515625,2.3160271181076766,-1.001084921503067,-0.294581167951785
1782811791570906400,1.05490625,2.9117659828573466,-1.2934373440220952,-0.27877719389200206
1782811791580977400,1.064977294921875,3.5316619682639834,-1.398158678343147,-0.19636567186079917
1782811791591049500,1.075049560546875,4.290002547764778,-1.223127982390672,0.16494769335538148
1782811791601120500,1.08512060546875,4.8240609091490505,-0.9802291804790496,0.924307605966553
1782811791611192600,1.095192626953125,5.106932094356417,-0.6138643040269612,1.7632606952525673
1782811791621263600,1.105263671875,5.031835644578933,-0.4101670471690595,2.2169475890658794
1782811791631335400,1.11533544921875,4.7140714251667255,-0.42348450164273377,2.4196866684161127
1782811791641406500,1.125406494140625,4.69921930847168,-0.37860651838779447,2.4888889455884695
1782811791651478500,1.135478515625,5.27033811122775,-0.5333316545449197,2.4498406914003192
1782811791661549600,1.145549560546875,5.6961558781236405,-0.9574244973443448,2.0472810504950583
1782811791671621600,1.15562158203125,6.136486154496669,-0.7020012910328804,1.7121604764819145
1782811791681692700,1.165692626953125,6.2667076946467155,0.18886866716891526,2.0670007732264697
1782811791691764500,1.175764404296875,5.688508578240871,0.9791399239376187,2.6945801527425646
1782811791701836500,1.18583642578125,5.135100788742304,1.578016794452071,2.869878559720516
1782811791711907600,1.195907470703125,4.74567418565452,1.9841924338974057,2.8206571404337883
1782811791721979600,1.205979736328125,4.623891972547769,2.2600882271341978,2.8145480099037288
1782811791732050400,1.216050537109375,4.761848490864038,2.283382301221043,2.7906846114963293
1782811791742122500,1.22612255859375,4.856323010328412,2.0552993756473064,2.5630466532111167
1782811791752193500,1.236193603515625,5.013652922156453,1.8055238198339938,2.1587724634729324
1782811791762265300,1.246265380859375,5.446180415824055,1.637147759465128,1.743179884123802
1782811791772336400,1.25633642578125,5.711068785095215,1.6648175644181669,1.5712030227839946
1782811791782408400,1.266408447265625,5.7443754268914455,1.587918303002417,1.4999644174784421
1782811791792479500,1.2764794921875,5.796994087401032,1.3883568307749927,1.3192369711890817
1782811791802551600,1.286551513671875,5.821528809198737,1.1990769524566829,1.019349184729159
1782811791812622600,1.29662255859375,5.730675987362861,1.047717493340373,0.7075351058930158
1782811791822694700,1.306694580078125,5.27360383502543,0.761530315452814,0.3176217422015965
1782811791832765700,1.316765625,4.084053274196386,0.4590794005066156,-0.277400937102735
1782811791842837500,1.32683740234375,1.9149083236604927,0.694535631327331,-0.707282884697616
1782811791852908500,1.336908447265625,-0.8498182552367448,1.1629118524894118,-1.1172165615022183
1782811791862980600,1.346980712890625,-3.4547663601100442,1.4380211715236306,-1.7810313297428189
1782811791873052700,1.357052734375,-5.63075138579905,1.6500494727447628,-2.8254814918503164
1782811791883123500,1.36712353515625,-7.581447646677494,1.934758979295194,-3.366423475268483
1782811791893195500,1.377195556640625,-9.156448892700672,2.229972636464238,-2.8728976152807473
1782811791903266300,1.387266357421875,-9.933689987504481,1.8765856072679161,-1.956839732069522
1782811791913338400,1.39733837890625,-9.8415225759387,0.7858619158938527,-1.742200809958577
1782811791923409400,1.407409423828125,-8.852900830167531,-0.12415887911021709,-2.9684593454599377
1782811791933481500,1.4174814453125,-7.752638910597562,-0.8899629263594746,-3.9460102466404434
1782811791943552500,1.427552490234375,-7.57531835014224,-2.1018401775479316,-3.318824688747525
1782811791953624600,1.43762451171875,-8.325186284852027,-2.9789342699840664,-2.4964959134608504
1782811791963695600,1.447695556640625,-9.419719889903067,-3.1904327021121976,-2.5809096421599387
1782811791973767400,1.457767333984375,-10.52340827679038,-3.1452345469921825,-2.8122043693870302
1782811791983838500,1.46783837890625,-11.058094999206066,-3.2237641860887405,-2.737955476349592
1782811791993910500,1.47791064453125,-10.530742857462167,-3.490010107448697,-2.6939643589317797
1782811792003981600,1.487981689453125,-8.678143398198484,-3.707377723871171,-2.560768771407008
1782811792014053600,1.4980537109375,-6.18087182419002,-3.6262922628119587,-2.1859528774738313
1782811792024124700,1.508124755859375,-3.933192850643396,-3.2217744735762475,-1.6210316141836345
1782811792034196700,1.51819677734375,-1.8605945496708154,-2.731341903428733,-1.050049881810695
1782811792044267500,1.528267578125,-0.355095294418931,-1.969839645026624,-0.49726943043023347
1782811792054339300,1.53833935546875,-0.4001175084501505,-0.8256579197093844,0.12855536050349473
1782811792064411400,1.548411376953125,-1.2512550295919178,0.556521537604928,0.8075409559994936
1782811792074482400,1.558482421875,-1.8397078289866446,1.803512772272527,1.4260845038838683
1782811792084554500,1.568554443359375,-1.7645751388520001,2.5540666434198616,2.074751971875131
1782811792094625500,1.57862548828125,-0.9363999756246805,2.819336997745931,2.651827344948053
1782811792104697300,1.588697265625,0.14810790997445583,2.4435411528646944,2.787436715616286
1782811792114768400,1.598768310546875,1.269071256789565,1.6319988522693514,2.32885211288929
1782811792124840400,1.60884033203125,2.536267951878905,0.7392997789442539,1.7510351276688276
1782811792134911500,1.618911376953125,3.9657437056362626,0.002587970666587353,1.4179562886163593
1782811792144983600,1.628983642578125,5.491377401900291,-0.4692442361682653,1.397252377153188
1782811792155054300,1.639054443359375,7.023840067401528,-0.5403086539506912,1.6528100234992802
1782811792165126400,1.64912646484375,8.242974450111388,-0.2017307790905237,2.0999645929343997
1782811792175197400,1.659197509765625,9.046313278245925,0.34826983231306075,2.7005992669016123
1782811792185269200,1.669269287109375,9.45423883009851,0.9676268885374069,3.190202400487661
1782811792195340000,1.679340087890625,9.486414422038196,1.4459437812164424,3.353377531212568
1782811792205412000,1.689412109375,9.192676974901556,1.782766921363771,3.3621611416488886
1782811792215483100,1.699483154296875,8.903125873538851,2.024832048930228,3.457421258533001
1782811792225555200,1.70955517578125,8.638424551272392,2.296855676908791,3.591587152394652
1782811792235627300,1.719627197265625,8.272566455298662,2.682283565749228,3.7451346230745313
1782811792245698300,1.7296982421875,7.922356594833731,3.0102301564797758,3.798118609765172
1782811792255770000,1.73977001953125,7.333897950220107,3.199396929812431,3.7712352790147063
1782811792265841200,1.749841064453125,6.4532555176526305,3.3452468317270276,3.7512460916921495
1782811792275913200,1.759913330078125,5.698577552312612,3.409429965563118,3.738296301487088
1782811792285984300,1.769984375,5.242143697878718,3.3975162404075263,3.638128538817167
1782811792296056300,1.780056396484375,5.109824308666586,3.092733959904313,3.129075439351797
1782811792306127400,1.79012744140625,5.319639610013366,2.3396955784648656,2.392378390251845
1782811792316199400,1.800199462890625,5.5034536241412155,1.5761714588463305,1.819574264757335
1782811792326270500,1.8102705078125,5.338563506191969,1.1324266978546977,1.276302815478295
1782811792336342300,1.82034228515625,4.687049562728404,0.8645002760618925,0.6606482670336962
1782811792346413300,1.830413330078125,3.82527666580379,0.647080637191236,-0.17011267490312457
1782811792356485400,1.8404853515625,3.299225669786334,0.6217655786707997,-0.5327449406981468
1782811792366556200,1.85055615234375,2.297667285552621,0.3939654155611992,-0.5864411673113703
1782811792376628200,1.860628173828125,0.3371393664896488,0.03769552440494299,-0.9537132217362523
1782811792386699300,1.87069921875,-2.2565829954922196,-0.15873860958218575,-1.5644458036087452
1782811792396771000,1.88077099609375,-5.419015345522761,-0.6797904821380972,-2.229195222350955
1782811792406842000,1.890842041015625,-8.144823872482776,-1.259052551600337,-2.9213462966293093
1782811792416914200,1.9009140625,-10.267000735616683,-1.7408643006578086,-2.9443279437661167
1782811792426986200,1.910986328125,-11.601917798757553,-2.184459131784737,-2.622877729317546
1782811792437057300,1.921057373046875,-11.612750158417224,-2.2687694001093504,-3.45348742621541
1782811792447129300,1.93112939453125,-11.039164673286676,-1.98860016733706,-5.294535563895106
1782811792457200400,1.941200439453125,-11.183575482308864,-2.056315859213471,-5.879034657227993
1782811792467272200,1.951272216796875,-11.154795962548254,-3.0011443482264877,-4.99528782890439
1782811792477343200,1.96134326171875,-9.94805402842164,-3.967596347765624,-4.305304454053938
1782811792487415300,1.971415283203125,-8.833985701817273,-4.406198777432739,-4.161677781146764
1782811792497486300,1.981486328125,-9.069284988510608,-4.325438018283248,-4.0841181561261415
1782811792507558400,1.991558349609375,-10.299054747003316,-3.6974797224521634,-3.8260809679239984
1782811792517629200,2.001629150390625,-11.143304262197017,-3.0529750732287764,-3.315126711012423
1782811792527701500,2.011701416015625,-10.431730694568156,-2.5666905626714227,-2.610335643130541
1782811792537772300,2.021772216796875,-8.717001828902958,-2.08038617836982,-1.9617730968184768
1782811792547844000,2.031843994140625,-6.625727469033002,-1.472129485091567,-1.4705357861593364
1782811792557915100,2.0419150390625,-4.1108027494341135,-0.9493750464014709,-0.982146558407694
1782811792567987200,2.0519873046875,-1.5488590890288352,-0.6573539016634226,-0.4612557216323912
1782811792578058200,2.062058349609375,0.5976140109717846,-0.49438671460077166,-0.023385917088761924
1782811792588130300,2.07213037109375,2.4385060813069344,-0.47292248628959055,0.17866057688742876
1782811792598201300,2.082201416015625,3.522649225246906,-0.7545723130084574,0.018203399884328245
1782811792608273200,2.092273193359375,3.630426293876767,-1.3564866515226661,-0.43777854606360195
1782811792618344200,2.10234423828125,3.3779718742430207,-1.924744804150611,-0.7581319051861762
1782811792628416300,2.112416259765625,2.9304344429701565,-2.0727165205247697,-0.8142892612159252
1782811792638488300,2.12248828125,2.5173820496231314,-1.7482104256369173,-0.5780030093118548
1782811792648559400,2.132559326171875,2.182232395645976,-1.1551264593102037,-0.03734963357672095
1782811792658631400,2.14263134765625,2.0778046374440193,-0.43590442275479435,0.6946956441946327
1782811792668702500,2.152702392578125,2.4968746836453675,0.2597277716375887,1.452263339626789
1782811792678774300,2.162774169921875,3.37982013245821,0.7583610377669334,2.096758928760886
1782811792688845000,2.172844970703125,4.50445427674055,1.0586918918192385,2.4945786816626785
1782811792698917000,2.182917236328125,5.4876873152106995,1.067730938321352,2.4954516651049254
1782811792708988200,2.19298828125,6.281989434930682,0.8317197039663791,2.077607069045305
1782811792719060200,2.203060302734375,7.089013673579692,0.6794277863055467,1.555393605364114
1782811792729131300,2.21313134765625,7.7192387452989815,0.8581798408687115,1.3278737205006181
1782811792739203300,2.223203369140625,7.983277219742536,1.0958373811259865,1.3087225914373992
1782811792749274400,2.2332744140625,7.818231618970632,1.1916782205075025,1.456153917324543
1782811792759346200,2.24334619140625,7.415680161371827,1.2837594150945544,1.5914214888177811
1782811792769417200,2.253417236328125,7.116072945418954,1.371679982870817,1.5403404131390153
1782811792779489300,2.2634892578125,7.039117716032266,1.4732843542151153,1.2958449896857143
1782811792789560300,2.273560302734375,7.0480240760654205,1.569579805496335,0.9943937533013522
1782811792799632400,2.28363232421875,7.080158751472831,1.5726558519408105,0.6620414018925279
1782811792809703400,2.293703369140625,7.4858911771953105,1.1745037983447313,0.2921394373554736
1782811792819775200,2.303775146484375,8.235321889531612,0.30512977876663205,-0.19608787783272563
1782811792829847300,2.313847412109375,8.503278998723626,-0.651978053843975,-0.5862582119598985
1782811792839918300,2.32391845703125,8.80532834713161,-1.3403718214154243,-0.5198238651309162
1782811792849990400,2.333990478515625,8.441779112622141,-1.6152251198619603,-0.3660235887337476
1782811792860061200,2.344061279296875,5.6362616736531255,-0.9163546742007136,0.12009645197689532
1782811792870133200,2.35413330078125,0.7935515936136245,0.25625615000426766,0.5533662884443998
1782811792880204300,2.364204345703125,-4.12509547868073,1.1955538928970695,0.5843728366047144
1782811792890276000,2.374276123046875,-7.653900303947925,1.7993106444075702,0.0034336277104914186
1782811792900347100,2.38434716796875,-9.516422606810927,1.7905322946682571,-1.1730230582676828
1782811792910419200,2.394419189453125,-10.53426167923808,1.3061474802523851,-2.248061543123424
1782811792920490200,2.404490234375,-11.1694838285923,0.3310848887562752,-2.7884406319618225
1782811792930562300,2.414562255859375,-10.746565874791145,-1.1789850354120135,-2.4490076015770432
1782811792940633300,2.42463330078125,-8.809910998746751,-2.775070862779021,-1.4244957733877002
1782811792950705400,2.434705322265625,-5.96648906879723,-3.4657620936378835,-0.910607289655134
1782811792960776400,2.4447763671875,-3.8497891757696863,-3.408141971579194,-1.3334189335376023
1782811792970848300,2.45484814453125,-4.695869413521885,-3.6349633527845144,-1.7448901951730251
1782811792980919300,2.464919189453125,-6.432251892590522,-4.046137385039032,-1.497908507861942
1782811792990991400,2.474991455078125,-7.572572850826382,-4.059198526664078,-1.386978966550529
1782811793001062100,2.485062255859375,-9.029140609648824,-3.457402846093476,-1.9428997617833315
1782811793011134200,2.49513427734375,-10.498549729865788,-2.678141059117019,-2.6985399962842465
1782811793021205200,2.505205322265625,-11.20357314519882,-1.9713436198487877,-3.1440666722565886
1782811793031277000,2.515277099609375,-10.571136827170848,-1.300252284733951,-2.938564557933807
1782811793041348000,2.52534814453125,-8.66343741197586,-0.5805956561535597,-2.045788619980216
1782811793051420200,2.535420166015625,-5.678972103610635,0.14714081850796937,-0.7119167550433426
1782811793061492200,2.5454921875,-2.2824363986730574,0.7614031819418072,0.38254824175089597
1782811793071563300,2.555563232421875,0.949472807687521,1.3022726846456527,1.1107445890091359
1782811793081635300,2.56563525390625,3.692068803319335,1.6341840873539446,1.6619167284101246
1782811793091706400,2.575706298828125,5.367790769720077,1.3805162002772091,1.8130758426487446
1782811793101778200,2.585778076171875,5.703532544371486,0.8311091708526015,1.3759481617093086
1782811793111849200,2.59584912109375,5.357898905780911,0.4256488400697708,0.6981922541387379
1782811793121921300,2.60592138671875,4.834962826913595,0.15401859532296658,0.20154943117424845
1782811793131992300,2.615992431640625,3.9360751280814408,0.028775428107380867,-0.02199088253378868
1782811793142064400,2.626064453125,3.2076053707092997,0.0792655521556735,0.036773002732545135
1782811793152135700,2.6361357421875,3.0267794324815274,0.2942334139600396,0.5585945444867014
1782811793162207500,2.64620751953125,3.250634949618578,0.673388506141305,1.3912860160946845
1782811793172278500,2.656278564453125,3.7514667487055062,1.0165879033222793,2.0981034752376377
1782811793182350600,2.6663505859375,4.640135251340269,1.1267740789204834,2.6365613867551088
1782811793192421600,2.676421630859375,5.781969536748528,0.7909712217316031,2.7309330303668973
1782811793202493700,2.68649365234375,6.366815251561999,0.41524756530374285,2.4634622433871027
1782811793212564700,2.696564697265625,6.824515764930844,0.32686902462691064,2.054855285141617
1782811793222636800,2.70663671875,7.119965276682376,0.37488252942860123,1.8412306546397506
1782811793232708600,2.71670849609375,6.859557267695665,0.5852475736126304,1.963350721398741
1782811793242779600,2.726779541015625,6.503787435016036,0.8514005559921264,2.3257062160789963
1782811793252851700,2.736851806640625,6.52759501158297,1.0310866765350102,2.6729642410010097
1782811793262922800,2.7469228515625,6.593230974575877,1.1029039585113525,2.8378891380026934
1782811793272994800,2.756994873046875,6.510529895013571,1.0225649319052696,2.7173981337502595
1782811793283065900,2.76706591796875,6.422638261070847,0.832023947609961,2.4052273504309354
1782811793293137700,2.7771376953125,6.323561800768971,0.5837865611493587,2.1424524661824105
1782811793303208700,2.787208740234375,6.2006894543379545,0.4050073263183236,1.9983492618046699
1782811793313280800,2.79728076171875,5.843024601691961,0.345225642311573,1.8998424180842934
1782811793323351600,2.8073515625,5.390086772680283,0.3300450243145227,1.8292352425500749
1782811793333423600,2.817423583984375,5.008741769239307,0.2654401579350233,1.7697301835276185
1782811793343494700,2.82749462890625,4.584111166301369,0.14826631540656088,1.6120824379220604
1782811793353566700,2.837566650390625,3.9813492710471152,0.08542758191674947,1.4075211115807293
1782811793363637800,2.8476376953125,3.0028561205804345,0.13820055620521307,1.283284491059184
1782811793373709600,2.85770947265625,1.4855308184564113,0.40404520328789945,1.2084034375980495
1782811793383780600,2.867780517578125,-0.8762129256874323,0.4141521712824702,0.7541432739414274
1782811793393852700,2.877852783203125,-3.0534108342975377,0.09991729504019022,-0.265389450661093
1782811793403923700,2.887923828125,-4.6172973965883255,-0.5218614353731275,-1.2815684809215366
1782811793413995800,2.897995849609375,-5.964953529793024,-1.9041463988885283,-1.5630854750409722
1782811793424066800,2.90806689453125,-6.878632555043697,-4.025689348033071,-0.979043697021529
1782811793434139000,2.918138916015625,-7.6861285028576845,-5.9622419327467675,0.1224725334584713
1782811793444210700,2.928210693359375,-7.75210115045905,-6.460505342650413,0.3281768192898482
1782811793454281700,2.93828173828125,-7.6703697927117345,-5.3346916331946845,-0.8496772393308579
1782811793464353800,2.948353759765625,-9.64465443444848,-4.29820455892086,-1.6789838908061385
1782811793474424800,2.9584248046875,-12.989922308963536,-3.4219755588814613,-1.418117762788385
1782811793484497000,2.968496826171875,-15.062453389918803,-2.4762100812792776,-1.1391449001938103
1782811793494567700,2.978567626953125,-15.92067999253869,-1.899846071346104,-1.8879075040102005
1782811793504639700,2.9886396484375,-15.485862342107295,-1.5990975764036177,-3.1920839764505624
1782811793514710800,2.998710693359375,-13.596869965469836,-1.4953247749790548,-3.7731335138514637
1782811793524782600,3.008782470703125,-10.728137068653107,-1.7048732420831918,-3.489517940017581
1782811793534853600,3.018853515625,-7.467631297883391,-2.2051748798161745,-2.9517227301925417
1782811793544925700,3.02892578125,-4.087047779837251,-2.437723114235699,-2.3079475642874834
1782811793554996700,3.038996826171875,-1.7528350166976452,-2.156293213877827,-1.7612018630266189
1782811793565068800,3.04906884765625,-1.3806366117864846,-1.2957798154950142,-1.3855746527105568
1782811793575139800,3.059139892578125,-1.8287942207843064,0.042128830677270884,-1.0216554889101535
1782811793585211600,3.069211669921875,-2.4121201786845923,1.270120619712025,-0.6761072635807096
1782811793595282700,3.07928271484375,-2.4914234325021503,1.8547713964752852,-0.2547364661563188
1782811793605354800,3.089354736328125,-1.5969196478426455,1.7155768607966602,0.08188932478800416
1782811793615425800,3.09942578125,-0.25495441975593564,1.365404555863142,0.3300497004896402
1782811793625497900,3.109497802734375,1.1887632098436356,0.940939226489514,0.6340459451816975
1782811793635568600,3.119568603515625,2.6591549113571644,0.43254722128137946,0.7997856656976043
1782811793645640700,3.129640625,3.877603065368533,0.015227525878697632,0.9305804756909608
1782811793655711700,3.139711669921875,5.010180277609825,-0.23228096178546548,1.0748670738115906
1782811793665783600,3.149783447265625,6.068359543731808,-0.2084916515275836,1.4000396697841584
1782811793675854600,3.1598544921875,6.5406380330294365,-0.03329582814127206,1.7799303827635944
1782811793685926700,3.1699267578125,6.778245596665143,0.16232435911446808,2.157074427383393
1782811793695998700,3.179998779296875,7.000302539947628,0.33078196028694506,2.4643039549082517
1782811793706069800,3.19006982421875,6.804396521487831,0.47237055149525403,2.4421514520719647
1782811793716141800,3.200141845703125,6.363427362689375,0.6899117709189653,2.2652326042853295
1782811793726212900,3.210212890625,6.142063077846169,0.8205813470974564,2.2353886701636014
1782811793736284700,3.22028466796875,6.273312207478284,0.9064327073842287,2.327666556366533
1782811793746355700,3.230355712890625,6.689688192290067,0.9506611406892538,2.4074739603139457
1782811793756427800,3.240427734375,7.034305931836366,0.9949462726175784,2.460481181749701
1782811793766498800,3.250498779296875,7.283885088294744,1.061605295047909,2.486168580713868
1782811793776571000,3.26057080078125,7.554003759434819,1.1141465064071119,2.534843764294684
1782811793786642000,3.270641845703125,7.809241672307253,1.141791176918894,2.5441408772110936
1782811793796713700,3.280713623046875,8.094453283160924,1.1432798080414532,2.4165518775217234
1782811793806784500,3.290784423828125,8.328896829807757,1.1268467057652771,2.265433825945854
1782811793816856600,3.300856689453125,8.167609120264649,0.785128340922296,2.015006235964596
1782811793826927600,3.310927734375,7.9377827120244495,0.51523587975353,1.8595305737011134
1782811793836999700,3.320999755859375,7.415117851313949,0.5151458633825182,1.854278498391807
1782811793847070700,3.33107080078125,6.6745818085730075,0.48125557647943495,1.8911112684875726
1782811793857142800,3.341142822265625,5.683014656999707,0.5706403715893625,1.9400633693136273
1782811793867213800,3.3512138671875,3.79618208874464,1.0483484847202897,1.9843530312865971
1782811793877285600,3.36128564453125,1.0072790999680756,1.386980427855253,1.795186404084414
1782811793887356700,3.371356689453125,-1.9026497305899857,1.4356430442154406,1.2938212287731468
1782811793897428700,3.3814287109375,-4.781799392002821,1.6192032297126948,0.4387411074854433
1782811793907500800,3.391500732421875,-7.511331907922029,1.8911726432859897,-0.650365796341747
1782811793917571800,3.40157177734375,-9.515953820255397,1.6791589551120996,-1.6462062413200735
1782811793927643600,3.4116435546875,-10.384248812425136,1.0951713184326886,-2.2467741336613893
1782811793937714700,3.421714599609375,-9.469375608953833,0.24160803144872187,-1.8781899737246333
1782811793947786800,3.431786865234375,-7.163537291905284,-0.903231865516305,-0.8137954863496124
1782811793957857500,3.441857421875,-4.635588255560398,-1.730548366087675,0.1957021664507687
1782811793967929900,3.451929931640625,-2.9053502705961463,-1.968278679320216,-0.020003069717437028
1782811793978000600,3.462000732421875,-2.485411040344834,-2.093154474528134,-1.1774420437537132
1782811793988072700,3.47207275390625,-3.775315241804719,-2.785937124708295,-1.6418293414101004
1782811793998143700,3.482143798828125,-5.920849599650502,-3.770409057323634,-1.5328971113957464
1782811794008215600,3.492215576171875,-7.9319567823499435,-4.105037025514245,-2.3755615493550897
1782811794018286600,3.50228662109375,-9.73738298702836,-3.8792759670168158,-4.087139842034876
1782811794028358700,3.512358642578125,-11.051118145930767,-3.817600139826536,-5.6241685002774
1782811794038429700,3.5224296875,-11.322121198689937,-3.6868811715483663,-6.1798535870581865
1782811794048501800,3.532501708984375,-11.039109728229045,-3.111840811434388,-5.754710942944884
1782811794058572800,3.54257275390625,-10.262165570545196,-1.9129269405849276,-4.684459546235203
1782811794068644900,3.552644775390625,-8.10252026976049,-0.6773970111303032,-3.4238065737009045
1782811794078716000,3.5627158203125,-4.744101821771264,0.05764204162955284,-2.2195669777840377
1782811794088787700,3.57278759765625,-1.4001391846358775,0.3952408423244953,-1.1420591802053153
1782811794098858800,3.582858642578125,1.2764613670408724,0.5985374094270169,-0.4115883121438324
1782811794108930800,3.592930908203125,2.9226719922751188,0.5902265310689807,0.10614216090440749
1782811794119001600,3.603001708984375,3.569388180068135,0.06619914983361959,0.3809653564736247
1782811794129073700,3.61307373046875,3.6290637733519073,-0.7616328990444541,0.48140492182224986
1782811794139144700,3.623144775390625,3.283718304052949,-1.3064315578907728,0.510484009051323
1782811794149216800,3.633216796875,2.6910662994027135,-1.4733429525345563,0.6527654048293828
1782811794159287300,3.643287353515625,2.0532769299089906,-1.4345388823658227,0.9272972162365913
1782811794169359000,3.653359130859375,1.7528864546239376,-1.3096549038514493,1.5149991972640156
1782811794179431200,3.66343115234375,1.9979747294038532,-1.1566679896637797,2.257709076912701
1782811794189502200,3.673502197265625,2.4924913539946076,-1.0662648112915456,2.6838173511877654
1782811794199574300,3.68357421875,3.2521511994004246,-1.0488566534381358,2.764374696719646
1782811794209645300,3.693645263671875,4.236523471033573,-0.8656019536934793,2.787039240731299
1782811794219717400,3.70371728515625,5.170429291754961,-0.551848723488301,2.9421371557235716
1782811794229788400,3.713788330078125,5.9924628834873435,-0.2028127291083336,3.327060309912264
1782811794239860200,3.723860107421875,6.624205374032258,0.21184768395721912,3.85057506545037
1782811794249931300,3.73393115234375,6.978650095587969,0.6608908436179161,4.335741385632753
1782811794260003300,3.74400341796875,7.084611639228463,0.9389958373367786,4.565996540679038
1782811794270074400,3.754074462890625,6.934641442513465,0.8547033969298005,4.387665926398337
1782811794280146400,3.764146484375,6.727816555154323,0.42682124485000966,3.870200387896597
1782811794290217200,3.77421728515625,6.624108343398571,0.03829042155817151,3.3420439440324903
1782811794300289300,3.784289306640625,6.675122491320967,-0.15756328219249843,3.022548078522086
1782811794310360300,3.7943603515625,6.684532709223031,-0.09460077619254588,2.888338930040598
1782811794320432000,3.80443212890625,6.673944679713249,0.032020839769393204,2.9557702520176767
1782811794330503200,3.814503173828125,6.740799370846152,0.1166951191008091,2.9669755366429684
1782811794340575200,3.8245751953125,6.729413468956947,0.26619652926027776,2.88236628537178
1782811794350646300,3.834646240234375,6.702907154825329,0.4089803216025233,2.9215529251173136
1782811794360718300,3.84471826171875,6.24501082662344,0.4556527870588004,2.8934999660655856
1782811794370789400,3.854789306640625,4.753604394131899,0.5848569668598472,2.674385213714838
1782811794380861200,3.864861083984375,2.473753335776925,0.8332305469207465,2.455903498570621
1782811794390932200,3.87493212890625,-0.060895490467548365,0.8901347757950424,1.905696550939977
1782811794401004300,3.88500439453125,-2.804536611238122,0.7898417793102562,1.031191598214209
1782811794411075300,3.895075439453125,-5.332977230492234,0.6622194618731737,-0.25972119576632974
1782811794421147400,3.9051474609375,-7.131556930276751,0.7697397792629898,-1.309663817810267
1782811794431218200,3.91521826171875,-8.231037928602099,1.0571785646468401,-1.6625730003617702
1782811794441290500,3.92529052734375,-8.738585299679636,1.1648065801948309,-1.3267398941650985
1782811794451362300,3.9353623046875,-8.804256333985924,0.5584101278305054,-0.8398203005746007
1782811794461433000,3.94543310546875,-8.146182301354408,-0.7385302558764815,-0.6859354146338998
1782811794471505200,3.955505126953125,-6.951857950252294,-2.319576919543743,-1.4204682714372872
1782811794481576200,3.965576171875,-5.514153881853819,-2.9469138686060905,-3.4491429672703147
1782811794491648300,3.975648193359375,-4.971074594146013,-2.6437659113064407,-5.137155967706442
1782811794501719300,3.98571923828125,-6.323845293885469,-2.7517560381650923,-5.065947173017263
1782811794511791000,3.995791015625,-8.524297236832975,-3.103698129250109,-4.057643698437512
1782811794521862100,4.005862060546875,-10.157856470286845,-2.7775091958418487,-4.041154920451342
1782811794531934200,4.015934326171875,-11.694262904977798,-2.088074102523923,-5.050961200809478
1782811794542005200,4.026005126953125,-13.022546813714504,-1.430728091906011,-5.540514650034904
1782811794552077300,4.036077392578125,-13.500878611701726,-1.2555769844442606,-5.249856464213132
1782811794562148400,4.0461484375,-12.699130852150917,-1.7555968826264141,-4.654154132081568
1782811794572220400,4.056220458984375,-9.883332257664202,-2.3831653023570776,-4.165165623262524
1782811794582291500,4.06629150390625,-5.553104082494974,-3.0675305450648067,-3.8054207494720815
1782811794592363300,4.07636328125,-1.4129542425453663,-3.3381320312857627,-2.9638778628885745
1782811794602434000,4.08643408203125,1.2621002487331627,-2.615290635189414,-1.6870649059310554
1782811794612506000,4.096506103515625,2.0950410189270974,-0.9593617490172386,-0.4232707127615809
1782811794622577200,4.1065771484375,1.657414156293869,0.8950297082297504,0.5921854100517928
1782811794632649200,4.116649169921875,0.43091830490529537,2.3311206423431634,1.2955024598583578
1782811794642720300,4.12672021484375,-0.7381868492662906,2.8520760687872766,1.7122990081697702
1782811794652792300,4.136792236328125,-1.2375076592683791,2.748336000588536,1.7484829589679836
1782811794662863400,4.14686328125,-0.7527548883229493,2.476343936792016,1.6039353718236087
1782811794672935200,4.15693505859375,0.5110030644893646,2.1255821415327487,1.3271677641883493
1782811794683006200,4.167006103515625,2.2981658827245233,1.7396248219907282,1.0705445344373583
1782811794693078300,4.177078369140625,4.033046725058555,1.1670755480401218,0.8792680754743516
1782811794703149300,4.1871494140625,5.266253472262621,0.6225798176631331,0.8503155372343957
1782811794713221400,4.197221435546875,6.107858610427379,0.2949820403702557,0.9359278280682861
1782811794723293200,4.207293212890625,6.704962918311357,0.27993133236318823,1.132019578358531
1782811794733364200,4.2173642578125,7.064312947565317,0.40801717565879225,1.2175023975938557
1782811794743436300,4.227436279296875,7.363812611490488,0.6079696930304169,1.2345989322148263
1782811794753507300,4.23750732421875,7.561844536063075,0.8372387596487999,1.221779490391165
1782811794763579400,4.247579345703125,7.666806547272205,1.0500330768063664,1.3274400052584707
1782811794773650200,4.257650146484375,7.690872482514381,1.2558525865152477,1.4380783085383475
1782811794783722200,4.26772216796875,7.563775796386599,1.4829621370121835,1.5680647247582673
1782811794793793300,4.277793212890625,7.448658301866054,1.7386404871284962,1.7017907658979297
1782811794803865000,4.287864990234375,7.463629076504707,1.9531272874176502,1.8221132817156611
1782811794813936000,4.29793603515625,7.554602894371747,2.010619983704388,1.8070482529222964
1782811794824008200,4.30800830078125,7.422753460758924,1.9231851536184548,1.6154207885645329
1782811794834079200,4.318079345703125,7.04155400326848,1.8698703275382518,1.4116056044153868
1782811794844151300,4.3281513671875,6.491434733921289,1.9014345095813274,1.2372044385381042
1782811794854222300,4.338222412109375,6.241088684743643,2.1311448902264236,1.111252392400801
1782811794864294400,4.34829443359375,6.2726990440160035,2.2416724266082046,1.1885527819633483
1782811794874365400,4.358365478515625,6.019052784249186,2.181624200619757,1.3125547169461846
1782811794884437200,4.368437255859375,5.3679000753134485,2.0378943595990537,1.3594728277266024
1782811794894508300,4.37850830078125,4.344086020129919,2.10558257894665,1.3259440676122902
1782811794904580400,4.388580322265625,2.9469173757374283,2.1997586999863383,1.2738659437201916
1782811794914651100,4.398651123046875,1.0068798715174199,1.8769132317870854,1.1176005923837422
1782811794924723200,4.40872314453125,-1.4199837027907372,1.6784613282367586,0.7196257950507104
1782811794934794200,4.418794189453125,-3.58405617236793,2.0774866575360296,0.33539792964980003
1782811794944866300,4.4288662109375,-5.417142537388205,1.9976342454031109,0.03647387365549803
1782811794954937300,4.438937255859375,-7.1901458973675965,0.6926148923978209,-0.5511022890351712
1782811794965009200,4.449009033203125,-8.568198922401667,-1.478645442856848,-1.3681412873506544
1782811794975080200,4.459080078125,-8.277097084465622,-3.785804779376089,-2.0112762556560337
1782811794985152300,4.46915234375,-6.6988418050825596,-5.773394600626826,-1.7863808740772307
1782811794995223300,4.479223388671875,-5.662281081050634,-7.175182721513509,-1.6063523698374629
1782811795005295400,4.48929541015625,-5.6288312313914295,-6.534839575883746,-2.901903929534554
1782811795015366400,4.499366455078125,-6.191251763907075,-5.272347112962604,-4.005057771153748
1782811795025438200,4.509438232421875,-7.1774091653913255,-4.5751586290389294,-3.929692441307008
1782811795035509200,4.51950927734375,-8.247916582688688,-3.741843180313706,-3.475041378636658
1782811795045581300,4.529581298828125,-9.606060207638144,-2.347900804491341,-3.279429959209263
1782811795055652400,4.53965234375,-10.61093458455205,-1.1529361096590756,-3.2830028492599723
1782811795065724400,4.549724365234375,-10.34701710613966,-0.6672974957898259,-3.257833336690068
1782811795075796500,4.55979638671875,-8.550546945855022,-0.6609680005073547,-2.983291588410735
1782811795085867300,4.5698671875,-5.808783309394121,-0.9493208319962024,-2.5663299126654864
1782811795095939000,4.57993896484375,-2.8133178835868833,-1.4333008650034664,-2.261725911338627
1782811795106010000,4.590010009765625,0.14129706091582775,-1.9373688695326445,-1.9892317432388662
1782811795116082200,4.600082275390625,2.4146926595211027,-2.173522434967756,-1.8361111196689306
1782811795126153200,4.6101533203125,3.528382800462842,-2.071707781873643,-1.6838992815069853
1782811795136225300,4.620225341796875,3.2765701858639713,-1.3316270816847682,-1.4386929333053529
1782811795146296300,4.63029638671875,2.189711353224516,-0.10923661978840828,-1.0860738197416067
1782811795156368400,4.640368408203125,0.9657722005814313,1.1974267010316253,-0.5164858798146248
1782811795166439400,4.650439453125,0.22162673517167567,2.119624256041646,0.16207418374568222
1782811795176511500,4.660511474609375,0.2564987265884876,2.56110136436224,0.6869318783253431
1782811795186582500,4.67058251953125,1.0097077884197234,2.6100091876551508,0.8967479103244841
1782811795196654600,4.680654541015625,1.9454776494473218,2.220478539671004,0.80383143395707
1782811795206725400,4.690725341796875,2.804213370633125,1.5324445453226565,0.596789688976854
1782811795216797700,4.700797607421875,3.8880677607595917,0.791226950058341,0.37086437982842324
1782811795226868500,4.710868408203125,5.301908138489723,0.09564823941886424,0.1883072338938713
1782811795236940300,4.720940185546875,6.412808356451988,-0.20363339784145354,0.18671441174447537
1782811795247011300,4.73101123046875,6.946058908584713,-0.1759451804488897,0.3083789898209274
1782811795257083400,4.74108349609375,7.030956621408462,0.0747802234351635,0.5102589681237936
1782811795267154400,4.751154541015625,6.872520209643245,0.34148002604246136,0.7907548025019466
1782811795277226500,4.7612265625,6.58613838596642,0.45305327208489177,1.0038970563143492
1782811795287297500,4.771297607421875,6.230933785954117,0.484485644441843,1.0790798692010342
1782811795297369600,4.78136962890625,5.96703033606708,0.4413327314138412,1.0513764542393387
1782811795307440600,4.791440673828125,5.928295239481329,0.3543769170165062,1.1060903334625065
1782811795317512400,4.801512451171875,5.9032186658918855,0.3788216224431991,1.2241297067791224
1782811795327583500,4.81158349609375,5.733883258971572,0.5253726583644748,1.3001302657894789
1782811795337655600,4.821655517578125,5.582025641074776,0.652259793394804,1.2962753439269958
1782811795347726600,4.8317265625,5.432765053933858,0.7920753835812211,1.2541571807742118
1782811795357798700,4.841798583984375,5.139902636066079,0.9745502580597997,1.115025773459673
1782811795367869400,4.851869384765625,4.717483279436826,1.236355274362862,1.0223884062945843
1782811795377941200,4.861941162109375,4.60634053376615,1.3745432633474468,0.9676474929340183
1782811795388013300,4.872013427734375,4.901013215926289,1.2649527155548332,0.950313642425835
1782811795398084400,4.88208447265625,5.33721793680191,0.8742012936040758,0.9550053073734045
1782811795408156400,4.892156494140625,5.223952207627892,0.5993406886339188,0.8438006023824215
1782811795418227500,4.9022275390625,4.229043928933144,0.7469333425626158,0.7765297316640615
1782811795428299500,4.912299560546875,2.4597335782527923,1.2048381463319062,0.9691130354419351
1782811795438370600,4.92237060546875,0.5690969415396452,1.452897545877099,1.3200460956148803
1782811795448442400,4.9324423828125,-0.8083458426415919,0.8248767062038183,1.4459934655770659
1782811795458513400,4.942513427734375,-2.0590987679302692,-0.5784381858587264,0.9453392150141299
1782811795468585500,4.95258544921875,-3.2082956910610196,-2.1869904038280246,-0.004135638500005007
1782811795478656500,4.962656494140625,-3.9970319933474063,-3.587800327332318,-0.5545249569602311
1782811795488728600,4.972728515625,-4.805905074733495,-4.427701291927695,-0.08139028922468423
1782811795498799600,4.982799560546875,-6.43257279510796,-4.664963987648487,0.4922095166921615
1782811795508871700,4.99287158203125,-8.928125290238857,-4.390920836541056,-0.1339180565804243
1782811795518942500,5.0029423828125,-10.465876125276088,-3.987468338449299,-1.941581957183033
1782811795529014500,5.0130146484375,-10.373969410473107,-3.826492179073393,-3.3905408484369515
1782811795539085300,5.023085205078125,-9.640848612424731,-4.179083966238797,-3.421313587841391
1782811795549157400,5.033157470703125,-9.03931070600748,-4.443208365400135,-2.796533045263588
1782811795559228400,5.043228515625,-8.884802865862845,-4.1999993284955615,-2.5711709229558704
1782811795569300500,5.053300537109375,-9.170807088398933,-3.8716231141760944,-2.575416889962554
1782811795579371500,5.06337158203125,-9.007165509206056,-3.5337601095870137,-2.379261426786333
1782811795589443300,5.073443359375,-7.641891301724314,-3.208938080617785,-1.9351022397749125
1782811795599514400,5.083514404296875,-5.921272208976745,-2.9688015830263494,-1.2129289521984756
1782811795609586400,5.09358642578125,-4.489821940276027,-2.945429767528176,-0.4356292590752244
1782811795619657500,5.103657470703125,-3.5287510492533443,-2.6055223976299167,0.22983912159129977
1782811795629729500,5.1137294921875,-3.389848189997673,-1.6843901337638496,0.4938436937652528
1782811795639800600,5.123800537109375,-3.561929680755734,-0.5959741348102688,0.4163733544632792
1782811795649872600,5.13387255859375,-3.303922887691855,0.3485898580476641,0.05340484245121479
1782811795659943700,5.143943603515625,-2.448065936812758,0.8551607853084802,-0.32424729782119394
1782811795670015500,5.154015380859375,-1.2921294762939215,0.945050607331097,-0.7217568157300353
1782811795680086300,5.164086181640625,-0.5158399831265211,0.907517580011487,-1.0544009166270494
1782811795690158300,5.174158447265625,-0.35970191143155095,1.10990243909657,-1.12722343012318
1782811795700229400,5.1842294921875,-0.6548696836322545,1.476804783426225,-0.8902478807806968
1782811795710301400,5.194301513671875,-0.7142728897154331,1.9314216515660285,-0.4663211883284151
1782811795720372500,5.20437255859375,-0.07427695008814335,2.1328668917134403,0.02921805730834603
1782811795730444500,5.214444580078125,0.9293196619749069,2.0487194127351045,0.43608007158264517
1782811795740515600,5.224515625,1.9197002341121434,1.7744591117456554,0.586874298031628
1782811795750587400,5.23458740234375,3.0356039594501256,1.2573600684687494,0.5007926361203193
1782811795760658400,5.244658447265625,3.894497501546144,0.7408212894231081,0.5211239148788154
1782811795770730500,5.25473046875,4.623064289551973,0.49102293725609775,0.7763295329168438
1782811795780802600,5.264802490234375,5.4322582734555,0.31613983308076854,1.1259817594990134
1782811795790873600,5.27487353515625,6.094433896186947,0.26493688458800313,1.4256239006347953
1782811795800945400,5.2849453125,6.518619677966833,0.48922991635948415,1.7596300836652516
1782811795811016400,5.295016357421875,6.407739382624626,0.8924310700386762,2.1303646996341645
1782811795821088500,5.305088623046875,5.825980527910589,1.4312339956015347,2.475228084504604
1782811795831158300,5.315158203125,5.442261781075596,1.8032678576007484,2.679142637374997
1782811795841230300,5.325230224609375,5.156961322894692,1.9375474409699438,2.6877596590727566
1782811795851301400,5.33530126953125,5.257886041411757,1.8894377823173998,2.5139690263092516
1782811795861373400,5.34537353515625,5.741674935761094,1.6278583914637565,2.2767536768615244
1782811795871444500,5.355444580078125,6.171249424841999,1.148240937580168,1.9081949436269698
1782811795881516500,5.3655166015625,6.48449470552504,0.6169558403015136,1.5251768924072384
1782811795891587600,5.375587646484375,6.768342042288184,0.36011955232173204,1.2430905739672482
1782811795901659400,5.385659423828125,6.749075616282224,0.5697106895238161,1.1736645710416138
1782811795911730400,5.39573046875,6.021407238420844,1.0937032917067409,1.2751423933967947
1782811795921802500,5.405802490234375,4.915927291941642,1.649125928159058,1.2433457177720963
1782811795931873500,5.41587353515625,4.564691595560312,1.9320839148670435,0.9671709614634514
1782811795941945600,5.425945556640625,4.365364955002069,1.9557196419984102,0.562079171732068
1782811795952016400,5.436016357421875,4.221287907978892,1.6664643087118862,0.22150588527098297
1782811795962088700,5.446088623046875,4.144946426576376,1.4062690656930208,0.00879464328698814
1782811795972159500,5.456159423828125,4.00066245880425,1.2358128380492328,-0.07779964432157575
1782811795982231300,5.466231201171875,3.460204751771688,1.2215022808849811,0.14702669060900805
1782811795992302300,5.47630224609375,3.6240713718920943,1.1936685175418853,0.509063109402731
1782811796002374400,5.48637451171875,4.613854562658071,0.7284285485789179,1.030203171698749
1782811796012445400,5.496445556640625,4.901863695275783,0.11761691012084484,1.5081599988937378
1782811796022517500,5.506517578125,3.7355502176493403,-0.38473464587926864,1.5834128082767127
1782811796032588500,5.516588623046875,2.3318664922744032,-0.9911506797268986,1.4873755695402622
1782811796042660400,5.526660400390625,0.829681476137042,-2.1145909380495547,1.6065233424901961
1782811796052731400,5.5367314453125,-1.065770451903343,-3.022050650393963,1.7099150356426833
1782811796062803500,5.546803466796875,-3.5010873817801476,-3.6823978886544704,1.8321205887280403
