time,seconds_elapsed,z,y,x
1782811021847310000,0.07831005859375,0.08606617208123206,0.07279902302268892,0.04617182245776057
1782811021857381000,0.088381103515625,0.12146189511120319,0.053178449816815555,0.0933498993486166
1782811021867452000,0.098451904296875,0.21151742908954618,0.03162022307924926,0.11724953811317682
1782811021877523000,0.10852294921875,0.447685315310955,0.020364158114790917,0.09134732735455035
1782811021887595000,0.118594970703125,0.6712824737727642,0.01934986650571227,0.13521598743647337
1782811021897666000,0.128666015625,0.7696808886826038,-0.01663154745772481,0.18132964996621012
1782811021907737000,0.138737060546875,0.7308604519009589,-0.01097195079345256,0.16647198031321167
1782811021917809000,0.148808837890625,0.5766852047115564,0.019944033006578682,0.12801862327829003
1782811021927880000,0.1588798828125,0.3317489056229591,0.05302672985382378,0.10099208466485142
1782811021937951000,0.168950927734375,0.12334464011788368,0.0948257075222209,0.025718963146209715
1782811021948022000,0.17902197265625,-0.006555997514724731,0.12239997967891394,0.023781273081898688
1782811021958094000,0.189093994140625,-0.015397475618124008,0.1431101016871631,0.04235825551897287
1782811021968164900,0.199164794921875,0.04964519765675068,0.1644968077827245,0.03273147225677967
1782811021978236000,0.20923583984375,0.06276128433942794,0.15975823495350777,0.013093582589924335
1782811021988308000,0.219307861328125,0.020569909819960593,0.16119338232316074,0.02521598206013441
1782811021998379000,0.22937890625,-0.14708850379884242,0.14966821809373795,0.04694141859076917
1782811022008450000,0.239449951171875,-0.31081600770950313,0.13985562993586062,0.006037526598572731
1782811022018521000,0.24952099609375,-0.3506675411045551,0.09314239407777786,-0.04424545750506222
1782811022028593200,0.25959326171875,-0.26447160516381263,0.049012891102582216,-0.08504084762148559
1782811022038664200,0.269664306640625,-0.12711013013124464,0.07109042900651692,-0.09522197683081031
1782811022048735200,0.2797353515625,-0.017476619979739188,0.05403861031010747,-0.07014430726282297
1782811022058807000,0.28980712890625,0.07465045957565307,0.06449453787282108,-0.002461494742706418
1782811022068877800,0.2998779296875,0.283969501838088,0.06007160686403513,0.06451448468230664
1782811022078948900,0.309948974609375,0.5103413857102393,-0.001567030121013522,0.11220284918285905
1782811022089020000,0.32002001953125,0.6779939541101455,-0.08999035978764296,0.09657244159169495
1782811022099092000,0.330092041015625,0.7597106988102197,-0.167837934904173,0.06672280838154256
1782811022109163000,0.3401630859375,0.7620394340187311,-0.23714637586474419,0.03385448493734002
1782811022119234000,0.350234130859375,0.6433844130218028,-0.2515908616069704,0.010898118372261524
1782811022129306000,0.36030615234375,0.43858957018554207,-0.23805004670619964,-0.033478564297035336
1782811022139377200,0.370377197265625,0.18839958835244178,-0.22435667159222064,-0.04712532379031181
1782811022149448000,0.380447998046875,0.0627022476285696,-0.21245288330875337,-0.02031133194901049
1782811022159519000,0.39051904296875,0.10775251871049403,-0.2223270654607564,-0.03794080440290272
1782811022169591000,0.400591064453125,0.24317747272253035,-0.2373456978291273,-0.03883819163404405
1782811022179662000,0.410662109375,0.3287292655408382,-0.2571500301040709,-0.08381605506688355
1782811022189733000,0.420733154296875,0.253653858551383,-0.2828574854755774,-0.11914331597052513
1782811022199805000,0.430804931640625,0.17233751134574413,-0.2941396712619811,-0.09272957549318671
1782811022209876000,0.4408759765625,0.17922551729381084,-0.26636596754305064,-0.00037504385747015476
1782811022219947000,0.450947021484375,0.14574001179933546,-0.26019246653988953,0.07195201427191496
1782811022230018000,0.46101806640625,-0.006264905613660812,-0.25440095059163864,0.10418905407525599
1782811022240090000,0.471090087890625,-0.08499357441365718,-0.2472869538679719,0.1274371701285243
1782811022250161000,0.481160888671875,-0.07353577633202076,-0.219402556316182,0.1658254991032183
1782811022260232000,0.49123193359375,-0.025291677644848822,-0.22080551844928412,0.1927986270289868
1782811022270304000,0.501303955078125,-0.12373626978397369,-0.19964363408554345,0.19589717756621539
1782811022280375000,0.511375,-0.27305238650441166,-0.18785813841950147,0.19978388280645012
1782811022290446000,0.521446044921875,-0.4190349748879671,-0.19012376353023572,0.23998364511728285
1782811022300517000,0.53151708984375,-0.4420096077620983,-0.1477499268496409,0.2501663817618042
1782811022310589200,0.541589111328125,-0.4316349287420511,-0.11781999494489281,0.26295805879570544
1782811022320660200,0.55166015625,-0.38146892208158967,-0.11833510486017912,0.19903993257135152
1782811022330731000,0.56173095703125,-0.3046604076892137,-0.15864811828713862,0.1315572457332164
1782811022340802800,0.571802734375,-0.2490261987507343,-0.20016060716435313,0.07306435942798853
1782811022350873900,0.581873779296875,-0.20046587372124194,-0.1860370604721829,0.0123048433650285
1782811022360945000,0.59194482421875,-0.13424421979486942,-0.15509261776264757,0.010555369349196552
1782811022371016000,0.602015869140625,-0.0839040256112814,-0.08358613703483715,0.06819120043367147
1782811022381088000,0.612087890625,-0.028058804270625112,-0.06334955082247033,0.06422872654348612
1782811022391159000,0.622158935546875,0.09223696967065334,-0.0993254848931916,0.07923822575733065
1782811022401230000,0.63222998046875,0.18321663275659084,-0.1550024552611634,0.015296718657389283
1782811022411302100,0.64230224609375,0.171619718465209,-0.1891390085428953,-0.11731442004293202
1782811022421373200,0.652373291015625,0.03936111952960491,-0.235679974840302,-0.18763466839455067
1782811022431444000,0.66244384765625,-0.03421265072524547,-0.22816400971962136,-0.2514355979800224
1782811022441515000,0.672514892578125,-0.0975631331294775,-0.17523231947179882,-0.24755503021962938
1782811022451587000,0.682587158203125,-0.13160276537537574,-0.09746201997571624,-0.19755437018871305
1782811022461658000,0.692658203125,-0.2604261291652918,-0.08624504491263069,-0.16817045479416845
1782811022471729200,0.702729248046875,-0.3375783424288034,-0.12289092326732351,-0.1891875238597393
1782811022481801000,0.712801025390625,-0.21947861722707748,-0.18868916414985432,-0.18034984514862298
1782811022491872000,0.7228720703125,-0.10468319426774977,-0.15485521054388954,-0.09286131211407482
1782811022501943000,0.732943115234375,-0.0709416681855917,-0.11422072834391146,-0.0529735383618623
1782811022512013800,0.743013916015625,-0.0245475812792778,-0.1291847261819057,-0.007588555432856083
1782811022522086000,0.7530859375,0.13121581188440323,-0.144052040446084,0.00990180081129074
1782811022532157000,0.763156982421875,0.25699206306338307,-0.13891078683380037,0.09982245636358857
1782811022542228000,0.77322802734375,0.15706570793390273,-0.10152885842267423,0.18055070148296654
1782811022552300000,0.783300048828125,-0.024864976665377615,-0.07593702878747136,0.20024989288300274
1782811022562371000,0.79337109375,-0.11573825676739215,-0.06435054455855861,0.2088677182983607
1782811022572442000,0.803442138671875,-0.03526420560479164,-0.09030264060720801,0.21035021194107828
1782811022582513200,0.81351318359375,0.05475158088505268,-0.09135488960649818,0.19215083064474164
1782811022592585000,0.8235849609375,0.052901569104194635,-0.11502331343106925,0.13239954177625476
1782811022602656000,0.833656005859375,-0.1898719989925623,-0.08268860367322341,0.08680800342448056
1782811022612727000,0.84372705078125,-0.4589548973441124,-0.003825695767998695,0.055397258377447724
1782811022622798000,0.853798095703125,-0.409329573431611,0.009531926319282501,0.06925846433900296
1782811022632870000,0.863869873046875,-0.14057342281639576,-0.0017647081175819039,0.12216237153075635
1782811022642941000,0.87394091796875,0.17574352039694785,-0.01300484486054629,0.12908880979306994
1782811022653012000,0.884011962890625,0.34996903744637964,-0.006977894454915076,0.11782098132558166
1782811022663084000,0.894083984375,0.3253711872845888,0.0038055480291135607,0.07217902796082198
1782811022673155000,0.904155029296875,0.16403671599030495,0.02256904774792492,0.015570347966998814
1782811022683226000,0.91422607421875,0.047591772258281706,0.051990774402208624,0.05131298473849892
1782811022693297000,0.924296875,0.08495558049082756,0.0790198337662965,0.07988163822740316
1782811022703369200,0.934369140625,0.16941782450675963,0.07514911154648289,0.09914061157926916
1782811022713440000,0.94443994140625,0.15666472591757774,0.07082012416515499,0.04975706053338945
1782811022723511000,0.954510986328125,0.022668927925825116,0.052615975362155586,-0.033205008052662015
1782811022733582800,0.964582763671875,-0.09702128133773803,0.01710190491583198,-0.08829597695991397
1782811022743654000,0.97465380859375,-0.12913900561034677,-0.014225911088101565,-0.1091935843642801
1782811022753725000,0.984724853515625,-0.11231354301571846,-0.011300981818418949,-0.09969524978734552
1782811022763796000,0.9947958984375,-0.11228607048690319,0.0056552310164086515,-0.10447152427844703
1782811022773868000,1.004867919921875,-0.09752689277231692,0.0075091335210949175,-0.09354447207264602
1782811022783939000,1.01493896484375,-0.11617489461898803,0.011235807627718895,-0.09399630749337375
1782811022794009900,1.025009765625,-0.1664700806170702,0.010077084312960505,-0.09571640928424895
1782811022804082000,1.03508203125,-0.09681436058878898,-0.0006173099144361913,-0.08544782098717987
1782811022814153000,1.045153076171875,0.038509471136331554,0.027150548585597425,-0.04971059104315936
1782811022824223200,1.05522314453125,0.13369710730612278,0.03296109802788123,-0.002836392469704151
1782811022834294300,1.065294189453125,0.22042788077592848,0.03009010916883126,-0.007698007156699895
1782811022844366300,1.075366455078125,0.1910346130311489,0.019778028789907694,0.013089271740987896
1782811022854437400,1.085437255859375,-0.06370178005993365,0.05634504235526547,-0.0022538433413952586
1782811022864508400,1.09550830078125,-0.23310499151945113,0.01676934849321842,-0.06646028498783707
1782811022874580500,1.10558056640625,-0.17706687795519827,0.0006836531489156187,-0.07706789598092437
1782811022884651300,1.1156513671875,-0.0853852040797472,0.0012519545561634003,-0.05799056280627846
1782811022894722300,1.125722412109375,-0.0663227762132883,-0.0032465989721007643,-0.06794687028378248
1782811022904793300,1.13579345703125,-0.1238186873704195,0.018875198198668657,-0.09774959561228752
1782811022914865200,1.145865234375,-0.20519582485258578,0.04014759373217821,-0.09913293972946703
1782811022924936200,1.155936279296875,-0.20940145984888076,0.03140173975666985,-0.10692300908379256
1782811022935007200,1.16600732421875,-0.07254910338222981,0.010998875332996249,-0.13639124176092446
1782811022945079300,1.176079345703125,0.13047346908450125,-0.051802613152656704,-0.1581752035457641
1782811022955150300,1.186150390625,0.26523732883930207,-0.06114727327153086,-0.15487177808620034
1782811022965221000,1.19622119140625,0.26744740610420703,-0.07798603373914957,-0.07012713693231344
1782811022975292200,1.206292236328125,0.1740676961392164,-0.04569788480307906,-0.030996976614370942
1782811022985364200,1.2163642578125,0.1674281119942665,-0.027469825401529667,-0.01656403517946601
1782811022995435300,1.226435302734375,0.2720499314635992,-0.07646448672767728,-0.01110460072979331
1782811023005506300,1.23650634765625,0.3615554303437471,-0.11004866682365536,-0.015617694240063427
1782811023015578400,1.246578369140625,0.3564677518159151,-0.13339377697799354,-0.005012348269298673
1782811023025649400,1.2566494140625,0.20653554902374743,-0.10104454550445079,-0.015976298419386147
1782811023035720400,1.266720458984375,0.032193127596378324,-0.07665551578775048,-0.020596943957358598
1782811023045791500,1.27679150390625,-0.07181143675744533,-0.09833762463331222,-0.020156287517771123
1782811023055863300,1.28686328125,-0.15079203449189663,-0.11516290456485002,-0.02276245142817497
1782811023065934000,1.29693408203125,-0.24994331359565256,-0.140110481479764,-0.02695603066049516
1782811023076005000,1.307005126953125,-0.264521289524436,-0.12801416629888115,-0.039724326818808914
1782811023086077200,1.3170771484375,-0.23014029649496076,-0.11584412829466163,-0.03215696030445397
1782811023096148200,1.327148193359375,-0.12807342220544815,-0.13553509985562412,-0.018135376149415967
1782811023106219300,1.33721923828125,0.015747604230046272,-0.15393833316098898,-0.011122209451720117
1782811023116290300,1.347290283203125,0.110412093308568,-0.16830460256785154,0.007363441440090537
1782811023126362400,1.3573623046875,0.10859832188487052,-0.1457214532293379,0.012698299662023783
1782811023136433400,1.367433349609375,0.16394202344417572,-0.14684413711633532,0.049785336779803034
1782811023146504200,1.377504150390625,0.22072014172077178,-0.1316249041419476,0.047396176620945335
1782811023156576300,1.387576171875,0.1643254698038101,-0.131139495245181,0.0610408902876079
1782811023166647300,1.397647216796875,0.07583119379281997,-0.1123597933102399,0.08375862579122186
1782811023176718300,1.40771826171875,-0.04050795147716999,-0.09066763799469918,0.048761838950961825
1782811023186789400,1.417789306640625,-0.12234803029596805,-0.0959429480491206,0.07373604814447463
1782811023196861200,1.427861083984375,-0.18115502405166625,-0.1003546270115301,0.06180581024549901
1782811023206932200,1.43793212890625,-0.20717910762429237,-0.11001644505448639,0.02346964984945953
1782811023217003300,1.448003173828125,-0.12354513112604618,-0.1102608848022297,0.015968845765292644
1782811023227075300,1.458075439453125,-0.0770019911378622,-0.0969386810882017,0.02082023131921887
1782811023237146400,1.468146484375,0.007473112359642982,-0.10874624245557933,0.02715396438539028
1782811023247217200,1.478217041015625,0.14669102891385555,-0.10332242730855941,0.019616846878826616
1782811023257288200,1.4882880859375,0.19422551802694796,-0.0961528644727543,0.03864909880273044
1782811023267360300,1.4983603515625,0.06995616427958011,-0.05391151333171874,0.04168167143166065
1782811023277431300,1.508431396484375,-0.014295651856064795,-0.04513517288640141,0.03522401972487569
1782811023287502300,1.51850244140625,0.005285831448435783,-0.03623206425625831,0.029609760039672254
1782811023297574400,1.528574462890625,0.0215630125105381,-0.046767925187386566,0.023255641772598028
1782811023307645400,1.5386455078125,-0.006840075153112411,-0.06988350090216845,0.015142477943748235
1782811023317716500,1.548716552734375,0.03285363733172417,-0.07482187061980367,0.011775193467736244
1782811023327787300,1.558787353515625,0.07750877161622047,-0.052898573429509994,-0.001756999735161662
1782811023337859300,1.568859375,0.09854629894793034,-0.058280449130944906,0.051330885721370574
1782811023347930000,1.57893017578125,0.0956891559511423,-0.0630755379203707,0.0779862529348582
1782811023358001200,1.589001220703125,-0.029576223096251485,-0.04583543011024594,0.07798135756403207
1782811023368073200,1.5990732421875,-0.1344581548064947,-0.038559776551462706,0.08140015303157269
1782811023378144300,1.609144287109375,-0.10516425578296183,-0.012008600364811719,0.11626951409988105
1782811023388215300,1.61921533203125,-0.027640871119499207,-0.047689204750768835,0.12406104475893079
1782811023398286300,1.629286376953125,-0.03265197727978229,-0.03683021281249821,0.09533281679414213
1782811023408358400,1.6393583984375,-0.08753156845867634,-0.039678514915704725,0.07282923549786209
1782811023418429400,1.649429443359375,-0.11744096903204918,-0.06935713894050569,0.03660743690729141
1782811023428500200,1.659500244140625,-0.06234452023208141,-0.09281875161398202,0.020903891014680265
1782811023438571300,1.6695712890625,-0.018947861576080322,-0.05125128114651888,0.02552490187883377
1782811023448643300,1.679643310546875,0.02470540218949318,-0.03707852501776069,0.02948328411579132
1782811023458714400,1.68971435546875,0.039483284604549404,-0.03656253831963986,0.03191109578460455
1782811023468785400,1.699785400390625,0.11921616201102733,-0.048833662078157064,0.009189560888707636
1782811023478857200,1.709857177734375,0.19014029453992842,-0.06613006665278226,0.027861089741438624
1782811023488928300,1.71992822265625,0.06030278527140617,-0.026685945014841853,0.007223448447510599
1782811023498999300,1.729999267578125,-0.1976525698661804,-0.008666085003875196,-0.029917656945064663
1782811023509070000,1.740070068359375,-0.21580080549716948,-0.012086707102321088,-0.06081650694720447
1782811023519142400,1.750142333984375,-0.0587502951323986,-0.05517170599326491,-0.02429112230017781
1782811023529213200,1.760213134765625,0.09330255307555198,-0.05793569081388414,0.007488967515900731
1782811023539284200,1.7702841796875,0.16692600769102572,-0.06010364597011357,-0.004929784552380442
1782811023549356300,1.780356201171875,0.12343582553267478,-0.02317760810032487,-0.026397081603482364
1782811023559427300,1.79042724609375,-0.07429448574483394,-0.010387355838529766,-0.03551211595125496
1782811023569498400,1.800498291015625,-0.1816454379171133,-0.025064006368815898,-0.08904752597957849
1782811023579569400,1.8105693359375,-0.07343231595754623,-0.05932517241090536,-0.10979542271494865
1782811023589641200,1.82064111328125,0.013147066342830657,-0.07430573779121041,-0.07330204064138233
1782811023599712300,1.830712158203125,0.04093699054419994,-0.03350987275075167,-0.07343428871892392
1782811023609783300,1.840783203125,0.06316226635575294,0.01590487715099007,-0.08247954576611519
1782811023619855000,1.850855224609375,-0.023698855495452878,0.026630525033175943,-0.05972469312250614
1782811023629926100,1.860926025390625,-0.056927171358466144,0.023938217209279536,-0.053968467683345074
1782811023639997200,1.8709970703125,0.044859716945886606,-0.013184329613298178,-0.0930219095032662
1782811023650068200,1.881068115234375,0.15745733759999275,-0.05790007151123136,-0.10082659190483391
1782811023660140300,1.891140380859375,0.21137071409523486,-0.08484159872233867,-0.09265833688788115
1782811023670211300,1.90121142578125,0.15273790786266325,-0.04185293634533882,-0.09864449862539768
1782811023680282400,1.911282470703125,-0.025395722541213035,-0.021010200933367012,-0.1098497101854533
1782811023690354400,1.9213544921875,-0.050476972305774685,-0.04651037022974342,-0.09826141759194433
1782811023700425500,1.931425537109375,0.07856967884600162,-0.07216200376078485,-0.053465267401561135
1782811023710496300,1.941496337890625,0.14061550839245318,-0.09627481035199016,-0.018401114413514733
1782811023720567300,1.9515673828125,0.051636079213023184,-0.08374854278862476,0.024551672932505608
1782811023730639000,1.96163916015625,-0.09971300463974475,-0.06036273529771715,0.04471526697389781
1782811023740710100,1.971710205078125,-0.14943535918593406,-0.05739763841442763,0.04230528322272002
1782811023750781200,1.98178125,-0.08563479492664337,-0.08927727961484343,0.06677687665633857
1782811023760853200,1.991853271484375,-0.01006605146229267,-0.07270783760789781,0.10907675305157899
1782811023770924300,2.00192431640625,0.02652618787586689,-0.05250343663208187,0.09527136893048882
1782811023780995300,2.011995361328125,-0.010169511836767196,-0.0591492313221097,0.10972169989161193
1782811023791066000,2.022066162109375,-0.11208207234740257,-0.06185198747478425,0.0955412719130516
1782811023801138200,2.03213818359375,-0.10938976452350616,-0.07841054276153445,0.09941796721592545
1782811023811209200,2.042209228515625,-0.04078852198421955,-0.0675864760061726,0.07315773679986595
1782811023821280800,2.05228076171875,-0.033491350713372225,-0.06941325304191559,0.0990193232871592
1782811023831352800,2.062352783203125,-0.031436171749234194,-0.057393802489526566,0.09854578749127685
1782811023841424000,2.072423828125,-0.03486088550090789,-0.04125975622516125,0.03992394104413688
1782811023851494700,2.08249462890625,0.051854690399765965,-0.02897730735503137,0.005027034381777048
1782811023861565700,2.092565673828125,0.1638081679314375,-0.03820402191635221,0.016091595362126825
1782811023871637500,2.102637451171875,0.08657821325659751,-0.030251820802874863,0.02239120696298778
1782811023881708500,2.11270849609375,-0.054630584853887554,-0.03669347122292965,-0.011390358868613839
1782811023891779600,2.122779541015625,-0.12044833415448665,-0.015084683341905474,-0.04945983115248382
1782811023901851600,2.1328515625,-0.04182371025085449,-0.027545703649334608,-0.03878960325196385
1782811023911922700,2.142922607421875,0.06187398011088371,-0.04608487482666969,-0.030108064950630068
1782811023921993700,2.15299365234375,0.06351414853334426,-0.03561948531586677,-0.05130312093161046
1782811023932064500,2.163064453125,0.021802081963419914,-0.04262571081612259,-0.07841280778385698
1782811023942136800,2.17313671875,-0.02971241669654846,-0.053541547508165234,-0.10965038822107016
1782811023952207600,2.18320751953125,-0.03532499588131904,-0.04762929125707596,-0.1227257045019418
1782811023962278700,2.193278564453125,0.03513035009205341,-0.04256218059323728,-0.11292721793465316
1782811023972350700,2.203350830078125,0.09710019179284572,-0.03642729456741363,-0.07375650641061365
1782811023982421800,2.213421875,0.15383096379637717,-0.07410732914227992,-0.060228624056652184
1782811023992492800,2.223492919921875,0.12752689423859118,-0.08957469165883958,-0.06555142651461064
1782811024002563800,2.233563720703125,0.015846388429403304,-0.0591155117155984,-0.04498546221740544
1782811024012635600,2.2436357421875,-0.061354340150952334,-0.029248160185664892,-0.013116159747913478
1782811024022706700,2.253706787109375,-0.011398176848888397,-0.03072539313137531,-0.003387304350733757
1782811024032777500,2.263777587890625,-0.02387830371558666,-0.0637249417398125,-0.011869447622448206
1782811024042849500,2.273849609375,-0.031825463327765466,-0.08736841378621757,-0.0031587562918663024
1782811024052920600,2.283920654296875,0.011175474008917809,-0.1075112573005259,0.013472498904913663
1782811024062991600,2.29399169921875,-0.07028525010347365,-0.09173541335668414,0.05457162120826542
1782811024073062700,2.304062744140625,-0.2658580910861492,-0.07405643920525908,0.019799436904117465
1782811024083134700,2.314134765625,-0.2350181316643953,-0.06941361836809665,0.044276217969506974
1782811024093205800,2.324205810546875,-0.08845043686926364,-0.04520546164363622,0.10672383324988186
1782811024103276800,2.33427685546875,0.006036357554793357,-0.06649992287848144,0.13530205828472971
1782811024113347600,2.34434765625,0.06266191561818123,-0.08808912927620112,0.12291932737790047
1782811024123419600,2.354419677734375,0.03753682671189308,-0.09501315638571978,0.07787205197066069
1782811024133490700,2.36449072265625,0.0279547593742609,-0.08840268873739987,0.05489749216176569
1782811024143561700,2.374561767578125,0.02175122855901718,-0.07532072352003305,0.021748232884332537
1782811024153633500,2.384633544921875,0.049910570594668385,-0.08128500221930443,0.022229294399544595
1782811024163704600,2.39470458984375,0.0993453403711319,-0.06973141561299562,0.04739164657630026
1782811024173775600,2.404775634765625,0.05423486353456974,-0.04318780167829245,0.04958418818451464
1782811024183846700,2.4148466796875,0.049232525202631945,-0.03520147909950465,0.03656936991922557
1782811024193918700,2.424918701171875,-0.0031382980257272717,-0.02655084739308804,0.02179470237456262
1782811024203989800,2.43498974609375,-0.0026087211936712262,-0.0319357553018257,-0.009380188089981674
1782811024214060500,2.445060546875,0.11476561234295367,-0.050176235793530935,-0.009164718708395957
1782811024224132600,2.455132568359375,0.15680267308354376,-0.06385404801219702,0.015294892026484012
1782811024234203600,2.46520361328125,0.1104296289652586,-0.04932024001870304,0.0010503127705305815
1782811024244274700,2.475274658203125,0.04359890322983265,-0.06450085801575332,-0.05497106885462999
1782811024254345700,2.485345703125,0.026736031234264372,-0.07643295907825232,-0.06366188644096255
1782811024264417500,2.49541748046875,-0.01571487100422382,-0.08642769887000322,-0.07906016577668487
1782811024274488600,2.505488525390625,-0.06760521723926068,-0.08902326832115649,-0.12098382927067577
1782811024284559600,2.5155595703125,-0.06576046615540981,-0.09315609380956738,-0.14619769243896005
1782811024294631700,2.525631591796875,-0.04195113602280617,-0.07768869476038961,-0.10878814536854624
1782811024304702700,2.53570263671875,0.002001402950286865,-0.0741619088737294,-0.056624242889136076
1782811024314773500,2.5457734375,0.034189854371547694,-0.053950822428800164,-0.008590060625597834
1782811024324844500,2.555844482421875,0.012484803041815757,-0.044474736216291784,0.019790522945299743
1782811024334916600,2.56591650390625,0.019461071795225143,-0.053941104752384124,0.012555530190467833
1782811024344987600,2.575987548828125,0.036541970455646514,-0.05854984065685421,-0.0035678485494107007
1782811024355058700,2.58605859375,-0.02898001076877117,-0.0426595400204882,0.017878405713662504
1782811024365130800,2.596130859375,-0.08647358383834361,-0.0326776962429285,0.02605835116840899
1782811024375201800,2.606201904296875,-0.09954875398874283,-0.03347567822020501,0.04548771265111863
1782811024385272800,2.61627294921875,-0.06591945610940456,-0.04521656755954027,0.01649506159648299
1782811024395343600,2.626343505859375,-0.011776362511515617,-0.03215812934823334,0.03982661814950406
1782811024405415400,2.63641552734375,0.0751198306530714,-0.04030154218487441,0.04100209166966379
1782811024415486500,2.646486572265625,0.06061667352616787,-0.045360688737966115,-0.0013674158956855534
1782811024425557500,2.6565576171875,-0.009262918385863303,-0.028437428324669597,-0.05960713115744292
1782811024435629600,2.666629638671875,0.02926934910416603,-0.003703092301636934,-0.06137604052610695
1782811024445700600,2.67670068359375,0.08374094400405883,-0.0046718277359381315,-0.007091638761386275
1782811024455771600,2.686771728515625,0.026034020444750783,-0.01581489731259644,0.026706366748362777
1782811024465842700,2.6968427734375,-0.021408114209771154,-0.006134118840843438,-0.022009075777605174
1782811024475914800,2.706914794921875,-0.011335633006691931,-0.025911709239333867,-0.03654598904363811
1782811024485985800,2.71698583984375,0.019801263535022734,-0.02370634468216449,-0.028803704353794455
1782811024496056600,2.727056640625,0.04851707040965557,-0.03341528980247676,-0.02359846386089921
1782811024506128600,2.737128662109375,0.03933656961023807,-0.01950797967687249,-0.04921403969787061
1782811024516199700,2.74719970703125,0.0059866731941699974,-0.048028885033912956,-0.05995484861657023
1782811024526270700,2.757270751953125,0.034382162073254584,-0.08312533285636454,-0.08473726156502961
1782811024536341800,2.767341796875,0.11493337012529373,-0.08359532498829066,-0.06484649311564862
1782811024546413600,2.77741357421875,0.16307693104743956,-0.05451243836693465,-0.027766908651962876
1782811024556484600,2.787484619140625,0.14391513445973395,-0.02551010616850108,0.061709437198936935
1782811024566555600,2.7975556640625,0.050801966476440426,-0.004652648111432791,0.10162672930657864
1782811024576627700,2.807627685546875,-0.012290157252550124,-0.013243731650337575,0.059772989243641494
1782811024586698500,2.817698486328125,-0.0622141718506813,-0.021967976582236586,0.06339519832879305
1782811024596769500,2.82776953125,-0.16980068634450435,-0.02552051796466112,0.06800517634227872
1782811024606840600,2.837840576171875,-0.32015900559425353,-0.022560499115288256,0.037303967804089185
1782811024616912600,2.84791259765625,-0.39089433755278585,-0.06062398004978895,-0.027765447347238657
1782811024626983700,2.857983642578125,-0.28437340646386144,-0.09651110332589596,-0.0820697959214449
1782811024637054700,2.8680546875,-0.12881342691779135,-0.11331358690373598,-0.11528130678012967
1782811024647126800,2.878126708984375,0.04791793547272682,-0.09735328977108001,-0.07110365381427108
1782811024657197800,2.88819775390625,0.1488537599056959,-0.10729991610478609,-0.054134106573835016
1782811024667268900,2.898268798828125,0.14820143347680567,-0.09697152391187847,-0.040698724808916446
1782811024677339600,2.908339599609375,0.143055302760005,-0.06813011789619922,-0.02988368161022663
1782811024687411500,2.918411376953125,0.13461597571671008,-0.046676410979032516,0.0032259763091802597
1782811024697482500,2.928482421875,0.06949731459617614,-0.04008172542173415,0.0032787294097244737
1782811024707553500,2.938553466796875,0.06159516316950321,-0.029168994002230463,-0.018602847530692815
1782811024717625600,2.94862548828125,0.06365969448387622,-0.05241908281687647,-0.015012567953765392
1782811024727696600,2.958696533203125,0.0770195267945528,-0.07797050737645476,-0.01445325357057154
1782811024737767700,2.968767578125,0.07446341257095336,-0.0777776882180944,-0.04041019019111991
1782811024747838700,2.978838623046875,0.09545008649826049,-0.0743569199891761,-0.04234729573354125
1782811024757910800,2.988910888671875,0.09581950433254241,-0.06271697027366609,0.00012274959683418273
1782811024767981800,2.99898193359375,0.048943771389126776,-0.07902396195214241,-0.01813099223524332
1782811024778052600,3.009052490234375,0.0067798693984746925,-0.0675609031734988,-0.030791444104909894
1782811024788123600,3.01912353515625,-0.04622165294885635,-0.059202203618362544,-0.05537913819886744
1782811024798195700,3.02919580078125,-0.03836918588280678,-0.08342650776002555,-0.06694266167730092
1782811024808266800,3.039266845703125,0.02451543257534504,-0.09027966159041971,-0.049507542751729486
1782811024818337800,3.049337890625,0.10585048448145389,-0.08878978835884481,-0.00900244081877172
1782811024828409900,3.059409912109375,0.20576281108558175,-0.07998853266797959,0.02527472651004791
1782811024838481000,3.06948095703125,0.2040887403935194,-0.04101199200917035,0.041776290912553665
1782811024848552000,3.079552001953125,0.15088555799424647,-0.019435024038515984,0.07002126540504396
1782811024858623000,3.089623046875,0.0950491044819355,-0.025068024956807492,0.08519326170422137
1782811024868695000,3.099695068359375,-0.03221007873117924,-0.04694795792941004,0.06679053985550999
1782811024878766000,3.10976611328125,-0.14687339974343777,-0.07535769452955574,0.011795213342458009
1782811024888837000,3.119837158203125,-0.14196458491384983,-0.08964428629633038,-0.01204210077561438
1782811024898909200,3.1299091796875,-0.09398001394569873,-0.08300112195480615,-0.010408508224412798
1782811024908980200,3.139980224609375,-0.0627460867702961,-0.06575538812149316,-0.006287921163067221
1782811024919051000,3.150051025390625,0.008570844468474387,-0.04344864457156509,-0.020924641541764138
1782811024929122000,3.1601220703125,-0.020062544819712636,-0.0515139872033149,-0.003893865633383393
1782811024939193900,3.17019384765625,-0.03920154505372047,-0.01472969589177519,0.03079999273754656
1782811024949265000,3.180264892578125,-0.007888707423210144,0.013519004927761851,0.025723273995146154
1782811024959336000,3.1903359375,0.020562895557284355,0.02451941463071853,0.061209451787546276
1782811024969408000,3.200407958984375,0.04146247572302818,-0.007886369335651398,0.05850260398164391
1782811024979479000,3.21047900390625,0.06680149964094162,-0.03828037508819252,0.02653225229047239
1782811024989550000,3.220550048828125,0.028372108003497123,-0.057092773716337974,-0.019275705290958286
1782811024999620900,3.230620849609375,-0.024102175599336622,-0.07226308951508253,-0.03587327741384506
1782811025009693000,3.24069287109375,-0.04420329886376857,-0.05808273460175842,-0.07100158167928457
1782811025019764000,3.250763916015625,-0.00007481880187988281,-0.07544887994434685,-0.09423442709818482
1782811025029835000,3.2608349609375,0.04004676370620727,-0.07443075241036713,-0.06490472610890866
1782811025039907000,3.270906982421875,0.08601181154549122,-0.0865409865187481,-0.056384661979600785
1782811025049978000,3.28097802734375,0.10011924735307692,-0.06280252966526896,-0.03927577933371067
1782811025060049200,3.291049072265625,0.0977940192759037,-0.06302059286274016,-0.02500635789744556
1782811025070120200,3.3011201171875,0.07515256387889385,-0.05790193467475473,-0.0027693185828626156
1782811025080192000,3.31119189453125,0.08530512458086013,-0.06899707345645874,-0.0012006810266524553
1782811025090263000,3.321262939453125,0.04263619567751884,-0.08180219449382276,0.025897680713981387
1782811025100333800,3.331333740234375,-0.002846621602773666,-0.10647950309999286,0.02734400706477463
1782811025110406000,3.341406005859375,-0.010341361272335052,-0.1353039579808712,0.024657982851192355
1782811025120477000,3.351476806640625,-0.0351309346139431,-0.14103373380452394,0.01718202094733715
1782811025130548000,3.3615478515625,-0.13950024062693117,-0.08658003988750279,0.02484218031167984
1782811025140619000,3.371618896484375,-0.256246213132143,-0.05697762290406972,0.023010727100819348
1782811025150691000,3.381691162109375,-0.26146891621649265,-0.042424817949160934,0.024214257671684024
1782811025160762000,3.39176220703125,-0.15611059916615486,-0.08720167891718447,-0.003919219270348549
1782811025170833200,3.401833251953125,-0.09080898269414901,-0.1446864110931754,-0.018153569393232465
1782811025180905200,3.4119052734375,-0.028458617243170736,-0.15658179687447846,-0.06266344998814165
1782811025190976300,3.421976318359375,0.08645020296275616,-0.15360774949975312,-0.06180829446353018
1782811025201047000,3.432047119140625,0.14958324322402478,-0.12995229475460945,-0.021699133045598864
1782811025211118000,3.4421181640625,0.19185820437371728,-0.08879830045886337,-0.005039601602405309
1782811025221190000,3.45218994140625,0.13382979377508164,-0.04589680490866303,0.01801489157490432
1782811025231261000,3.462260986328125,0.023721651849150656,-0.03301226195953786,0.03479118126556277
1782811025241332000,3.47233203125,-0.025427871245145797,-0.031096272270381448,0.011246274222806095
1782811025251404000,3.482404052734375,0.007626257094740867,-0.07017908631525933,-0.028214652419462798
1782811025261475000,3.49247509765625,0.028947862064838407,-0.09274375014901161,-0.06371610084623099
1782811025271546000,3.502546142578125,0.032089082700014114,-0.08432743865512311,-0.09953341028913855
1782811025281617000,3.512616943359375,0.09271861570775508,-0.06753083682879805,-0.09949461264871061
1782811025291689000,3.52268896484375,0.09571604395806789,-0.06259520705752074,-0.07658106231205165
1782811025301760000,3.532760009765625,0.034249475604295726,-0.06890015242062508,-0.04677198030799627
1782811025311831000,3.5428310546875,-0.04525368469953537,-0.029850656123459336,-0.05120426366701722
1782811025321902000,3.552902099609375,-0.15460896243155,-0.06969583284296095,-0.12276910525225102
1782811025331974100,3.56297412109375,-0.23467560183703898,-0.08049480168968438,-0.11896905538216232
1782811025342045200,3.573045166015625,-0.16801555649340152,-0.09588592063225805,-0.11531469759307801
1782811025352116200,3.5831162109375,-0.06466273404657841,-0.09846475814431906,-0.10108736173287033
1782811025362188000,3.59318798828125,-0.01390636027753353,-0.125845955414325,-0.11399915801510214
1782811025372259000,3.603259033203125,0.021503975799679755,-0.09522321893982588,-0.07955868988335132
1782811025382329900,3.613329833984375,0.02339607315659523,-0.09493329608254134,-0.0934248642809689
1782811025392401000,3.62340087890625,0.013967735075950621,-0.08793620373681187,-0.07616122946478426
1782811025402473000,3.633472900390625,-0.007221183425188064,-0.0909608122549951,-0.0705825525496155
1782811025412544000,3.6435439453125,-0.0573211391121149,-0.08520692490339278,-0.04962327808588743
1782811025422615000,3.653614990234375,-0.08265665589869022,-0.05765716613344848,-0.025967384949326513
1782811025432687000,3.66368701171875,-0.011603928554058075,-0.03759535196609795,0.044374271516501904
1782811025442758100,3.673758056640625,0.06971358769536018,-0.015168269972130655,0.13881956488639116
1782811025452829200,3.6838291015625,0.09825637609064579,-0.02332797635644674,0.19387495102360844
1782811025462900000,3.69389990234375,0.12753800015449523,-0.04478329070881009,0.2148085795894265
1782811025472972000,3.703971923828125,0.08403203590512275,-0.08564261290691792,0.17029358442798256
1782811025483043000,3.71404296875,0.08684826236963272,-0.1260032648678869,0.1340618489652872
1782811025493114000,3.724114013671875,0.047182022413611406,-0.13956906807944178,0.08785627036839723
1782811025503186000,3.73418603515625,0.03460544943511486,-0.15929098276793957,0.017466683107614515
1782811025513257000,3.744257080078125,0.07997194685935974,-0.10055478922612965,0.020189824461191892
1782811025523328000,3.754327880859375,0.04657587321400642,-0.06811024415194988,0.09060936846882105
1782811025533399000,3.76439892578125,-0.08965279839634895,-0.037617417667433616,0.07424304781854152
1782811025543471000,3.77447119140625,-0.18054419867694377,-0.0373283715929836,0.06779226424396037
1782811025553542100,3.784542236328125,-0.155938749730587,-0.07065108774118126,0.03689487554654479
1782811025563613000,3.794613037109375,-0.1323790104448795,-0.1060462993144989,-0.03146393653899431
1782811025573685000,3.80468505859375,-0.035187633237242694,-0.11815174764990806,-0.09633709846585989
1782811025583756000,3.814756103515625,0.07680383821725845,-0.12199848620593547,-0.10048895744830369
1782811025593827000,3.8248271484375,0.1345715520530939,-0.08075506006106734,-0.046789369834214445
1782811025603898000,3.834898193359375,0.22728782967329023,-0.02576820911541581,0.04559343804791569
1782811025613970000,3.844969970703125,0.34376901376247404,0.03303703107461333,0.17033216287270186
1782811025624041000,3.855041015625,0.3761795835018158,0.06869542362876237,0.26879838232174513
1782811025634112000,3.865112060546875,0.2852250548571348,0.06977985786460339,0.24454130842164157
1782811025644184000,3.87518408203125,0.10804536417722702,0.04642674706690013,0.12436404629349708
1782811025654254800,3.8852548828125,-0.05329729042351246,0.03494118419550359,0.010655103396624326
1782811025664326000,3.895325927734375,-0.08574117791056632,0.014363675590977072,-0.03966916256546974
1782811025674397000,3.90539697265625,-0.044594928529858587,0.012848229526728391,-0.04552840998768806
1782811025684469000,3.915468994140625,-0.05294365468025207,0.0004424830704927444,-0.06449979856982826
1782811025694540000,3.9255400390625,-0.11946809094548225,0.0037333413094282147,-0.13179711890369653
1782811025704611000,3.935611083984375,-0.17272095770537851,0.013176365502551197,-0.17124664736911654
1782811025714683100,3.94568310546875,-0.0564846882879734,-0.007279854809865355,-0.17897665709927676
1782811025724754200,3.955754150390625,0.06895546280443668,0.0019206658642739057,-0.15924772814810276
1782811025734825200,3.9658251953125,0.05562836371958255,0.03924932971820235,-0.16600597023665903
1782811025744896000,3.97589599609375,-0.019428338569402695,0.032578327521681785,-0.1859909197755158
1782811025754967800,3.9859677734375,-0.1114402673125267,0.01399959151893854,-0.18016528236195445
1782811025765038800,3.996038818359375,-0.20217676929235456,-0.003386792894080281,-0.1636671520255506
1782811025775110000,4.00610986328125,-0.23816753560602663,0.014116642027348279,-0.11067176715806126
1782811025785182000,4.016181884765625,-0.13224223232269286,0.04090842203684151,-0.03190451991334557
1782811025795253000,4.0262529296875,0.0646978053599596,0.026967940293997524,0.04900032388195395
1782811025805324000,4.036323974609375,0.13922785342633723,0.017424962857738136,0.09795870831832289
1782811025815395000,4.04639501953125,0.19418167888522148,0.0036439825255423783,0.10664105033725499
1782811025825466600,4.056466552734375,0.257156313714385,-0.022780279345810412,0.10243848408088087
1782811025835537700,4.06653759765625,0.24513269844353197,-0.03833068050332367,0.09909735695943236
1782811025845608700,4.076608642578125,0.24129005154073238,-0.0709768856294453,0.12627440995946526
1782811025855679700,4.0866796875,0.2575590492963791,-0.07922185914441943,0.17628990223333238
1782811025865751800,4.096751708984375,0.189501412114501,-0.0946258375685662,0.19987989052683114
1782811025875822600,4.106822509765625,0.025676293048262595,-0.1209677549187094,0.15402473280280826
1782811025885893600,4.1168935546875,-0.18622224431335924,-0.1505610752802342,0.08972703267633915
1782811025895965700,4.126965576171875,-0.299189867323637,-0.1417714734945446,0.008940554563701152
1782811025906036700,4.13703662109375,-0.27020751846730706,-0.14346132627762853,-0.0231501355715096
1782811025916107800,4.147107666015625,-0.13025953407287597,-0.12594853900596498,0.011381371844559908
1782811025926178800,4.1571787109375,-0.006761164698004722,-0.08694500074237585,0.05799728480800986
1782811025936250600,4.167250732421875,0.025171266135573387,-0.05022928115502,0.14465850017294288
1782811025946321700,4.17732177734375,-0.04764905540347099,-0.009033712739869951,0.16164090689495206
1782811025956392700,4.187392822265625,-0.1438438227891922,-0.012994140803441405,0.10116086536049843
1782811025966464800,4.19746484375,-0.15086100807487965,-0.03923186712674796,0.08322422665357589
1782811025976535600,4.20753564453125,-0.046479427102208135,-0.07068740116357802,0.05203910705596208
1782811025986606600,4.217606689453125,0.1524222660422325,-0.11055705473721027,0.05694675284177064
1782811025996677600,4.227677734375,0.2727577874720096,-0.10408084446042776,0.08912409834712744
1782811026006749700,4.237749755859375,0.26076515186131,-0.05028977917060256,0.09740735804587602
1782811026016820700,4.24782080078125,0.13208148880302906,-0.020521175307407973,0.10553381974771618
1782811026026891800,4.257891845703125,0.044747488743066784,0.014814195837453007,0.09653320555984973
1782811026036963600,4.267963623046875,0.006689268505573272,0.015987769661471248,0.09868468450531363
1782811026047034600,4.27803466796875,-0.011446107643842697,-0.023429975426197052,0.06656725249364971
1782811026057105700,4.288105712890625,-0.004691957208514213,-0.05776815222725272,0.019212649992108345
1782811026067176700,4.2981767578125,-0.02135258463025093,-0.07853446140214801,-0.054012745216488835
1782811026077248500,4.30824853515625,-0.008677811974287032,-0.10557130221389234,-0.09408405884206295
1782811026087319600,4.318319580078125,0.037602877685427666,-0.08788125867918133,-0.0490614064194262
1782811026097390600,4.328390625,0.10389584328234196,-0.05318951920010149,-0.0015549743570387362
1782811026107462700,4.338462646484375,0.08802841206490992,-0.01857493661046028,0.03358385130241513
1782811026117533700,4.34853369140625,0.0021942951738834378,-0.00404722956418991,0.012646131083369254
1782811026127604700,4.358604736328125,-0.02481295421719551,-0.027157179255783558,-0.038015988530963656
1782811026137675800,4.36867578125,-0.005294014754891396,-0.07561864702068269,-0.08761939287260175
1782811026147747800,4.378747802734375,0.02413549334704876,-0.0909641732558608,-0.07730155860632658
1782811026157818600,4.388818603515625,0.10458908624351024,-0.05763809610679745,-0.027823972601443526
1782811026167889700,4.3988896484375,0.23137948290109633,-0.05771174586489796,0.05049070857018232
1782811026177961500,4.40896142578125,0.2976332855314016,-0.06753953159190713,0.12896569487005471
1782811026188032500,4.419032470703125,0.2218120286107063,-0.06791004540473222,0.1282236443310976
1782811026198103600,4.429103515625,0.0868441707164049,-0.05547313662525266,0.10137523876354097
1782811026208174600,4.439174560546875,-0.0273012639015913,-0.04557663304358721,0.05330605825185775
1782811026218246700,4.44924658203125,-0.14609364754259585,-0.05620952460840344,-0.004625613974034786
1782811026228317700,4.459317626953125,-0.18181670283079146,-0.08240721118226647,-0.059982467275857924
1782811026238388500,4.469388427734375,-0.15796119546890258,-0.0833606394495815,-0.08350771977007389
1782811026248460500,4.47946044921875,-0.19795126055181025,-0.06224328834731131,-0.09667626729235053
1782811026258531600,4.489531494140625,-0.21311434289216993,-0.05995086656119674,-0.09640957918018102
1782811026268602600,4.4996025390625,-0.31401568053364753,-0.049121575641445814,-0.08537599785998463
1782811026278673700,4.509673583984375,-0.32074586557149887,-0.07099127948097884,-0.11815028634518385
1782811026288745700,4.519745849609375,-0.22587971644103524,-0.08314487780705093,-0.0961973977342248
1782811026298816800,4.529816650390625,-0.06878595145642757,-0.07776230798587203,-0.041255116582661865
1782811026308887800,4.5398876953125,0.06922726548314094,-0.06336283042915165,-0.008799830918759107
1782811026318959600,4.549959716796875,0.1420709678977728,-0.03181278650928288,0.047911797992885106
1782811026329030700,4.56003076171875,0.13368190973699093,0.011759374844096601,0.053366556267440315
1782811026339101400,4.570101318359375,0.06834814456105232,0.008996522534638642,0.03580518061369657
1782811026349172500,4.58017236328125,-0.00568681346476078,0.023613844093121585,0.02176467256247997
1782811026359244500,4.59024462890625,-0.016573533660173414,-0.03436316511183977,-0.0394137264996767
1782811026369315600,4.600315673828125,-0.038704116925597186,-0.10289375356771051,-0.1373907011270523
1782811026379386600,4.61038671875,-0.05375847819447517,-0.08759710797555745,-0.15833704304397106
1782811026389458700,4.620458740234375,-0.16578092930912972,-0.03923457054048776,-0.1353572956033051
1782811026399529700,4.63052978515625,-0.2152156990855932,-0.019998137813992796,-0.10195566899999975
1782811026409600800,4.640600830078125,-0.11465338414013385,-0.052443815399333835,-0.09711553549244999
1782811026419671600,4.650671630859375,0.08444704644680023,-0.10109470478910952,-0.1224848084181547
1782811026429743900,4.660743896484375,0.20493454356789587,-0.08482106739096343,-0.11260653461292386
1782811026439814700,4.670814697265625,0.16917349435687065,-0.0158537680182606,-0.03269362446442246
1782811026449885700,4.6808857421875,0.11744564520716666,0.040328576322272415,0.06578823094516992
1782811026459957500,4.69095751953125,0.17393968584537506,0.014036599061079322,0.11004852069318294
1782811026470028500,4.701028564453125,0.2615349671900272,-0.03570811344739049,0.0857328484736383
1782811026480099600,4.711099609375,0.22250351800620555,-0.028172676441259682,0.048561494073271746
1782811026490170600,4.721170654296875,0.04580021266639232,-0.04641852722782641,0.007928454911708831
1782811026500242700,4.73124267578125,-0.049607788255810734,-0.036935792078822846,-0.004644026413559914
1782811026510313700,4.741313720703125,-0.07081190432608127,-0.01934771108124405,0.014675883345305918
1782811026520384500,4.751384521484375,-0.06451543453037738,-0.045019291421771045,0.025772300768643615
1782811026530456600,4.76145654296875,-0.03353752794265747,-0.047164048365503544,-0.043425738620013
1782811026540527600,4.771527587890625,-0.0899725318700075,-0.030678010325692593,-0.07105828030258417
1782811026550598700,4.7815986328125,-0.11627952403724193,-0.058855582137778396,-0.10090455251187086
1782811026560669700,4.791669677734375,-0.07903437374830245,-0.021339907811768352,-0.08342968609780073
1782811026570741800,4.80174169921875,-0.07868892131149768,0.010992080266028641,-0.030313305199146268
1782811026580812800,4.811812744140625,-0.0377799878180027,0.007685330338217318,0.0024972236432135105
1782811026590883800,4.8218837890625,0.09908698169589042,-0.01629387646857649,0.013708207356929777
1782811026600954600,4.83195458984375,0.2034481044024229,-0.04856785074882209,-0.007154401799291372
1782811026611026700,4.842026611328125,0.23021043912172315,-0.04201707739848643,-0.008369038286060095
1782811026621097500,4.852097412109375,0.17283786208331584,-0.007179426642693579,0.024821575915068388
1782811026631168500,4.86216845703125,0.18311843307912348,0.009556713700667022,0.04159983836710453
1782811026641240600,4.872240478515625,0.17143384050428867,0.0008049597073346376,0.06711217302531003
1782811026651311600,4.8823115234375,0.12613923927247522,-0.00928030791208148,0.03185907333642244
1782811026661382700,4.892382568359375,0.04994271929860115,-0.04823496553264558,-0.022949060041457414
1782811026671453700,4.90245361328125,-0.010320318484306335,-0.024766630857437848,-0.03507365146875381
1782811026681525800,4.91252587890625,-0.1654413220912218,0.039687355809286236,-0.029556057091057297
1782811026691596800,4.9225966796875,-0.30120354523360726,0.03509188124518841,-0.019770283874869347
1782811026701667600,4.93266748046875,-0.33622166712284085,0.025350823953561485,-0.0327235812112689
1782811026711739600,4.94273974609375,-0.26237784775495526,-0.038321656946651635,-0.09049421765655279
1782811026721810700,4.952810791015625,-0.1342091484814882,-0.09656045889295638,-0.11771174879744649
1782811026731881700,4.9628818359375,0.020360650983452796,-0.10511435222662985,-0.12563216653317213
1782811026741952800,4.972952880859375,0.14579261876940727,-0.0911045315746218,-0.09752557759806513
1782811026752024600,4.983024658203125,0.07363456053137779,-0.021169190887361765,-0.0022207447893917557
1782811026762095600,4.993095703125,-0.059280456486344335,0.015774638367444277,0.03762991182282567
1782811026772166700,5.003166748046875,-0.10542144541442394,-0.0016897431852295993,0.004587181659787893
1782811026782238700,5.01323876953125,-0.10426233850717544,-0.038802535798773165,-0.06097103992179036
1782811026792309800,5.023309814453125,-0.06363280647695065,-0.05927256544083356,-0.07999561999589204
1782811026802380500,5.033380615234375,0.024288053560256956,-0.07637395890001207,-0.06941416635736823
1782811026812451600,5.04345166015625,0.1003255835801363,-0.08970456511620431,-0.045436493920534844
1782811026822524200,5.053524169921875,0.11076631357371806,-0.06632803691029548,-0.053930035369098184
1782811026832595200,5.06359521484375,0.05776654479205608,-0.07032214804776013,-0.0735961282171309
1782811026842666200,5.073666259765625,-0.000962123030424118,-0.07802395459674298,-0.1006456093147397
1782811026852738000,5.083738037109375,-0.029576807618141174,-0.08868252859208732,-0.11468012601658702
1782811026862809000,5.09380908203125,0.005755787047743797,-0.10214998599570244,-0.09173033532276749
1782811026872880000,5.103880126953125,0.10411796160042286,-0.08823935140185057,-0.02649710791185498
1782811026882951200,5.113951171875,0.21315701299011705,-0.08184124786257743,0.010000877271592616
1782811026893023200,5.124023193359375,0.29509938313961026,-0.04049713782221079,0.06323460093960166
1782811026903094000,5.134093994140625,0.18313713777959345,-0.021666326754540204,0.0856735195018351
1782811026913165000,5.1441650390625,0.028355741390585897,-0.005736132499203086,0.05154533218964934
1782811026923236000,5.154236083984375,-0.09695347679853439,-0.015468020103685557,0.04630494731813669
1782811026933308200,5.16430810546875,-0.16478841114044188,-0.06422507328167558,0.05046119021475315
1782811026943379200,5.174379150390625,-0.1613578521698713,-0.11187069461904466,-0.005161620546877384
1782811026953450200,5.1844501953125,-0.11486264297664164,-0.11252272878699004,-0.11819500226974487
1782811026963522300,5.194522216796875,-0.1518295608460903,-0.0638262832224369,-0.055294747851043935
1782811026973593300,5.20459326171875,-0.13032558504641056,0.02156929612085223,0.032048896820098156
1782811026983664000,5.2146640625,-0.11380232026875019,-0.027835443843528627,0.005064589913189411
1782811026993736200,5.224736083984375,-0.13504852191507816,-0.07685428976286202,-0.10016717814803124
1782811027003807000,5.234806884765625,-0.1728653346121311,-0.05889441631082445,-0.13735080750808118
1782811027013878000,5.2448779296875,-0.1977753194630146,-0.033022600690461694,-0.10446078368872404
1782811027023949000,5.254948974609375,-0.12625672817230224,-0.019811456135474144,-0.07916179952025414
1782811027034021000,5.265021240234375,0.02501286070346832,-0.02558627667725086,-0.08070289148241282
1782811027044092200,5.275092041015625,0.10942775844633579,-0.06257694074846804,-0.07233867550194263
1782811027054163200,5.2851630859375,0.21342180140614508,-0.08847864005044102,-0.07960749746114015
1782811027064234200,5.295234130859375,0.30305998675525186,-0.09397815078217536,-0.0492234651133418
1782811027074303200,5.30530322265625,0.24112989254295825,-0.03415821712426841,0.04095467233136296
1782811027084374300,5.315374267578125,0.1421224058240652,0.04000365521684289,0.16597572122886775
1782811027094446000,5.325446044921875,0.17110417015850543,0.020446173842437566,0.1650159362860024
1782811027104517000,5.33551708984375,0.18847382263243198,-0.032072204630449415,0.11272037025094031
1782811027114588200,5.345588134765625,0.05667582694590091,-0.055710123718902466,0.0751468647904694
1782811027124659000,5.355658935546875,-0.11473697077035903,-0.049027065758407117,0.058131724842637775
1782811027134731000,5.36573095703125,-0.2028945621728897,-0.061425907549820837,0.01750789190083742
1782811027144802000,5.375802001953125,-0.26033202114105225,-0.04155219983309507,-0.034409926863014695
1782811027154873000,5.385873046875,-0.2682633986622095,-0.02270045557525009,-0.04684899106696248
1782811027164945200,5.395945068359375,-0.1911176151394844,-0.020159867714345452,-0.06533961039483546
1782811027175016200,5.40601611328125,-0.16783786183893679,-0.01823711949083954,-0.04431859580650925
1782811027185087200,5.416087158203125,-0.16063889024555683,-0.048945123095996676,-0.08085296747758984
1782811027195158300,5.426158203125,-0.010433131209015846,-0.06451664010677487,-0.11042656022533774
1782811027205230300,5.436230224609375,0.16487375133633614,-0.08565861419364809,-0.06187558754608035
1782811027215301000,5.446301025390625,0.15093465783298016,-0.1279913699451834,-0.05408464140892028
1782811027225372200,5.4563720703125,-0.04308335492312908,-0.1055845635542646,-0.1759922344610095
1782811027235444000,5.46644384765625,-0.0886053351700306,-0.01214026392046362,-0.15962240667939184
1782811027245515000,5.476514892578125,-0.012687632137537002,0.03910484321359545,0.0760812230311334
1782811027255586000,5.4865859375,0.07387655259370804,0.009169248753041028,0.13539324369952083
1782811027265657000,5.496656982421875,0.18834990399181842,-0.022895466690696774,0.06318301688283681
1782811027275729200,5.506729248046875,0.28350246884822844,-0.030907508232630786,0.06874138166233897
1782811027285800200,5.51680029296875,0.27974750022888184,-0.019798085197247562,0.13948358175307513
1782811027295871200,5.526871337890625,0.2752057651460171,-0.0004925692899152637,0.12171353178471327
1782811027305943300,5.536943359375,0.20469430507123468,-0.004351400142535567,0.05376286210864782
1782811027316014000,5.54701416015625,0.036416882771253586,-0.10441186651308089,-0.0636062107309699
1782811027326085000,5.557085205078125,-0.026049802535772323,-0.1242697190735489,-0.16056801696643233
1782811027336156200,5.56715625,-0.08536825294494628,-0.04325425451062619,-0.10778452128395438
1782811027346228200,5.577228271484375,-0.016662965509295462,-0.01007050844170153,0.04722761512100696
1782811027356299300,5.58729931640625,0.11693126594424247,-0.018179653682559728,0.11531009448319673
1782811027366370300,5.597370361328125,0.14626958863139153,-0.0050162572594359515,0.12757672472968698
1782811027376442000,5.607442138671875,0.0943213747292757,-0.011745127123035489,0.11171674616634845
1782811027386513200,5.61751318359375,0.015696166303753853,-0.015874628143198788,0.08202332643121481
1782811027396584000,5.627583984375,-0.07877309246361255,-0.034127383594587446,0.039397798278182745
1782811027406655000,5.637655029296875,-0.11660977890491485,-0.09199315097741782,-0.016631401327252385
1782811027416727000,5.64772705078125,-0.1309200438082218,-0.11190565633457153,-0.030814240458607672
1782811027426798000,5.657798095703125,-0.09161503838002681,-0.059965954532474275,-0.00023950784429907797
1782811027436869000,5.667869140625,-0.029602526581287383,0.007737754645198583,0.06394611020982265
1782811027446941200,5.677941162109375,0.13428747441470623,0.03820979407001286,0.136531453949213
1782811027457015000,5.68801513671875,0.38323476271033285,0.04270538845621049,0.1511579451948404
1782811027467086000,5.698086181640625,0.11448796444535254,0.05839530768226832,0.06271072319597006
1782811027477157000,5.7081572265625,0.3769815475344658,0.0711914416955784,0.09581950433254241
1782811027487228200,5.718228271484375,-0.14057342281639576,-0.0031657340219244357,0.009569500117003917
1782811027497300200,5.72830029296875,-0.6824450883001089,-0.07466258840486407,-0.33827465412989255
1782811027507371300,5.738371337890625,-1.0283686497479676,-0.09466763088367879,-0.4633319433845579
1782811027517442300,5.7484423828125,-0.9275848010063171,-0.17597221458628773,-0.48206703899279235
1782811027527514000,5.75851416015625,-0.5544938311696053,-0.16993121738899497,-0.4699364562161267
1782811027537585200,5.768585205078125,-0.22522212931513785,-0.22167923254389316,-0.4111771009944379
1782811027547656000,5.778656005859375,0.18879589419364928,-0.21348346846550703,-0.2128229587301612
1782811027557727000,5.78872705078125,0.7117039160102605,-0.0903167421977967,-0.008369768938422202
1782811027567799000,5.798799072265625,0.7307096452534199,-0.020736571623757482,0.013278876028954983
1782811027577870000,5.8088701171875,0.7777841156393289,-0.09583857435919343,0.029793372978270054
