time,seconds_elapsed,z,y,x
1782811021847310000,0.07831005859375,-0.05273914709687233,0.052902545779943466,0.4302985668182373
1782811021857381000,0.088381103515625,-0.042373061180114746,0.06857273727655411,0.42207247018814087
1782811021867452000,0.098451904296875,-0.034124452620744705,0.07510174810886383,0.3975655436515808
1782811021877523000,0.10852294921875,-0.02695665881037712,0.055417124181985855,0.353579580783844
1782811021887595000,0.118594970703125,-0.0157583337277174,0.026649391278624535,0.2896253764629364
1782811021897666000,0.128666015625,-0.0024680951610207558,-0.004084663465619087,0.22066614031791687
1782811021907737000,0.138737060546875,0.007584805134683847,-0.02618463896214962,0.15864191949367523
1782811021917809000,0.148808837890625,0.016221221536397934,-0.017916228622198105,0.1152188703417778
1782811021927880000,0.1588798828125,0.022593101486563683,0.004986423533409834,0.10399284213781357
1782811021937951000,0.168950927734375,0.022684451192617416,0.03208734467625618,0.10255938023328781
1782811021948022000,0.17902197265625,0.026034973561763763,0.07020250707864761,0.106291264295578
1782811021958094000,0.189093994140625,0.027241114526987076,0.10004119575023651,0.10244914889335632
1782811021968164900,0.199164794921875,0.033434029668569565,0.1130472794175148,0.09151926636695862
1782811021978236000,0.20923583984375,0.03508508577942848,0.1203540489077568,0.08673026412725449
1782811021988308000,0.219307861328125,0.03851044178009033,0.12392667680978775,0.08540134876966476
1782811021998379000,0.22937890625,0.03898235410451889,0.14412303268909454,0.10073822736740112
1782811022008450000,0.239449951171875,0.03807634487748146,0.18482598662376404,0.12345951795578003
1782811022018521000,0.24952099609375,0.027813849970698357,0.21808172762393951,0.14528226852416992
1782811022028593200,0.25959326171875,0.018948718905448914,0.24700500071048737,0.1508679836988449
1782811022038664200,0.269664306640625,0.010582403279840946,0.26049837470054626,0.14474616944789886
1782811022048735200,0.2797353515625,0.01003539003431797,0.27403363585472107,0.13580459356307983
1782811022058807000,0.28980712890625,0.017838826403021812,0.2796403467655182,0.11660504341125488
1782811022068877800,0.2998779296875,0.028388405218720436,0.26067519187927246,0.08474884182214737
1782811022078948900,0.309948974609375,0.038401998579502106,0.22767284512519836,0.028711244463920593
1782811022089020000,0.32002001953125,0.042191941291093826,0.1940176784992218,-0.03743235766887665
1782811022099092000,0.330092041015625,0.04280020669102669,0.15890763700008392,-0.10061825066804886
1782811022109163000,0.3401630859375,0.036412082612514496,0.12062842398881912,-0.15705515444278717
1782811022119234000,0.350234130859375,0.02504699118435383,0.08154115825891495,-0.19518421590328217
1782811022129306000,0.36030615234375,0.006270107347518206,0.06579974293708801,-0.2186591774225235
1782811022139377200,0.370377197265625,-0.003549129469320178,0.0653253123164177,-0.21352796256542206
1782811022149448000,0.380447998046875,-0.013985525816679,0.07408738136291504,-0.21377617120742798
1782811022159519000,0.39051904296875,-0.022692833095788956,0.07553690671920776,-0.22025029361248016
1782811022169591000,0.400591064453125,-0.026288632303476334,0.0606362521648407,-0.2428506761789322
1782811022179662000,0.410662109375,-0.031796906143426895,0.05480697378516197,-0.26814183592796326
1782811022189733000,0.420733154296875,-0.03825906664133072,0.061091236770153046,-0.28336551785469055
1782811022199805000,0.430804931640625,-0.04037649184465408,0.0689307227730751,-0.29495781660079956
1782811022209876000,0.4408759765625,-0.03606696426868439,0.047823838889598846,-0.3033582270145416
1782811022219947000,0.450947021484375,-0.027801258489489555,0.030562233179807663,-0.304240345954895
1782811022230018000,0.46101806640625,-0.01558533962816,0.03337346762418747,-0.2967808246612549
1782811022240090000,0.471090087890625,0.0017211635131388903,0.04874896630644798,-0.28551557660102844
1782811022250161000,0.481160888671875,0.01411018893122673,0.045982476323843,-0.28762826323509216
1782811022260232000,0.49123193359375,0.03058844432234764,0.033470481634140015,-0.28335410356521606
1782811022270304000,0.501303955078125,0.047642529010772705,0.028952160850167274,-0.26817700266838074
1782811022280375000,0.511375,0.06727460771799088,0.035363707691431046,-0.2281537503004074
1782811022290446000,0.521446044921875,0.08253025263547897,0.042033594101667404,-0.19083167612552643
1782811022300517000,0.53151708984375,0.10403863340616226,0.0390331968665123,-0.14766886830329895
1782811022310589200,0.541589111328125,0.12313030660152435,0.030826665461063385,-0.11360970139503479
1782811022320660200,0.55166015625,0.1331430822610855,0.02230566367506981,-0.08593574911355972
1782811022330731000,0.56173095703125,0.14107798039913177,0.014361720532178879,-0.07072057574987411
1782811022340802800,0.571802734375,0.14401955902576447,0.013235215097665787,-0.05943400040268898
1782811022350873900,0.581873779296875,0.14702866971492767,0.009227690286934376,-0.046876661479473114
1782811022360945000,0.59194482421875,0.14760902523994446,-0.010538301430642605,-0.04253460466861725
1782811022371016000,0.602015869140625,0.15212175250053406,-0.030546629801392555,-0.033859092742204666
1782811022381088000,0.612087890625,0.156658336520195,-0.05058864504098892,-0.03860948607325554
1782811022391159000,0.622158935546875,0.16507978737354279,-0.08018621802330017,-0.05033272132277489
1782811022401230000,0.63222998046875,0.16105686128139496,-0.11767145246267319,-0.06797529757022858
1782811022411302100,0.64230224609375,0.14311780035495758,-0.13404163718223572,-0.08635537326335907
1782811022421373200,0.652373291015625,0.12402784824371338,-0.1308090090751648,-0.09007491171360016
1782811022431444000,0.66244384765625,0.10064316540956497,-0.12174387276172638,-0.0828137993812561
1782811022441515000,0.672514892578125,0.07492218911647797,-0.11629725247621536,-0.07117486000061035
1782811022451587000,0.682587158203125,0.05420013144612312,-0.11338428407907486,-0.05406804755330086
1782811022461658000,0.692658203125,0.04154883697628975,-0.08760910481214523,-0.024971896782517433
1782811022471729200,0.702729248046875,0.02308114990592003,-0.059771083295345306,0.00838446244597435
1782811022481801000,0.712801025390625,0.010541919618844986,-0.05463714525103569,0.02504080720245838
1782811022491872000,0.7228720703125,-0.0007898305775597692,-0.054130878299474716,0.028246453031897545
1782811022501943000,0.732943115234375,-0.0015702946111559868,-0.04539616033434868,0.03546292707324028
1782811022512013800,0.743013916015625,-0.002015308942645788,-0.03584713116288185,0.033753976225852966
1782811022522086000,0.7530859375,-0.002065110020339489,-0.052903078496456146,0.018502583727240562
1782811022532157000,0.763156982421875,0.0005439398810267448,-0.08164071291685104,-0.0046604592353105545
1782811022542228000,0.77322802734375,0.0032714433036744595,-0.09084749966859818,-0.008885804563760757
1782811022552300000,0.783300048828125,0.011873986572027206,-0.08382367342710495,0.005037999711930752
1782811022562371000,0.79337109375,0.020665982738137245,-0.07364105433225632,0.017740732058882713
1782811022572442000,0.803442138671875,0.03146190568804741,-0.07546025514602661,0.018710123375058174
1782811022582513200,0.81351318359375,0.04025140032172203,-0.08206303417682648,0.007041481323540211
1782811022592585000,0.8235849609375,0.038474805653095245,-0.09871871024370193,0.003768456866964698
1782811022602656000,0.833656005859375,0.034288957715034485,-0.0739419087767601,0.034195173531770706
1782811022612727000,0.84372705078125,0.03498510643839836,-0.030559545382857323,0.0808098092675209
1782811022622798000,0.853798095703125,0.04224232956767082,-0.008849475532770157,0.11403539031744003
1782811022632870000,0.863869873046875,0.05388753488659859,-0.006325331516563892,0.11177995800971985
1782811022642941000,0.87394091796875,0.07199148833751678,-0.017953822389245033,0.084967702627182
1782811022653012000,0.884011962890625,0.08495122939348221,-0.035596732050180435,0.048858169466257095
1782811022663084000,0.894083984375,0.08647824078798294,-0.046055857092142105,0.026300868019461632
1782811022673155000,0.904155029296875,0.08635786175727844,-0.03356270492076874,0.019213929772377014
1782811022683226000,0.91422607421875,0.09187230467796326,-0.020369691774249077,0.02122405916452408
1782811022693297000,0.924296875,0.09831076860427856,-0.013966389000415802,0.016136888414621353
1782811022703369200,0.934369140625,0.10762602835893631,-0.026465998962521553,-0.001572942826896906
1782811022713440000,0.94443994140625,0.10843056440353394,-0.037602540105581284,-0.013375007547438145
1782811022723511000,0.954510986328125,0.10404428839683533,-0.030345359817147255,-0.009745041839778423
1782811022733582800,0.964582763671875,0.09851689636707306,-0.024219824001193047,0.0030386634171009064
1782811022743654000,0.97465380859375,0.09613256901502609,-0.01936008781194687,0.012478504329919815
1782811022753725000,0.984724853515625,0.08856040239334106,-0.018436770886182785,0.018074339255690575
1782811022763796000,0.9947958984375,0.08159618079662323,-0.022901227697730064,0.021807633340358734
1782811022773868000,1.004867919921875,0.07623284310102463,-0.02954688109457493,0.03051377460360527
1782811022783939000,1.01493896484375,0.07042310386896133,-0.02752995304763317,0.044124212116003036
1782811022794009900,1.025009765625,0.061700183898210526,-0.01166949700564146,0.05642508342862129
1782811022804082000,1.03508203125,0.056768111884593964,-0.009116079658269882,0.06164645776152611
1782811022814153000,1.045153076171875,0.05447379872202873,-0.013110022060573101,0.05467509850859642
1782811022824223200,1.05522314453125,0.05645167827606201,-0.01893961802124977,0.03872470185160637
1782811022834294300,1.065294189453125,0.053216204047203064,-0.03561127185821533,0.015664657577872276
1782811022844366300,1.075366455078125,0.04634418338537216,-0.04894997924566269,0.00525276456028223
1782811022854437400,1.085437255859375,0.03747718781232834,-0.031481776386499405,0.025572681799530983
1782811022864508400,1.09550830078125,0.032179947942495346,-0.012099511921405792,0.047670844942331314
1782811022874580500,1.10558056640625,0.020488405600190163,-0.005412048660218716,0.05909287929534912
1782811022884651300,1.1156513671875,0.015222316607832909,-0.006537073291838169,0.05606226623058319
1782811022894722300,1.125722412109375,0.003703079652041197,-0.005918420851230621,0.06526321917772293
1782811022904793300,1.13579345703125,-0.007130226586014032,0.00420564878731966,0.08003938943147659
1782811022914865200,1.145865234375,-0.01350689958781004,0.01783783733844757,0.1040848046541214
1782811022924936200,1.155936279296875,-0.01845899038016796,0.035129208117723465,0.12337464839220047
1782811022935007200,1.16600732421875,-0.032143112272024155,0.04407263547182083,0.12561890482902527
1782811022945079300,1.176079345703125,-0.04107668623328209,0.03902381286025047,0.10820154845714569
1782811022955150300,1.186150390625,-0.05060707405209541,0.027780216187238693,0.08097578585147858
1782811022965221000,1.19622119140625,-0.05602234974503517,0.012141537852585316,0.059771325439214706
1782811022975292200,1.206292236328125,-0.057600539177656174,0.018594112247228622,0.052117664366960526
1782811022985364200,1.2163642578125,-0.059743743389844894,0.02551974728703499,0.041904278099536896
1782811022995435300,1.226435302734375,-0.06398536264896393,0.021819550544023514,0.012801785953342915
1782811023005506300,1.23650634765625,-0.06335744261741638,0.00806577317416668,-0.02000347711145878
1782811023015578400,1.246578369140625,-0.06417077034711838,-0.003219903912395239,-0.05228684842586517
1782811023025649400,1.2566494140625,-0.06637799739837646,-0.004113336559385061,-0.05821652710437775
1782811023035720400,1.266720458984375,-0.06747335195541382,-0.006830559577792883,-0.05623273923993111
1782811023045791500,1.27679150390625,-0.06405843794345856,0.0022817172575742006,-0.04519503936171532
1782811023055863300,1.28686328125,-0.06598629802465439,0.006712418049573898,-0.0325080044567585
1782811023065934000,1.29693408203125,-0.06781061738729477,0.0185606200248003,-0.009065454825758934
1782811023076005000,1.307005126953125,-0.072592593729496,0.026654232293367386,0.012225985527038574
1782811023086077200,1.3170771484375,-0.07581581175327301,0.034096863120794296,0.027757413685321808
1782811023096148200,1.327148193359375,-0.07696789503097534,0.041841067373752594,0.03216307982802391
1782811023106219300,1.33721923828125,-0.07734037190675735,0.03213994950056076,0.02571474201977253
1782811023116290300,1.347290283203125,-0.07771214842796326,0.027245327830314636,0.01398484967648983
1782811023126362400,1.3573623046875,-0.07394712418317795,0.03096504881978035,0.0063051944598555565
1782811023136433400,1.367433349609375,-0.06840961426496506,0.021852243691682816,-0.0043205516412854195
1782811023146504200,1.377504150390625,-0.06526698172092438,0.011634801514446735,-0.022323166951537132
1782811023156576300,1.387576171875,-0.06431383639574051,0.00023647223133593798,-0.03422243520617485
1782811023166647300,1.397647216796875,-0.05902804434299469,-0.0022312114015221596,-0.03189646825194359
1782811023176718300,1.40771826171875,-0.05666688457131386,-0.00005008280277252197,-0.018523139879107475
1782811023186789400,1.417789306640625,-0.05312088876962662,-0.0036221235059201717,-0.006190829910337925
1782811023196861200,1.427861083984375,-0.049130942672491074,0.004915970843285322,0.013864902779459953
1782811023206932200,1.43793212890625,-0.04843287542462349,0.010340974666178226,0.026363031938672066
1782811023217003300,1.448003173828125,-0.04651300236582756,0.008522569201886654,0.03577224910259247
1782811023227075300,1.458075439453125,-0.04134071245789528,0.018659912049770355,0.0399201437830925
1782811023237146400,1.468146484375,-0.03478587418794632,0.02138832025229931,0.033635884523391724
1782811023247217200,1.478217041015625,-0.03111012652516365,0.006164512597024441,0.016054939478635788
1782811023257288200,1.4882880859375,-0.025942794978618622,-0.011562286876142025,-0.0008516062516719103
1782811023267360300,1.4983603515625,-0.021844083443284035,-0.0026146199088543653,-0.0032479437068104744
1782811023277431300,1.508431396484375,-0.013330490328371525,-0.00030033313669264317,0.0016844968777149916
1782811023287502300,1.51850244140625,-0.009810482151806355,-0.0014201044104993343,0.0017282735789194703
1782811023297574400,1.528574462890625,-0.003479083999991417,-0.00017374497838318348,0.00036872984492219985
1782811023307645400,1.5386455078125,-0.0025703096762299538,0.0036670935805886984,0.0010520836804062128
1782811023317716500,1.548716552734375,0.0001759419683367014,0.005510267335921526,-0.0025836636777967215
1782811023327787300,1.558787353515625,0.008045903407037258,0.008157491683959961,-0.00481667323037982
1782811023337859300,1.568859375,0.011208406649529934,-0.0005249460227787495,-0.01524454727768898
1782811023347930000,1.57893017578125,0.015601929277181625,-0.010683595202863216,-0.023264681920409203
1782811023358001200,1.589001220703125,0.01924806460738182,-0.005179107189178467,-0.01589864492416382
1782811023368073200,1.5990732421875,0.027121754363179207,0.000552166486158967,-0.003980021458119154
1782811023378144300,1.609144287109375,0.03542868420481682,-0.006613867357373238,-0.0008055334910750389
1782811023388215300,1.61921533203125,0.044876836240291595,-0.01748047210276127,0.005018176976591349
1782811023398286300,1.629286376953125,0.04743080958724022,-0.021365491673350334,0.002572595840319991
1782811023408358400,1.6393583984375,0.05435001850128174,-0.023405760526657104,0.014265940524637699
1782811023418429400,1.649429443359375,0.0565846748650074,-0.018432840704917908,0.02111133188009262
1782811023428500200,1.659500244140625,0.05729382112622261,-0.0162326842546463,0.02307097055017948
1782811023438571300,1.6695712890625,0.0594661608338356,-0.022386714816093445,0.023280827328562737
1782811023448643300,1.679643310546875,0.06415130198001862,-0.024805739521980286,0.022924726828932762
1782811023458714400,1.68971435546875,0.07117112725973129,-0.022032324224710464,0.021939091384410858
1782811023468785400,1.699785400390625,0.073203444480896,-0.031772635877132416,0.007774726487696171
1782811023478857200,1.709857177734375,0.07465885579586029,-0.05443160980939865,-0.010439164005219936
1782811023488928300,1.71992822265625,0.07614032179117203,-0.04882899671792984,-0.0036453544162213802
1782811023498999300,1.729999267578125,0.07205343246459961,-0.026225149631500244,0.024816913530230522
1782811023509070000,1.740070068359375,0.06985557824373245,-0.015704985707998276,0.045488547533750534
1782811023519142400,1.750142333984375,0.06835649162530899,-0.022334657609462738,0.04402007907629013
1782811023529213200,1.760213134765625,0.06729937344789505,-0.030911771580576897,0.02779758907854557
1782811023539284200,1.7702841796875,0.06766822189092636,-0.04255644604563713,0.014569935388863087
1782811023549356300,1.780356201171875,0.06319431960582733,-0.046816322952508926,0.010389392264187336
1782811023559427300,1.79042724609375,0.05934925004839897,-0.027950486168265343,0.03239882364869118
1782811023569498400,1.800498291015625,0.051892559975385666,-0.012716385535895824,0.046153806149959564
1782811023579569400,1.8105693359375,0.04498032480478287,-0.00745637621730566,0.0454733669757843
1782811023589641200,1.82064111328125,0.040694333612918854,-0.0029545295983552933,0.041658904403448105
1782811023599712300,1.830712158203125,0.027820615097880363,-0.006739946082234383,0.02978653274476528
1782811023609783300,1.840783203125,0.019050298258662224,-0.013727343641221523,0.02608020417392254
1782811023619855000,1.850855224609375,0.01463158056139946,-0.005072868429124355,0.03240601345896721
1782811023629926100,1.860926025390625,0.007058561313897371,0.0008430357556790113,0.03577672317624092
1782811023639997200,1.8709970703125,0.003431336022913456,0.00018523505423218012,0.02434137649834156
1782811023650068200,1.881068115234375,-0.0021584772039204836,-0.004461321514099836,0.010554610751569271
1782811023660140300,1.891140380859375,-0.010094963945448399,-0.018500708043575287,-0.014527838677167892
1782811023670211300,1.90121142578125,-0.018921585753560066,-0.016305549070239067,-0.01843613013625145
1782811023680282400,1.911282470703125,-0.025002380833029747,-0.00258228019811213,-0.007563508581370115
1782811023690354400,1.9213544921875,-0.03134746477007866,0.004812225233763456,-0.007144047413021326
1782811023700425500,1.931425537109375,-0.03448653221130371,-0.004075275734066963,-0.016586018726229668
1782811023710496300,1.941496337890625,-0.03380003198981285,-0.020639967173337936,-0.030356859788298607
1782811023720567300,1.9515673828125,-0.028534960001707077,-0.015648405998945236,-0.02404703199863434
1782811023730639000,1.96163916015625,-0.026898184791207314,-0.005336480680853128,-0.00925490166991949
1782811023740710100,1.971710205078125,-0.02603292465209961,-0.0013169716112315655,0.007673482410609722
1782811023750781200,1.98178125,-0.016912123188376427,-0.006418369244784117,0.014429371803998947
1782811023760853200,1.991853271484375,-0.00986220221966505,-0.011346016079187393,0.009950200095772743
1782811023770924300,2.00192431640625,0.000983252190053463,-0.023434853181242943,0.008529681712388992
1782811023780995300,2.011995361328125,0.008120257407426834,-0.02553289197385311,0.011921484023332596
1782811023791066000,2.022066162109375,0.018514040857553482,-0.01638876274228096,0.024068031460046768
1782811023801138200,2.03213818359375,0.02818557620048523,-0.017733927816152573,0.030894245952367783
1782811023811209200,2.042209228515625,0.03439990431070328,-0.024848315864801407,0.035001080483198166
1782811023821280800,2.05228076171875,0.04278566315770149,-0.03046785295009613,0.03453822433948517
1782811023831352800,2.062352783203125,0.04656389728188515,-0.029659688472747803,0.03932230547070503
1782811023841424000,2.072423828125,0.0534934438765049,-0.02049441821873188,0.04007038474082947
1782811023851494700,2.08249462890625,0.05333348736166954,-0.023878471925854683,0.03079911135137081
1782811023861565700,2.092565673828125,0.05524324253201485,-0.033637624233961105,0.01960238441824913
1782811023871637500,2.102637451171875,0.0530291423201561,-0.03369244560599327,0.014781313948333263
1782811023881708500,2.11270849609375,0.0499715693295002,-0.01977289840579033,0.02748912014067173
1782811023891779600,2.122779541015625,0.04497542604804039,-0.00699434382840991,0.03456747159361839
1782811023901851600,2.1328515625,0.04371548444032669,-0.010333415120840073,0.03245158866047859
1782811023911922700,2.142922607421875,0.03864109516143799,-0.020418597385287285,0.021592969074845314
1782811023921993700,2.15299365234375,0.03230836242437363,-0.017645714804530144,0.01704215817153454
1782811023932064500,2.163064453125,0.022810788825154305,-0.013172521255910397,0.018854351714253426
1782811023942136800,2.17313671875,0.012090765871107578,-0.0003193069715052843,0.028058769181370735
1782811023952207600,2.18320751953125,-0.0022441232576966286,0.00574000459164381,0.028960352763533592
1782811023962278700,2.193278564453125,-0.008621594868600368,0.01088576391339302,0.02316078543663025
1782811023972350700,2.203350830078125,-0.011186114512383938,0.006992092356085777,0.013101073913276196
1782811023982421800,2.213421875,-0.01553079579025507,0.0018189020920544863,-0.0033833596389740705
1782811023992492800,2.223492919921875,-0.022208457812666893,-0.0005259464960545301,-0.012229504995048046
1782811024002563800,2.233563720703125,-0.025815708562731743,0.009354114532470703,-0.008817995898425579
1782811024012635600,2.2436357421875,-0.0278033334761858,0.012533310800790787,0.0009365282021462917
1782811024022706700,2.253706787109375,-0.02949364297091961,0.008573722094297409,-0.0009721593232825398
1782811024032777500,2.263777587890625,-0.027116455137729645,0.011651371605694294,0.0065545267425477505
1782811024042849500,2.273849609375,-0.025655444711446762,0.015009084716439247,0.006390209309756756
1782811024052920600,2.283920654296875,-0.022622790187597275,0.00303447712212801,0.008765309117734432
1782811024062991600,2.29399169921875,-0.019328193739056587,0.0016253986395895481,0.027041252702474594
1782811024073062700,2.304062744140625,-0.019399940967559814,0.02555818296968937,0.051532771438360214
1782811024083134700,2.314134765625,-0.014022751711308956,0.02184440568089485,0.06677990406751633
1782811024093205800,2.324205810546875,-0.0007489738054573536,0.01664734072983265,0.07198377698659897
1782811024103276800,2.33427685546875,0.012052575126290321,-0.0006759895477443933,0.07133130729198456
1782811024113347600,2.34434765625,0.01800606958568096,-0.01078092586249113,0.06905949860811234
1782811024123419600,2.354419677734375,0.02775164134800434,-0.014049422927200794,0.06414543837308884
1782811024133490700,2.36449072265625,0.02974933385848999,-0.01070525124669075,0.06164851039648056
1782811024143561700,2.374561767578125,0.03234724700450897,-0.0022156257182359695,0.056924592703580856
1782811024153633500,2.384633544921875,0.03566176816821098,0.0003731366014108062,0.05187810957431793
1782811024163704600,2.39470458984375,0.03628654405474663,-0.00043673068284988403,0.04517067223787308
1782811024173775600,2.404775634765625,0.03973719850182533,-0.0004016838502138853,0.04156222566962242
1782811024183846700,2.4148466796875,0.04399852082133293,-0.0022800115402787924,0.03386089950799942
1782811024193918700,2.424918701171875,0.04758601635694504,0.0065481653437018394,0.03426843509078026
1782811024203989800,2.43498974609375,0.04983106255531311,0.011978084221482277,0.03207052871584892
1782811024214060500,2.445060546875,0.051011476665735245,-0.005412112921476364,0.01682976633310318
1782811024224132600,2.455132568359375,0.05427944287657738,-0.013639948330819607,0.0010683803120628
1782811024234203600,2.46520361328125,0.05333700403571129,-0.010342380031943321,-0.003961747046560049
1782811024244274700,2.475274658203125,0.05276282876729965,-0.008917588740587234,-0.002200865186750889
1782811024254345700,2.485345703125,0.047717683017253876,-0.008124434389173985,-0.002821571659296751
1782811024264417500,2.49541748046875,0.039892785251140594,-0.0097550880163908,0.002764941193163395
1782811024274488600,2.505488525390625,0.029806746169924736,-0.0033340693917125463,0.010760059580206871
1782811024284559600,2.5155595703125,0.020182348787784576,-0.0009020708967000246,0.01778654381632805
1782811024294631700,2.525631591796875,0.01615198142826557,-0.007224329747259617,0.018321214243769646
1782811024304702700,2.53570263671875,0.012090126983821392,-0.013234284706413746,0.016496682539582253
1782811024314773500,2.5457734375,0.015038875862956047,-0.02266203798353672,0.015112624503672123
1782811024324844500,2.555844482421875,0.016727054491639137,-0.018764235079288483,0.012812985107302666
1782811024334916600,2.56591650390625,0.01664295792579651,-0.02874445915222168,0.012456968426704407
1782811024344987600,2.575987548828125,0.014112155884504318,-0.03115035966038704,0.006102133076637983
1782811024355058700,2.58605859375,0.016780272126197815,-0.032522398978471756,0.013773394748568535
1782811024365130800,2.596130859375,0.017940344288945198,-0.032815080136060715,0.022335192188620567
1782811024375201800,2.606201904296875,0.017904814332723618,-0.02915225178003311,0.0335904061794281
1782811024385272800,2.61627294921875,0.024254057556390762,-0.022739626467227936,0.03808875009417534
1782811024395343600,2.626343505859375,0.0251921359449625,-0.026280157268047333,0.031929876655340195
1782811024405415400,2.63641552734375,0.02897515520453453,-0.030020834878087044,0.02515586093068123
1782811024415486500,2.646486572265625,0.028006084263324738,-0.01947835460305214,0.025408923625946045
1782811024425557500,2.6565576171875,0.023845959454774857,-0.003979555331170559,0.03252915292978287
1782811024435629600,2.666629638671875,0.022548627108335495,-0.008100509643554688,0.028357602655887604
1782811024445700600,2.67670068359375,0.02095685712993145,-0.015210883691906929,0.023026220500469208
1782811024455771600,2.686771728515625,0.025357838720083237,-0.0051913391798734665,0.023527121171355247
1782811024465842700,2.6968427734375,0.026054253801703453,0.0005040972027927637,0.02324029989540577
1782811024475914800,2.706914794921875,0.022771107032895088,0.0021254748571664095,0.02267039567232132
1782811024485985800,2.71698583984375,0.017630673944950104,-0.005651221610605717,0.017411451786756516
1782811024496056600,2.727056640625,0.017855284735560417,-0.010186339728534222,0.009923149831593037
1782811024506128600,2.737128662109375,0.015972429886460304,-0.009468085132539272,0.010648861527442932
1782811024516199700,2.74719970703125,0.015097260475158691,-0.00091165816411376,0.011582780629396439
1782811024526270700,2.757270751953125,0.014188057743012905,-0.00007995287887752056,0.0017559828702360392
1782811024536341800,2.767341796875,0.01121740136295557,0.00210058456286788,-0.008821710012853146
1782811024546413600,2.77741357421875,0.01250583864748478,0.0024558501318097115,-0.02259025163948536
1782811024556484600,2.787484619140625,0.018672235310077667,-0.0015615117736160755,-0.027781987562775612
1782811024566555600,2.7975556640625,0.023093082010746002,-0.0025852308608591557,-0.02645786479115486
1782811024576627700,2.807627685546875,0.026350928470492363,-0.007133270613849163,-0.016632268205285072
1782811024586698500,2.817698486328125,0.03265462815761566,-0.01894225925207138,-0.009933353401720524
1782811024596769500,2.82776953125,0.03496774286031723,-0.029557809233665466,0.008159931749105453
1782811024606840600,2.837840576171875,0.03582288324832916,-0.01694028452038765,0.04135676845908165
1782811024616912600,2.84791259765625,0.03293963894248009,-0.00038978317752480507,0.07390753924846649
1782811024626983700,2.857983642578125,0.02573099546134472,0.0015141104813665152,0.09393371641635895
1782811024637054700,2.8680546875,0.021310098469257355,0.0030216285958886147,0.09951457381248474
1782811024647126800,2.878126708984375,0.018043730407953262,-0.0122896833345294,0.09031042456626892
1782811024657197800,2.88819775390625,0.012070950120687485,-0.01886111870408058,0.07370977103710175
1782811024667268900,2.898268798828125,0.007840786129236221,-0.02167820930480957,0.06463025510311127
1782811024677339600,2.908339599609375,0.007873810827732086,-0.027634263038635254,0.05361821874976158
1782811024687411500,2.918411376953125,0.004925425164401531,-0.033599209040403366,0.04258154705166817
1782811024697482500,2.928482421875,0.0022548618726432323,-0.031881049275398254,0.03395627439022064
1782811024707553500,2.938553466796875,0.0026894898619502783,-0.030443212017416954,0.028802260756492615
1782811024717625600,2.94862548828125,0.00039149943040683866,-0.023115433752536774,0.02489839680492878
1782811024727696600,2.958696533203125,-0.0008135809330269694,-0.019091930240392685,0.021621109917759895
1782811024737767700,2.968767578125,-0.006521269213408232,-0.013649066910147667,0.013446942903101444
1782811024747838700,2.978838623046875,-0.012078488245606422,-0.016116753220558167,0.00809318944811821
1782811024757910800,2.988910888671875,-0.009388000704348087,-0.013689685612916946,0.0033214911818504333
1782811024767981800,2.99898193359375,-0.016275733709335327,-0.012033998034894466,-0.00018056572298519313
1782811024778052600,3.009052490234375,-0.019266311079263687,-0.0032493211328983307,0.006086024455726147
1782811024788123600,3.01912353515625,-0.02344454452395439,0.008588962256908417,0.01491733267903328
1782811024798195700,3.02919580078125,-0.030993372201919556,0.018562570214271545,0.015977416187524796
1782811024808266800,3.039266845703125,-0.03383789584040642,0.025005556643009186,0.01447139773517847
1782811024818337800,3.049337890625,-0.034085143357515335,0.018718918785452843,0.0000014042598195374012
1782811024828409900,3.059409912109375,-0.03412429243326187,0.012418679893016815,-0.01726812869310379
1782811024838481000,3.06948095703125,-0.029195206239819527,0.004799620248377323,-0.03178770840167999
1782811024848552000,3.079552001953125,-0.02578422985970974,-0.004324901849031448,-0.04093806445598602
1782811024858623000,3.089623046875,-0.01658082753419876,-0.013933226466178894,-0.04130285605788231
1782811024868695000,3.099695068359375,-0.01320500485599041,-0.008026868104934692,-0.03355385363101959
1782811024878766000,3.10976611328125,-0.015360514633357525,-0.00094638392329216,-0.019736921414732933
1782811024888837000,3.119837158203125,-0.015117102302610874,0.004703246057033539,-0.011172994039952755
1782811024898909200,3.1299091796875,-0.01475048903375864,0.007442167028784752,-0.0019676233641803265
1782811024908980200,3.139980224609375,-0.01367057766765356,0.008979609236121178,-0.0007955661276355386
1782811024919051000,3.150051025390625,-0.016374481841921806,0.006432936526834965,0.0000067052897065877914
1782811024929122000,3.1601220703125,-0.013447669334709644,0.01476410310715437,0.007636661641299725
1782811024939193900,3.17019384765625,-0.011259881779551506,0.018253754824399948,0.01090368814766407
1782811024949265000,3.180264892578125,-0.01161860954016447,0.023595256730914116,0.012239529751241207
1782811024959336000,3.1903359375,-0.004025727044790983,0.014569276012480259,0.006600779946893454
1782811024969408000,3.200407958984375,-0.002982034347951412,0.007643725723028183,0.0024055023677647114
1782811024979479000,3.21047900390625,-0.0009652766166254878,-0.00039906264282763004,-0.0024068811908364296
1782811024989550000,3.220550048828125,-0.0025988598354160786,0.0014030985767021775,-0.003762163920328021
1782811024999620900,3.230620849609375,-0.006273434963077307,0.0058868383057415485,-0.0018765944987535477
1782811025009693000,3.24069287109375,-0.012899380177259445,0.011021945625543594,-0.0008528753533028066
1782811025019764000,3.250763916015625,-0.019395949319005013,0.010514304973185062,-0.0008997984696179628
1782811025029835000,3.2608349609375,-0.023666061460971832,0.01146478671580553,-0.003749913303181529
1782811025039907000,3.270906982421875,-0.025300661101937294,0.009319446980953217,-0.010255957022309303
1782811025049978000,3.28097802734375,-0.02887755259871483,0.008960720151662827,-0.01812320202589035
1782811025060049200,3.291049072265625,-0.029234090819954872,0.007857886143028736,-0.02150190994143486
1782811025070120200,3.3011201171875,-0.02819785475730896,0.01238952111452818,-0.025934474542737007
1782811025080192000,3.31119189453125,-0.024708159267902374,0.009555197320878506,-0.02651873789727688
1782811025090263000,3.321262939453125,-0.018999140709638596,0.011394110508263111,-0.028301192447543144
1782811025100333800,3.331333740234375,-0.016589246690273285,0.013500937260687351,-0.029072975739836693
1782811025110406000,3.341406005859375,-0.01599791832268238,0.00796873215585947,-0.02809242717921734
1782811025120477000,3.351476806640625,-0.018058456480503082,-0.0015591979026794434,-0.022996922954916954
1782811025130548000,3.3615478515625,-0.01967552863061428,-0.0009594541043043137,-0.006210751831531525
1782811025140619000,3.371618896484375,-0.015305171720683575,0.006906115449965,0.023113012313842773
1782811025150691000,3.381691162109375,-0.011490194126963615,0.007967650890350342,0.04716109111905098
1782811025160762000,3.39176220703125,-0.010343916714191437,0.0004707888001576066,0.06273464858531952
1782811025170833200,3.401833251953125,-0.011172959581017494,0.0033086533658206463,0.0700511559844017
1782811025180905200,3.4119052734375,-0.012735649943351746,0.007241812534630299,0.0685005784034729
1782811025190976300,3.421976318359375,-0.01606033928692341,0.003983435221016407,0.058551277965307236
1782811025201047000,3.432047119140625,-0.019217681139707565,-0.005339083261787891,0.04271703213453293
1782811025211118000,3.4421181640625,-0.02015138417482376,-0.018990445882081985,0.0303847324103117
1782811025221190000,3.45218994140625,-0.018555667251348495,-0.023687563836574554,0.022805316373705864
1782811025231261000,3.462260986328125,-0.017045121639966965,-0.021407365798950195,0.021902769804000854
1782811025241332000,3.47233203125,-0.016937902197241783,-0.016497965902090073,0.025354113429784775
1782811025251404000,3.482404052734375,-0.022561166435480118,-0.010647800751030445,0.023538636043667793
1782811025261475000,3.49247509765625,-0.02655803970992565,-0.0028509721159934998,0.0187554731965065
1782811025271546000,3.502546142578125,-0.03190726414322853,-0.004845679737627506,0.015013198368251324
1782811025281617000,3.512616943359375,-0.037673383951187134,-0.006692932453006506,0.009064393118023872
1782811025291689000,3.52268896484375,-0.043875619769096375,-0.007487619761377573,0.002049892907962203
1782811025301760000,3.532760009765625,-0.05116942524909973,-0.012335801497101784,-0.002342026447877288
1782811025311831000,3.5428310546875,-0.05549067258834839,-0.015774741768836975,0.0077399020083248615
1782811025321902000,3.552902099609375,-0.06600786745548248,-0.010579912923276424,0.024103468284010887
1782811025331974100,3.56297412109375,-0.07282263040542603,-0.006085561588406563,0.03984008729457855
1782811025342045200,3.573045166015625,-0.08261774480342865,-0.008133106864988804,0.053448714315891266
1782811025352116200,3.5831162109375,-0.08848974853754044,-0.014238935895264149,0.052656158804893494
1782811025362188000,3.59318798828125,-0.09989068657159805,-0.019777145236730576,0.052504148334264755
1782811025372259000,3.603259033203125,-0.10459702461957932,-0.033373113721609116,0.048352546989917755
1782811025382329900,3.613329833984375,-0.11064724624156952,-0.04279350861907005,0.04706364497542381
1782811025392401000,3.62340087890625,-0.11427127569913864,-0.048940349370241165,0.048214662820100784
1782811025402473000,3.633472900390625,-0.12252723425626755,-0.0550692118704319,0.04955168440937996
1782811025412544000,3.6435439453125,-0.1290128380060196,-0.04593510180711746,0.054409824311733246
1782811025422615000,3.653614990234375,-0.12863343954086304,-0.04099784791469574,0.0605899803340435
1782811025432687000,3.66368701171875,-0.12411299347877502,-0.04141329973936081,0.06034230813384056
1782811025442758100,3.673758056640625,-0.11180907487869263,-0.049760784953832626,0.05289047583937645
1782811025452829200,3.6838291015625,-0.09427561610937119,-0.06774510443210602,0.04651513323187828
1782811025462900000,3.69389990234375,-0.0771518126130104,-0.08121446520090103,0.03675979748368263
1782811025472972000,3.703971923828125,-0.06282080709934235,-0.08456365764141083,0.035882819443941116
1782811025483043000,3.71404296875,-0.05011817812919617,-0.08799175918102264,0.03732162341475487
1782811025493114000,3.724114013671875,-0.04325254634022713,-0.08215890824794769,0.03733760118484497
1782811025503186000,3.73418603515625,-0.04400339722633362,-0.08730027824640274,0.03542560711503029
1782811025513257000,3.744257080078125,-0.04659811407327652,-0.10720713436603546,0.0260360985994339
1782811025523328000,3.754327880859375,-0.04135546833276749,-0.12262379378080368,0.025671333074569702
1782811025533399000,3.76439892578125,-0.03674580529332161,-0.12241233885288239,0.0381770059466362
1782811025543471000,3.77447119140625,-0.0274462029337883,-0.12457665801048279,0.05681416392326355
1782811025553542100,3.784542236328125,-0.027292272076010704,-0.123008593916893,0.07290151715278625
1782811025563613000,3.794613037109375,-0.026829101145267487,-0.10848062485456467,0.0867212638258934
1782811025573685000,3.80468505859375,-0.02997056394815445,-0.09083079546689987,0.08345650136470795
1782811025583756000,3.814756103515625,-0.038806237280368805,-0.0698017105460167,0.0720382109284401
1782811025593827000,3.8248271484375,-0.03753218054771423,-0.04553445801138878,0.0598667673766613
1782811025603898000,3.834898193359375,-0.03531099483370781,-0.03402061387896538,0.0422603040933609
1782811025613970000,3.844969970703125,-0.01912163943052292,-0.035017699003219604,0.009873868897557259
1782811025624041000,3.855041015625,-0.00390918692573905,-0.04348548501729965,-0.018942637369036674
1782811025634112000,3.865112060546875,0.0013545508263632655,-0.05189841240644455,-0.04102290794253349
1782811025644184000,3.87518408203125,0.0013917303876951337,-0.046073149889707565,-0.04898906499147415
1782811025654254800,3.8852548828125,-0.006845160387456417,-0.034323014318943024,-0.03849541023373604
1782811025664326000,3.895325927734375,-0.011976542882621288,-0.030512776225805283,-0.04117853567004204
1782811025674397000,3.90539697265625,-0.01641523279249668,-0.037021275609731674,-0.037375807762145996
1782811025684469000,3.915468994140625,-0.023935889825224876,-0.039174940437078476,-0.034198299050331116
1782811025694540000,3.9255400390625,-0.03473500534892082,-0.02199701778590679,-0.02256002277135849
1782811025704611000,3.935611083984375,-0.04278334975242615,-0.013373121619224548,-0.008946728892624378
1782811025714683100,3.94568310546875,-0.05180826783180237,-0.027663910761475563,-0.012458905577659607
1782811025724754200,3.955754150390625,-0.062410272657871246,-0.05116197094321251,-0.024665040895342827
1782811025734825200,3.9658251953125,-0.07165570557117462,-0.06457924097776413,-0.03189179301261902
1782811025744896000,3.97589599609375,-0.08352124691009521,-0.06862347573041916,-0.03285224363207817
1782811025754967800,3.9859677734375,-0.09572944045066833,-0.06321299076080322,-0.02260519750416279
1782811025765038800,3.996038818359375,-0.10656493902206421,-0.042708005756139755,-0.0034762697760015726
1782811025775110000,4.00610986328125,-0.11683542281389236,-0.021049048751592636,0.018551800400018692
1782811025785182000,4.016181884765625,-0.12314289808273315,-0.020955832675099373,0.02659621089696884
1782811025795253000,4.0262529296875,-0.11541707068681717,-0.035774990916252136,0.0128457797691226
1782811025805324000,4.036323974609375,-0.11173983663320541,-0.035069506615400314,-0.0035646609030663967
1782811025815395000,4.04639501953125,-0.10759595781564713,-0.03750550001859665,-0.027567464858293533
1782811025825466600,4.056466552734375,-0.10202925652265549,-0.04534119740128517,-0.047357525676488876
1782811025835537700,4.06653759765625,-0.0935518816113472,-0.04250705987215042,-0.0647980347275734
1782811025845608700,4.076608642578125,-0.08914269506931305,-0.05212422460317612,-0.08423799276351929
1782811025855679700,4.0866796875,-0.07554512470960617,-0.07559599727392197,-0.10513954609632492
1782811025865751800,4.096751708984375,-0.06259369850158691,-0.09426309168338776,-0.11343229562044144
1782811025875822600,4.106822509765625,-0.05689240247011185,-0.09398026019334793,-0.11050441116094589
1782811025885893600,4.1168935546875,-0.0489366352558136,-0.06349614262580872,-0.09005428850650787
1782811025895965700,4.126965576171875,-0.04778854921460152,-0.027741342782974243,-0.0551903136074543
1782811025906036700,4.13703662109375,-0.04735439643263817,-0.00012655812315642834,-0.030148953199386597
1782811025916107800,4.147107666015625,-0.04016386345028877,-0.0005438756197690964,-0.017555929720401764
1782811025926178800,4.1571787109375,-0.032500509172677994,-0.008079204708337784,-0.019285816699266434
1782811025936250600,4.167250732421875,-0.021971436217427254,-0.020885813981294632,-0.015432755462825298
1782811025946321700,4.17732177734375,-0.015273858793079853,-0.0238046832382679,-0.005880916491150856
1782811025956392700,4.187392822265625,-0.003906422294676304,-0.008980996906757355,0.011781434528529644
1782811025966464800,4.19746484375,0.004709439352154732,0.011860203929245472,0.025137050077319145
1782811025976535600,4.20753564453125,0.015190042555332184,0.01831277832388878,0.01650574617087841
1782811025986606600,4.217606689453125,0.022173067554831505,0.009423580020666122,-0.00413860660046339
1782811025996677600,4.227677734375,0.02875853329896927,-0.004877062048763037,-0.030606433749198914
1782811026006749700,4.237749755859375,0.033097777515649796,-0.013091295026242733,-0.04383006691932678
1782811026016820700,4.24782080078125,0.040442511439323425,-0.01108806487172842,-0.048854388296604156
1782811026026891800,4.257891845703125,0.047250401228666306,-0.008826512843370438,-0.05113918334245682
1782811026036963600,4.267963623046875,0.05437302589416504,-0.007640341762453318,-0.04969308525323868
1782811026047034600,4.27803466796875,0.05898551642894745,-0.008447157219052315,-0.05490260571241379
1782811026057105700,4.288105712890625,0.06266067922115326,-0.00026432774029672146,-0.05153157562017441
1782811026067176700,4.2981767578125,0.05702611431479454,0.007693015038967133,-0.053245287388563156
1782811026077248500,4.30824853515625,0.04993598163127899,0.018009569495916367,-0.05246817693114281
1782811026087319600,4.318319580078125,0.0469205416738987,0.018762320280075073,-0.05562277510762215
1782811026097390600,4.328390625,0.04810165613889694,0.012005613185465336,-0.05791309475898743
1782811026107462700,4.338462646484375,0.04798729717731476,0.014832476153969765,-0.060090333223342896
1782811026117533700,4.34853369140625,0.048501286655664444,0.02425607293844223,-0.05470755323767662
1782811026127604700,4.358604736328125,0.042681485414505005,0.038638949394226074,-0.050422001630067825
1782811026137675800,4.36867578125,0.035688821226358414,0.0461951345205307,-0.05311578884720802
1782811026147747800,4.378747802734375,0.030615713447332382,0.05782591551542282,-0.059623539447784424
1782811026157818600,4.388818603515625,0.032854899764060974,0.059283461421728134,-0.07147407531738281
1782811026167889700,4.3988896484375,0.0375676304101944,0.03714257851243019,-0.09178187698125839
1782811026177961500,4.40896142578125,0.04701812192797661,0.009533589705824852,-0.12005665898323059
1782811026188032500,4.419032470703125,0.05181824788451195,-0.008423772640526295,-0.13856568932533264
1782811026198103600,4.429103515625,0.05605586990714073,-0.021340101957321167,-0.14264965057373047
1782811026208174600,4.439174560546875,0.05717574059963226,-0.02055220492184162,-0.13376456499099731
1782811026218246700,4.44924658203125,0.05334131792187691,-0.010922480374574661,-0.11627904325723648
1782811026228317700,4.459317626953125,0.05041098967194557,-0.007639910560101271,-0.09970757365226746
1782811026238388500,4.469388427734375,0.04371660202741623,-0.009201055392622948,-0.08476031571626663
1782811026248460500,4.47946044921875,0.037437234073877335,-0.01148440781980753,-0.06729399412870407
1782811026258531600,4.489531494140625,0.03390828147530556,-0.010757365263998508,-0.04293938726186752
1782811026268602600,4.4996025390625,0.031486883759498596,0.006645653396844864,-0.007426588796079159
1782811026278673700,4.509673583984375,0.023655589669942856,0.017135845497250557,0.01697409152984619
1782811026288745700,4.519745849609375,0.020101234316825867,0.02090577594935894,0.02905394323170185
1782811026298816800,4.529816650390625,0.01802183873951435,0.016846055164933205,0.02670796401798725
1782811026308887800,4.5398876953125,0.01973792538046837,0.0035416586324572563,0.00999284815043211
1782811026318959600,4.549959716796875,0.024064498022198677,-0.005995387211441994,-0.0028334681410342455
1782811026329030700,4.56003076171875,0.02479313313961029,-0.01736542582511902,-0.008207187056541443
1782811026339101400,4.570101318359375,0.029075229540467262,-0.021309833973646164,-0.007066555321216583
1782811026349172500,4.58017236328125,0.02829364873468876,-0.01761402189731598,-0.007452532183378935
1782811026359244500,4.59024462890625,0.026941295713186264,-0.019924314692616463,-0.008358540013432503
1782811026369315600,4.600315673828125,0.01287304237484932,-0.026654262095689774,-0.008716846816241741
1782811026379386600,4.61038671875,0.003269684035331011,-0.028063608333468437,0.004531314130872488
1782811026389458700,4.620458740234375,-0.0035749576054513454,-0.012111896649003029,0.0282906424254179
1782811026399529700,4.63052978515625,-0.009014197625219822,0.011033102869987488,0.04160032421350479
1782811026409600800,4.640600830078125,-0.0176162701100111,0.020635465160012245,0.04251215606927872
1782811026419671600,4.650671630859375,-0.02410053461790085,0.014382628723978996,0.02700882963836193
1782811026429743900,4.660743896484375,-0.03157229349017143,0.0041428194381296635,0.013250795193016529
1782811026439814700,4.670814697265625,-0.029233770444989204,0.005930067040026188,0.0054858168587088585
1782811026449885700,4.6808857421875,-0.02235301584005356,0.021939778700470924,-0.003976840525865555
1782811026459957500,4.69095751953125,-0.01857239380478859,0.0169663242995739,-0.022931089624762535
1782811026470028500,4.701028564453125,-0.0046832142397761345,0.0010803664335981011,-0.04912487044930458
1782811026480099600,4.711099609375,0.000030580791644752026,-0.012973933480679989,-0.06080363318324089
1782811026490170600,4.721170654296875,0.000806896947324276,-0.004912875592708588,-0.0594659298658371
1782811026500242700,4.73124267578125,-0.0005824741674587131,-0.0030183023773133755,-0.04931875690817833
1782811026510313700,4.741313720703125,-0.0006044704932719469,-0.002154821529984474,-0.044583287090063095
1782811026520384500,4.751384521484375,0.003800397738814354,-0.009703551419079304,-0.043442122638225555
1782811026530456600,4.76145654296875,0.002968320157378912,-0.015616280026733875,-0.031514331698417664
1782811026540527600,4.771527587890625,0.0013640320394188166,-0.006012922152876854,-0.023621253669261932
1782811026550598700,4.7815986328125,-0.0031633928883820772,-0.002972216345369816,-0.013545512221753597
1782811026560669700,4.791669677734375,-0.007629513740539551,-0.005684645846486092,-0.005189845338463783
1782811026570741800,4.80174169921875,-0.004745684564113617,0.009991963393986225,0.0012945845955982804
1782811026580812800,4.811812744140625,0.0012573469430208206,0.015749983489513397,0.0012847308535128832
1782811026590883800,4.8218837890625,0.0034863590262830257,0.014095584861934185,-0.010431365109980106
1782811026600954600,4.83195458984375,0.006665906868875027,0.0012482297606766224,-0.0325758159160614
1782811026611026700,4.842026611328125,0.00562620721757412,-0.012061823159456253,-0.05173046141862869
1782811026621097500,4.852097412109375,0.01074613444507122,-0.015728464350104332,-0.0660228505730629
1782811026631168500,4.86216845703125,0.016379037871956825,-0.017160773277282715,-0.07936590164899826
1782811026641240600,4.872240478515625,0.02056313119828701,-0.017625227570533752,-0.09054291993379593
1782811026651311600,4.8823115234375,0.02783185802400112,-0.01292845793068409,-0.09552805870771408
1782811026661382700,4.892382568359375,0.026363655924797058,-0.01287253201007843,-0.09559383988380432
1782811026671453700,4.90245361328125,0.02058001607656479,-0.016377825289964676,-0.09083109349012375
1782811026681525800,4.91252587890625,0.01703614741563797,-0.002450824249535799,-0.0683702602982521
1782811026691596800,4.9225966796875,0.01750081405043602,0.006323718000203371,-0.03652183711528778
1782811026701667600,4.93266748046875,0.01569625549018383,0.020412907004356384,-0.007630534470081329
1782811026711739600,4.94273974609375,0.010690686292946339,0.02781231515109539,0.0047569964081048965
1782811026721810700,4.952810791015625,0.00769356545060873,0.02595236338675022,0.00776929734274745
1782811026731881700,4.9628818359375,-0.0011479695094749331,0.01570400781929493,0.002675495343282819
1782811026741952800,4.972952880859375,-0.007819720543920994,-0.012279690243303776,-0.009394483640789986
1782811026752024600,4.983024658203125,-0.007226470857858658,-0.01680656149983406,-0.011719143018126488
1782811026762095600,4.993095703125,-0.005304201506078243,-0.0124719999730587,-0.0032566816080361605
1782811026772166700,5.003166748046875,-0.008911458775401115,-0.011023294180631638,0.006007006391882896
1782811026782238700,5.01323876953125,-0.011631079018115997,-0.010098644532263279,0.017064183950424194
1782811026792309800,5.023309814453125,-0.017736157402396202,-0.008521933108568192,0.01757357455790043
1782811026802380500,5.033380615234375,-0.023660358041524887,-0.013020278885960579,0.01572454161942005
1782811026812451600,5.04345166015625,-0.026711227372288704,-0.020153410732746124,0.007648845203220844
1782811026822524200,5.053524169921875,-0.02915068343281746,-0.022852789610624313,-0.0002543516457080841
1782811026832595200,5.06359521484375,-0.0338367335498333,-0.021091002970933914,-0.0013981219381093979
1782811026842666200,5.073666259765625,-0.04397059231996536,-0.006883037276566029,0.003075722372159362
1782811026852738000,5.083738037109375,-0.04942793771624565,0.006612998433411121,0.007277652621269226
1782811026862809000,5.09380908203125,-0.05134408175945282,0.01944783702492714,0.0026994121726602316
1782811026872880000,5.103880126953125,-0.04855825752019882,0.026390517130494118,-0.009613681584596634
1782811026882951200,5.113951171875,-0.05114924907684326,0.012655530124902725,-0.031950943171978
1782811026893023200,5.124023193359375,-0.045080482959747314,-0.0062655918300151825,-0.057746388018131256
1782811026903094000,5.134093994140625,-0.04089612513780594,-0.01461513340473175,-0.07022703438997269
1782811026913165000,5.1441650390625,-0.04035870358347893,-0.007022140547633171,-0.0626913383603096
1782811026923236000,5.154236083984375,-0.036372218281030655,0.007639093790203333,-0.04984930902719498
1782811026933308200,5.16430810546875,-0.033417489379644394,0.018773140385746956,-0.038433197885751724
1782811026943379200,5.174379150390625,-0.0319354422390461,0.020610986277461052,-0.02848602458834648
1782811026953450200,5.1844501953125,-0.03842040151357651,0.01881888322532177,-0.019113710150122643
1782811026963522300,5.194522216796875,-0.03900150582194328,0.01562894880771637,0.0052736555226147175
1782811026973593300,5.20459326171875,-0.038225188851356506,0.00481991283595562,0.012069504708051682
1782811026983664000,5.2146640625,-0.03771572560071945,-0.0057054320350289345,0.01952209509909153
1782811026993736200,5.224736083984375,-0.04738587886095047,-0.01613566093146801,0.034011341631412506
1782811027003807000,5.234806884765625,-0.05428426340222359,-0.012177137657999992,0.050976209342479706
1782811027013878000,5.2448779296875,-0.05740932375192642,0.001538324635475874,0.07205049693584442
1782811027023949000,5.254948974609375,-0.05877232924103737,0.003376171924173832,0.0800732672214508
1782811027034021000,5.265021240234375,-0.060796331614255905,-0.0006561200134456158,0.07680343836545944
1782811027044092200,5.275092041015625,-0.0598093643784523,0.0021292800083756447,0.05801483988761902
1782811027054163200,5.2851630859375,-0.05962049216032028,0.0028721822891384363,0.03271898254752159
1782811027064234200,5.295234130859375,-0.058800771832466125,-0.006701881065964699,0.013858477585017681
1782811027074303200,5.30530322265625,-0.04993463307619095,-0.004576127976179123,-0.00171466707251966
1782811027084374300,5.315374267578125,-0.034209731966257095,0.007208359427750111,-0.010033583268523216
1782811027094446000,5.325446044921875,-0.02263515442609787,-0.008030187338590622,-0.02826737053692341
1782811027104517000,5.33551708984375,-0.02160637453198433,-0.02780815213918686,-0.0429440513253212
1782811027114588200,5.345588134765625,-0.01728310063481331,-0.02935894951224327,-0.045589882880449295
1782811027124659000,5.355658935546875,-0.013404740020632744,-0.02543824166059494,-0.032588597387075424
1782811027134731000,5.36573095703125,-0.014838584698736668,-0.02631111815571785,-0.009190203621983528
1782811027144802000,5.375802001953125,-0.017878318205475807,-0.023023445159196854,0.01660970039665699
1782811027154873000,5.385873046875,-0.02065834403038025,-0.01966637745499611,0.041662927716970444
1782811027164945200,5.395945068359375,-0.02398170344531536,-0.02052231691777706,0.059053100645542145
1782811027175016200,5.40601611328125,-0.025293463841080666,-0.0014664155896753073,0.0786677822470665
1782811027185087200,5.416087158203125,-0.027823733165860176,0.016483822837471962,0.09061738103628159
1782811027195158300,5.426158203125,-0.03478294610977173,0.011477741412818432,0.08284563571214676
1782811027205230300,5.436230224609375,-0.03502050042152405,-0.015083296224474907,0.06139281019568443
1782811027215301000,5.446301025390625,-0.03519269824028015,-0.024763531982898712,0.05157117173075676
1782811027225372200,5.4563720703125,-0.053387682884931564,-0.009314002469182014,0.06620656698942184
1782811027235444000,5.46644384765625,-0.06216360256075859,-0.003938998561352491,0.07759759575128555
1782811027245515000,5.476514892578125,-0.052561040967702866,0.005264086648821831,0.07353494316339493
1782811027255586000,5.4865859375,-0.04343321919441223,0.012899349443614483,0.06338907778263092
1782811027265657000,5.496656982421875,-0.0415562205016613,0.004594014957547188,0.04338633641600609
1782811027275729200,5.506729248046875,-0.03368477150797844,-0.003684994066134095,0.021882589906454086
1782811027285800200,5.51680029296875,-0.021817725151777267,-0.013705669902265072,-0.003164706053212285
1782811027295871200,5.526871337890625,-0.017496002838015556,-0.024209050461649895,-0.024297604337334633
1782811027305943300,5.536943359375,-0.01319020427763462,-0.019475547596812248,-0.03939133509993553
1782811027316014000,5.54701416015625,-0.015312313102185726,-0.006571246311068535,-0.046222057193517685
1782811027326085000,5.557085205078125,-0.023507922887802124,0.006075839512050152,-0.03512999042868614
1782811027336156200,5.56715625,-0.024175789207220078,0.02557235024869442,-0.020814916118979454
1782811027346228200,5.577228271484375,-0.0159535463899374,0.022695336490869522,-0.02687893435359001
1782811027356299300,5.58729931640625,-0.008116981945931911,0.008875992149114609,-0.03986150398850441
1782811027366370300,5.597370361328125,0.002876014681532979,0.0016926471143960953,-0.05482793599367142
1782811027376442000,5.607442138671875,0.010278744623064995,-0.0031212633475661278,-0.058589961379766464
1782811027386513200,5.61751318359375,0.01874386891722679,-0.0017523984424769878,-0.05194377526640892
1782811027396584000,5.627583984375,0.021288258954882622,0.003541853278875351,-0.0432075597345829
1782811027406655000,5.637655029296875,0.020341506227850914,0.013128699734807014,-0.03833983466029167
1782811027416727000,5.64772705078125,0.01675289310514927,0.009148553013801575,-0.03109615296125412
1782811027426798000,5.657798095703125,0.019249340519309044,0.005884316749870777,-0.0311595369130373
1782811027436869000,5.667869140625,0.03154419735074043,0.019512860104441643,-0.03179779276251793
1782811027446941200,5.677941162109375,0.04585229605436325,0.02208787016570568,-0.03926556184887886
1782811027457015000,5.68801513671875,0.05030589923262596,0.05746716633439064,-0.02740517444908619
1782811027467086000,5.698086181640625,0.0168419498950243,0.05369693040847778,-0.036956336349248886
1782811027477157000,5.7081572265625,0.02532145567238331,-0.050269950181245804,-0.08782590925693512
1782811027487228200,5.718228271484375,0.015320751816034317,-0.08989299088716507,-0.063970647752285
1782811027497300200,5.72830029296875,-0.007648637983947992,-0.06252866238355637,0.015649987384676933
1782811027507371300,5.738371337890625,-0.02831077203154564,-0.012359234504401684,0.10738389939069748
1782811027517442300,5.7484423828125,-0.047234080731868744,0.0015971600078046322,0.16429145634174347
1782811027527514000,5.75851416015625,-0.05694396793842316,-0.0015640121418982744,0.1849445402622223
1782811027537585200,5.768585205078125,-0.07390393316745758,-0.0010377406142652035,0.18999958038330078
1782811027547656000,5.778656005859375,-0.08191019296646118,-0.023430397734045982,0.14973178505897522
1782811027557727000,5.78872705078125,-0.07089828699827194,-0.02491559088230133,0.09770986437797546
1782811027567799000,5.798799072265625,-0.06415702402591705,0.03509075567126274,0.05478183925151825
1782811027577870000,5.8088701171875,-0.061450399458408356,-0.04517623782157898,-0.026275549083948135
