time,seconds_elapsed,z,y,x
1782813399533556700,0.086556640625,-0.0012441730359569192,-9.683426469564438e-7,-0.0010527793783694506
1782813399543626800,0.096626708984375,0.0007113866740837693,-0.0007410773541778326,-0.0004226384044159204
1782813399553696800,0.10669677734375,-0.00039009680040180683,0.0003926302306354046,-0.0001272938388865441
1782813399563765800,0.116765869140625,-0.0014552281936630607,-0.00023852894082665443,-0.0007636753143742681
1782813399573835800,0.126835693359375,0.00031710555776953697,0.00033192033879458904,-0.0003841748693957925
1782813399583905800,0.13690576171875,0.0012180525809526443,-0.001570370513945818,-0.002929902635514736
1782813399593975800,0.146975830078125,-0.00021765753626823425,0.0019356809789314866,-0.0013328047934919596
1782813399604044800,0.157044921875,0.0015096674906089902,0.0033623413182795048,0.00036067678593099117
1782813399614114800,0.16711474609375,0.0005179062718525529,-0.0001253343652933836,-0.0006744939601048827
1782813399624184800,0.177184814453125,-0.00034116150345653296,0.0002628152724355459,0.0003209544811397791
1782813399634253800,0.18725390625,0.0018287821440026164,0.0006782682612538338,0.00279263430275023
1782813399644323800,0.19732373046875,0.0002474634093232453,0.0019111813744530082,0.0010007841046899557
1782813399654393600,0.2073935546875,0.0006341544212773442,-0.0006489153020083904,0.002266584662720561
1782813399664464000,0.2174638671875,0.0002569177304394543,-0.00046143028885126114,0.0009519209852442145
1782813399674532900,0.227532958984375,0.0014351002173498273,0.00044004968367516994,0.0016986714908853173
1782813399684602600,0.2376025390625,-0.002389598172158003,-0.0016726511530578136,-0.00015392544446513057
1782813399694673000,0.2476728515625,0.0006802276475355029,-0.0007980691734701395,0.000016250531189143658
1782813399704742700,0.25774267578125,-0.002363632433116436,0.00038783252239227295,0.0008254585554823279
1782813399714812000,0.26781201171875,0.0037200930528342724,0.0004727873019874096,0.001340247574262321
1782813399724882000,0.2778818359375,-0.0006664664251729846,0.0022857277654111385,-0.00010257613030262291
1782813399734951700,0.28795166015625,-0.000673390575684607,0.0003240432124584913,-0.0001662256836425513
1782813399745021700,0.298021728515625,0.0008964097942225635,-0.0001915404573082924,-0.00008194343536160886
1782813399755090700,0.308090576171875,-0.001341710682027042,0.0000057998113334178925,-0.0006470662192441523
1782813399765160700,0.31816064453125,-0.0012048908974975348,0.0011132856598123908,-0.000889363931491971
1782813399775231000,0.32823095703125,0.000731759937480092,-0.0005796859040856361,0.00026538269594311714
1782813399785299700,0.3382998046875,0.0010460787452757359,-0.00015875953249633312,0.0007377276197075844
1782813399795370000,0.348369873046875,0.001391224330291152,0.0011467221193015575,-0.0006870635552331805
1782813399805440000,0.35843994140625,-0.0006904347101226449,-0.000735878711566329,-0.0003207155968993902
1782813399815509800,0.368509765625,0.0005242330953478813,-0.00030577811412513256,-0.00018622595234774053
1782813399825579000,0.3785791015625,-0.0006287825526669621,-0.0008842134848237038,0.0015950229717418551
1782813399835648800,0.388648681640625,-0.001393376151099801,0.00007372535765171051,0.0005215026903897524
1782813399845718800,0.39871875,0.0011336306342855096,0.000969191431067884,0.00035835400922223926
1782813399855789000,0.4087890625,-0.0007385715143755078,0.0014240593882277608,0.002797809662297368
1782813399865857800,0.41885791015625,-0.0034641167148947716,-0.001798213692381978,-0.0010147353168576956
1782813399875927800,0.428927734375,-0.0010630108881741762,-0.00045171938836574554,-0.0007979540387168527
1782813399885997800,0.438997802734375,0.000007712631486356258,0.001319024944677949,0.0020719829481095076
1782813399896066800,0.44906689453125,-0.0005028153536841273,0.00007745926268398762,-0.0020489925518631935
1782813399906136800,0.45913671875,-0.0014580913120880723,-0.0011595792602747679,-0.00045855273492634296
1782813399916206800,0.469206787109375,-0.001303627621382475,-0.0017124565783888102,-0.0017922515980899334
1782813399926276900,0.47927685546875,0.0008455434581264853,0.00041807210072875023,0.0009758379310369492
1782813399936345900,0.489345947265625,0.0018157330341637135,0.0004609490279108286,-0.0007328461506403983
1782813399946415900,0.499415771484375,-0.002118288539350033,0.00026039802469313145,0.0021071748342365026
1782813399956485600,0.509485595703125,-0.0012583538191393018,-0.0009542698971927166,-0.0021568122319877148
1782813399966556000,0.519555908203125,0.00011237477883696556,-0.0018629201222211123,0.0023686590138822794
1782813399976625000,0.529625,-0.001507359673269093,-0.0007875354494899511,-0.0005754654994234443
1782813399986695000,0.53969482421875,-0.00001112883910536766,-0.0003192257136106491,-0.0020639575086534023
1782813399996765000,0.549764892578125,0.00035345787182450294,0.0007641480769962072,-0.003232552669942379
1782813400006833700,0.559833740234375,-0.0034820283763110638,0.00048639322631061077,0.000068932946305722
1782813400016904000,0.569904052734375,0.0005332198343239725,0.0004637562669813633,0.0004492322914302349
1782813400026974000,0.579973876953125,-0.0012481671292334795,0.001814232557080686,-0.0019089614506810904
1782813400037043700,0.590043701171875,-0.0001189869362860918,0.001852848450653255,-0.0031398746650666
1782813400047113000,0.600113037109375,-0.0012550249230116606,0.0010266012977808714,-0.0016989014111459255
1782813400057182700,0.6101826171875,-0.00010906660463660955,0.0013088964624330401,-0.00036838618689216673
1782813400067253000,0.6202529296875,0.0005180410807952285,0.000851484714075923,0.0013547688722610474
1782813400077323000,0.630322998046875,-0.0012252640444785357,0.00028263358399271965,-0.0008639107691124082
1782813400087391700,0.640391845703125,-0.00024409079924225807,0.0013890723930671811,0.0027751624584198
1782813400097462000,0.6504619140625,-0.0013692764332517982,-0.0012075097765773535,-0.0018880324205383658
1782813400107531800,0.66053173828125,0.002631791867315769,0.00018010195344686508,0.0008825902477838099
1782813400117601000,0.67060107421875,-0.0010015587322413921,-0.00035066623240709305,-0.0006647062837146223
1782813400127670800,0.6806708984375,0.0008410805021412671,-0.0028982171788811684,0.0027613784186542034
1782813400137740800,0.69074072265625,-0.00007291638758033514,-0.0004387879744172096,0.00039569224463775754
1782813400147810800,0.700810791015625,-0.0006086756475269794,-0.0011119169648736715,-0.002557238331064582
1782813400157879800,0.7108798828125,0.0003577854949980974,0.0009821265703067183,-0.0009612058056518435
1782813400167949800,0.72094970703125,-0.0011905106948688626,0.0016762922750785947,0.00029570667538791895
1782813400178019800,0.731019775390625,0.0032436526380479336,-0.001407381845638156,0.00008611590601503849
1782813400188089900,0.74108984375,0.00020831526489928365,0.0007460135966539383,-0.0010628348682075739
1782813400198158800,0.751158935546875,-0.0010945030953735113,0.00015479186549782753,-0.0007965187542140484
1782813400208228900,0.761228759765625,-0.0006024843314662576,-0.00007180985994637012,-0.0000928370573092252
1782813400218299000,0.771298828125,-0.00015667115803807974,0.0009527083020657301,-0.00008378230268135667
1782813400228368000,0.781367919921875,0.00023667770437896252,0.0019351483788341284,0.0007529829163104296
1782813400238438000,0.79143798828125,0.00031497469171881676,0.0004501696676015854,0.0008579114219173789
1782813400248507600,0.801507568359375,-0.0004651312483474612,0.001536056399345398,0.000638834317214787
1782813400258578000,0.811577880859375,0.0003119792090728879,0.0006407017353922129,-0.000708991487044841
1782813400268647000,0.82164697265625,0.001186428009532392,-0.00006609060801565647,-0.0010625454597175121
1782813400278717000,0.831717041015625,-0.0012940401211380959,0.0007528315763920546,-0.0017150199273601174
1782813400288787000,0.841786865234375,-0.0004135990748181939,0.0013922564685344696,-0.0024090397637337446
1782813400298857000,0.85185693359375,-0.0005105381133034825,-0.0013531961012631655,0.00045439100358635187
1782813400308926000,0.861926025390625,-0.0012319890083745122,-0.0008245534263551235,-0.0013400590978562832
1782813400318996000,0.871995849609375,-0.0014114858349785209,-0.0002367938868701458,-0.00021806929726153612
1782813400329065700,0.882065673828125,0.0003191016730852425,0.0017972011119127274,0.0003136774175800383
1782813400339135000,0.892135009765625,0.000039203441701829433,0.0007220830302685499,-0.0008224271005019546
1782813400349204700,0.902204833984375,0.0010790361557155848,0.000872802222147584,-0.0004675192176364362
1782813400359274800,0.912274658203125,0.001427910290658474,0.0005375102628022432,0.0019311899086460471
1782813400369345000,0.922344970703125,-0.0005222562467679381,-0.0005689195822924376,-0.00032427720725536346
1782813400379413800,0.932413818359375,-0.001494309981353581,0.002109687775373459,-0.00012347486335784197
1782813400389484000,0.942484130859375,-0.0016630878672003746,-0.0012263134121894836,0.0042283195070922375
1782813400399553800,0.9525537109375,0.0004296241095289588,0.000063721789047122,0.0010152156464755535
1782813400409623800,0.962623779296875,-0.0013344537001103163,0.0006014138925820589,0.0008690081886015832
1782813400419692800,0.97269287109375,0.0024661433417350054,-0.001418860163539648,0.002079947618767619
1782813400429762800,0.9827626953125,-0.0007902367506176233,0.0014832047745585442,-0.00015461037401109934
1782813400439832800,0.992832763671875,-0.0008086125599220395,0.0010733442613855004,-0.001100298948585987
1782813400449902800,1.00290283203125,0.0010321582667529583,-0.0009843735024333,-0.00045039146789349616
1782813400459971800,1.012971923828125,0.0015440178103744984,0.0012249851133674383,-0.0009223036468029022
1782813400470041900,1.023041748046875,0.0003916716086678207,0.0006571507547050714,-0.0018722189124673605
1782813400480111900,1.03311181640625,-0.002177746035158634,-0.00020091980695724487,-0.00043011707020923495
1782813400490180900,1.043180908203125,0.000024954439140856266,-0.000613153912127018,-0.0023058210499584675
1782813400500251000,1.0532509765625,-0.0003779818071052432,0.0006497171707451344,0.0023483193945139647
1782813400510321000,1.06332080078125,-0.0015666841063648462,-0.0007255675736814737,-0.001116273459047079
1782813400520390700,1.073390625,-0.0002460224786773324,-0.0006773641798645258,-0.002222017850726843
1782813400530460000,1.0834599609375,0.0007189743337221444,-0.0006656241603195667,-0.0007633055211044848
1782813400540530000,1.093530029296875,0.000060640973970294,0.0020683768671005964,0.0007781321182847023
1782813400550600000,1.103599853515625,-0.002622295171022415,-0.002131331479176879,-0.000883028784301132
1782813400560669000,1.1136689453125,-0.001024664961732924,-0.000799484783783555,0.0004317738930694759
1782813400570738700,1.12373876953125,-0.00020338105969130993,-0.0003877566196024418,-0.00026467759744264185
1782813400580809000,1.13380908203125,-0.0011788969859480858,-0.000471646199002862,-0.0018362089758738875
1782813400590879000,1.14387890625,-0.0004534872714430094,-0.0005253851413726807,-0.0011271872790530324
1782813400600948000,1.153947998046875,-0.0003091440303251147,-0.0015658822376281023,0.00037456920836120844
1782813400611018000,1.16401806640625,-0.0012636510655283928,0.0007489374838769436,-0.0018662188667804003
1782813400621087700,1.174087646484375,0.0013435835717245936,-0.00032751215621829033,0.0017572781071066856
1782813400631157800,1.18415771484375,0.0002822965616360307,-0.0015480855945497751,0.0016535492613911629
1782813400641226800,1.194226806640625,-0.001186703098937869,0.0011739314068108797,0.0019483612850308418
1782813400651296800,1.204296875,-0.0009552319534122944,-0.0005585583858191967,-0.0008059604442678392
1782813400661367000,1.214366943359375,0.00045943923760205507,0.00005370238795876503,-0.00027812193729914725
1782813400671435800,1.224435791015625,-0.003305608406662941,-0.00038582063280045986,-0.0011429463047534227
1782813400681505800,1.234505859375,0.0009493239340372384,-0.00006917072460055351,-0.00020205150940455496
1782813400691575800,1.244575927734375,0.000285867543425411,0.00024373619817197323,-0.001367522869259119
1782813400701645800,1.254645751953125,0.0021588685922324657,-0.0012449710629880428,-0.002203222829848528
1782813400711714800,1.26471484375,-0.0002754167653620243,0.002036111196503043,0.0018398964311927557
1782813400721784800,1.274784912109375,0.0003911724779754877,0.0012973503908142447,0.00021989538799971342
1782813400731854800,1.284854736328125,-0.0009943211916834116,-0.0005819550715386868,-0.0010121683590114117
1782813400741924900,1.2949248046875,-0.001423889072611928,0.0003687934949994087,0.00044191768392920494
1782813400751993900,1.304993896484375,-0.0010063531808555126,-0.003632765728980303,-0.0019220102112740278
1782813400762063600,1.315063720703125,0.0009745060815475881,-0.0013115545734763145,0.002512152772396803
1782813400772134100,1.325134033203125,-0.0008349788840860128,-0.00012349500320851803,-0.0005742452922277153
1782813400782203100,1.335203125,-0.00010127807036042213,0.002380408812314272,-0.0004275051469448954
1782813400792273200,1.345273193359375,-0.00026620004791766405,0.0008771028369665146,-0.0003947579534724355
1782813400802343200,1.35534326171875,-0.0021168305538594723,0.0019242578418925405,-0.0004584074777085334
1782813400812413200,1.3654130859375,-0.00008509238250553608,-0.001102926442399621,-0.000568180053960532
1782813400822482200,1.375482177734375,0.0009412899380549788,0.0008971074130386114,0.00035886623663827777
1782813400832552200,1.38555224609375,-0.00046066660434007645,0.0005668869707733393,0.0023327572271227837
1782813400842622000,1.3956220703125,-0.0015722701791673899,0.0024273712188005447,-0.0005458536325022578
1782813400852692200,1.405692138671875,0.0026267964858561754,0.001128398347645998,0.0007303899037651718
1782813400862761200,1.41576123046875,-0.0004835092695429921,0.00008710240945219994,-0.00014818686759099364
1782813400872831200,1.425831298828125,-0.0002935047959908843,-0.0013259898405522108,0.0002890006289817393
1782813400882901200,1.4359013671875,-0.00038138905074447393,0.0009222507942467928,-0.0007190058822743595
1782813400892970000,1.445969970703125,-0.00010730349458754063,-0.0002045219298452139,-0.00010352721437811852
1782813400903040300,1.456040283203125,0.0009856577962636948,0.0006229220889508724,0.0008128665504045784
1782813400913110300,1.4661103515625,0.00005545397289097309,0.00016009272076189518,-0.0008680237224325538
1782813400923180000,1.476179931640625,-0.0015911785885691643,-0.0017030546441674232,-0.0011085071600973606
1782813400933249300,1.486249267578125,-0.001284196856431663,0.0022177312057465315,-0.0013965547550469637
1782813400943319000,1.496319091796875,-0.0015348003944382071,0.00008427281863987446,-0.001450616866350174
1782813400953389000,1.50638916015625,0.0009071870008483529,-0.0010967885609716177,0.0003026503836736083
1782813400963458000,1.5164580078125,0.0015149202663451433,-0.002595615340396762,-0.0007580866804346442
1782813400973528000,1.526528076171875,0.002083567902445793,-0.00026175612583756447,-0.0005170396179892123
1782813400983598300,1.536598388671875,-0.001174809643998742,0.0007174881175160408,-0.004388476721942425
1782813400993668000,1.546668212890625,0.0012112569529563189,0.00023141340352594852,0.0018085693009197712
1782813401003737000,1.556737060546875,0.0019457568414509296,-0.0010738021228462458,0.0006301206885837018
1782813401013807000,1.56680712890625,0.00046202464727684855,-0.00018462631851434708,-0.000446459831437096
1782813401023877000,1.576877197265625,-0.0012546490179374814,0.0010755815310403705,-0.0014781684149056673
1782813401033947100,1.586947021484375,0.0008066984009929001,0.0000982917845249176,0.0018480313010513783
1782813401044016000,1.59701611328125,-0.00008040061220526695,0.0009720749221742153,-0.0018993025878444314
1782813401054086100,1.607086181640625,0.0005552045768126845,-0.0010055250022560358,0.0004766451893374324
1782813401064156200,1.61715625,-0.0008227148791775107,-0.0005320149939507246,-0.002235518069937825
1782813401074225200,1.62722509765625,0.0014312377898022532,-0.00036426750011742115,0.0002631877432577312
1782813401084295000,1.637294921875,0.0024043568409979343,-0.0006710635498166084,-0.0014998249243944883
1782813401094365200,1.647365234375,0.0006129149114713073,0.0022329697385430336,-0.0016024063806980848
1782813401104435200,1.657435302734375,-0.0001743155298754573,0.0012486653868108988,-0.0024865756276994944
1782813401114504200,1.667504150390625,-0.00009988038800656796,0.0009578729514032602,0.0013228978496044874
1782813401124574200,1.67757421875,-0.0008354454766958952,-0.00043975398875772953,-0.0008483773563057184
1782813401134644000,1.68764404296875,-0.00029602309223264456,-0.00034450157545506954,0.0012889355421066284
1782813401144713200,1.697713134765625,0.0008475383510813117,-0.00182069162838161,0.0006457820418290794
1782813401154783200,1.707783203125,-0.0012355544604361057,0.0014600720023736358,0.0003874140093103051
1782813401164853000,1.71785302734375,0.00004302919842302799,-0.00027204793877899647,-0.0008368410635739565
1782813401174923300,1.72792333984375,0.00011673569679260254,0.0019055288285017014,-0.000014661985915154219
1782813401184992000,1.737991943359375,0.001109029515646398,0.002365723019465804,-0.0016841976903378963
1782813401195062300,1.748062255859375,-0.00012572528794407845,-0.0004398489836603403,-0.00046500444295816123
1782813401205132300,1.75813232421875,-0.0009542348561808467,0.0018781664548441768,0.0008641792228445411
1782813401215202000,1.7682021484375,-0.0012465885374695063,-0.00036474899388849735,-0.00044802320189774036
1782813401225271300,1.778271240234375,0.0007569075096398592,0.0003255424089729786,-0.0011867841240018606
1782813401235341000,1.788341064453125,-0.0012958812294527888,0.0003198550548404455,-0.0007474931189790368
1782813401245411000,1.7984111328125,-0.0005960024427622557,0.0011030907044187188,0.00005971099017187953
1782813401255480000,1.80847998046875,-0.0025232364423573017,-0.0005814146716147661,0.00008231523679569364
1782813401265550000,1.818550048828125,0.000980418175458908,-0.00031563127413392067,-0.0008367416448891163
1782813401275620000,1.8286201171875,0.0006891734665259719,0.0019115270115435123,0.002704006852582097
1782813401285690000,1.838690185546875,-0.0038350047543644905,0.0012803578283637762,-0.0009751500911079347
1782813401295759000,1.848759033203125,0.0005397644708864391,0.0013001842889934778,-0.0007699410780332983
1782813401305829000,1.8588291015625,-0.00011563953012228012,-0.0008439267985522747,0.0004468571860343218
1782813401315899100,1.868899169921875,0.00006382400169968605,0.00008629378862679005,-0.0012432561488822103
1782813401325969200,1.87896923828125,0.00011149456258863211,0.0010998928919434547,-0.000546306895557791
1782813401336038100,1.8890380859375,0.00007548497524112463,0.001320506096817553,0.00046573957661166787
1782813401346108200,1.899108154296875,0.00022355676628649235,-0.000607356196269393,-0.0010077874176204205
1782813401356178000,1.909177978515625,0.0006546304794028401,-0.0006254576146602631,-0.00011003483086824417
1782813401366247200,1.9192470703125,0.0013007133966311812,-0.0019218844827264547,-0.0007702324655838311
1782813401376317200,1.929317138671875,-0.00019853480625897646,0.0009652262087911367,-0.0007326527847908437
1782813401386387200,1.93938720703125,-0.000016640988178551197,0.0013133013853803277,-0.0008045581635087729
1782813401396457200,1.949457275390625,0.002496416447684169,-0.0006468095816671848,-0.0011453167535364628
1782813401406526200,1.959526123046875,-0.00044957222416996956,-0.0007261717692017555,0.001731163589283824
1782813401416596200,1.96959619140625,0.001152424025349319,0.0004777503199875355,-0.000250931887421757
1782813401426666200,1.979666259765625,-0.0003029934596270323,-0.0005129454657435417,-0.0007313661626540124
1782813401436735200,1.9897353515625,-0.0010604406706988811,0.0009661295916885138,-0.0005831038579344749
1782813401446805200,1.99980517578125,-0.0015523266047239304,-0.000717520946636796,0.00011118222028017044
1782813401456875000,2.009875,0.0002778097987174988,0.0005696497391909361,-0.00021646986715495586
1782813401466945300,2.0199453125,-0.0006993040442466736,0.0006711161695420742,0.0012394803343340755
1782813401477014000,2.030013916015625,-0.0008476497605443001,0.0005078355316072702,-0.0012317569926381111
1782813401487084000,2.040083984375,-0.0014742915518581867,-0.001661575399339199,0.00152061996050179
1782813401497154300,2.050154296875,-0.0004510878352448344,-0.00006437208503484726,-0.000700387405231595
1782813401507224000,2.06022412109375,0.0012256383197382092,0.002989208558574319,-0.0011501952540129423
1782813401517293300,2.070293212890625,-0.00047514087054878473,-0.0009804442524909973,-0.003078779438510537
1782813401527363000,2.080363037109375,-0.00020696059800684452,-0.000122373690828681,-0.0000923106272239238
1782813401537433000,2.09043310546875,-0.0010380302555859089,0.0008897616062313318,-0.0006892062956467271
1782813401547502000,2.100502197265625,-0.000217510387301445,-0.0002575283870100975,0.0013124255929142237
1782813401557572000,2.110572021484375,-0.00006269291043281555,0.0012831317726522684,-0.002247040858492255
1782813401567642000,2.12064208984375,0.0004611508920788765,0.0031960804481059313,0.0005191845120862126
1782813401577712000,2.130712158203125,0.0014585524331778288,-0.0014854499604552984,0.00044968322617933154
1782813401587781000,2.140781005859375,-0.0018927695928141475,0.001305809011682868,0.000388164131436497
1782813401597851100,2.15085107421875,0.0012149758404120803,0.0008725211955606937,-0.0024073198437690735
1782813401607921200,2.160921142578125,0.0004740844015032053,-0.0003040633164346218,0.0007834136486053467
1782813401617990100,2.170990234375,-0.0021923824679106474,0.0011398161295801401,0.0002079053083434701
1782813401628060200,2.18106005859375,0.00005718960892409086,0.0006889430806040764,0.000356243341229856
1782813401638130200,2.191130126953125,-0.0013746238546445966,-0.0010559409856796265,-0.0007927196566015482
1782813401648200000,2.201199951171875,0.0005332646542228758,0.0018839224940165877,0.0011404689867049456
1782813401658269200,2.211269287109375,-0.0005952265346422791,-0.001321038929745555,-0.0009260475635528564
1782813401668339200,2.221339111328125,0.000595472811255604,0.0012515746057033539,0.00004733778769150376
1782813401678409200,2.2314091796875,0.0007953153690323234,0.0008875725325196981,0.0011360612697899342
1782813401688479200,2.241479248046875,-0.00018925534095615149,-0.0012730499729514122,-0.0008205630583688617
1782813401698548000,2.2515478515625,-0.0015122448094189167,0.00047301058657467365,-0.0007478621555492282
1782813401708618200,2.2616181640625,0.0004321291926316917,0.0005257411394268274,0.0012889234349131584
1782813401718688300,2.271688232421875,-0.002595813712105155,-0.0013794624246656895,-0.0007971212035045028
1782813401728757200,2.28175732421875,0.0005065026343800128,-0.00020926957949995995,-0.0009454592945985496
1782813401738827300,2.2918271484375,-0.0015273699536919594,-0.0010029131080955267,0.0002444030833430588
1782813401748897000,2.30189697265625,0.001568821258842945,0.0000876511912792921,-0.001477596815675497
1782813401758967000,2.311967041015625,-0.0006519588641822338,0.0019512237049639225,-0.00045595067786052823
1782813401769036000,2.3220361328125,-0.002422960940748453,0.0022044903598725796,-0.001976615749299526
1782813401779106300,2.332106201171875,-0.0003683196846395731,0.0007233391515910625,-0.0007610065513290465
1782813401789176600,2.342176513671875,0.00013022409984841943,0.000721474876627326,0.0006185109377838671
1782813401799246300,2.352246337890625,-0.0008618789725005627,-0.00017932220362126827,-0.001211337512359023
1782813401809315300,2.3623154296875,0.0011067296145483851,-0.000026190420612692833,-0.0021943103056401014
1782813401819385300,2.37238525390625,-0.001961150672286749,0.0023201315198093653,0.00008638465078547597
1782813401829455400,2.382455322265625,-0.0026397239416837692,0.000269497511908412,0.00011567940237000585
1782813401839524600,2.392524658203125,-0.0010586928110569715,-0.0006981608457863331,0.00045103864977136254
1782813401849594400,2.402594482421875,-0.0011641541495919228,-0.000953025184571743,0.0019064561929553747
1782813401859664400,2.412664306640625,-0.00035964022390544415,-0.001698864158242941,-0.0010464716469869018
1782813401869734400,2.422734375,0.0017895307391881943,-0.000719353323802352,-0.00033727186382748187
1782813401879803400,2.432803466796875,0.0005168023053556681,0.0007607040461152792,-0.001762542873620987
1782813401889873400,2.442873291015625,-0.000033673131838440895,-0.000506960554048419,0.0034695034846663475
1782813401899943400,2.452943359375,-0.0004931653384119272,-0.000686723506078124,-0.0004569290322251618
1782813401910012400,2.463012451171875,0.00032868614653125405,0.0022709830664098263,-0.0009480159496888518
1782813401920082400,2.47308251953125,0.0006984004285186529,0.000979041215032339,0.00015395547961816192
1782813401930152400,2.48315234375,-0.002121887169778347,-0.0014263258781284094,0.00037739466642960906
1782813401940222500,2.493222412109375,-0.0003007071791216731,0.0030584274791181087,0.0012352382764220238
1782813401950291500,2.50329150390625,-0.0020141848362982273,0.000058643054217100143,-0.0009195253369398415
1782813401960361500,2.513361572265625,0.0008178044809028506,-0.000322145177051425,-0.0006003021844662726
1782813401970431200,2.52343115234375,-0.0006043234607204795,-0.00013812072575092316,-0.0010631595505401492
1782813401980500500,2.53350048828125,0.000049028429202735424,0.00019720918498933315,-0.000186964898603037
1782813401990570200,2.5435703125,0.0006005690665915608,-0.00007816147990524769,-0.000052741554100066423
1782813402000640500,2.553640625,-0.00012147263623774052,0.001170351286418736,0.0015409922925755382
1782813402010710500,2.56371044921875,-0.003398492466658354,0.0003748650196939707,-0.0008041872642934322
1782813402020779300,2.573779296875,0.002407456748187542,-0.0010725455358624458,0.00003548484528437257
1782813402030849500,2.583849609375,0.0005507008172571659,0.0007762210443615913,0.000014712219126522541
1782813402040919300,2.593919189453125,0.001404550508596003,-0.0008156592957675457,0.0032045950647443533
1782813402050989300,2.6039892578125,0.0005344958044588566,-0.0018345844000577927,0.00008869654266163707
1782813402061058300,2.614058349609375,0.0002855347702279687,-0.00031599472276866436,0.002784266136586666
1782813402071128300,2.62412841796875,-0.0003139427863061428,-0.0000664563849568367,0.0013256529346108437
1782813402081198300,2.6341982421875,-0.0015076582785695791,-0.0005968052428215742,0.0009386585443280637
1782813402091267300,2.644267333984375,-0.000661838217638433,-0.0006343559361994267,-0.00007094585453160107
1782813402101337300,2.65433740234375,0.0003179432242177427,-0.0027894959785044193,0.0004973619943484664
1782813402111407400,2.664407470703125,0.0010591009631752968,0.0009447883348912001,-0.00008427238208241761
1782813402121477400,2.674477294921875,0.0009909910149872303,-0.0010354574769735336,0.0006494690314866602
1782813402131546600,2.684546630859375,0.0008658224833197892,0.0007880087941884995,-0.003998013213276863
1782813402141616400,2.694616455078125,0.0011755565647035837,0.000548000680282712,0.00031729869078844786
1782813402151686400,2.704686279296875,0.00013612484326586127,-0.0012829226907342672,0.00003367202589288354
1782813402161756400,2.71475634765625,-0.0025081485509872437,0.0004362936597317457,0.000981409684754908
1782813402171825400,2.724825439453125,-0.0013182483380660415,0.003185741137713194,-0.0011400643270462751
1782813402181895400,2.7348955078125,0.0008078672690317035,-0.0006240804214030504,0.0026345066726207733
1782813402191965400,2.74496533203125,0.000229162338655442,-0.00027041276916861534,-0.0029376251623034477
1782813402202034400,2.755034423828125,0.00018592772539705038,0.0018042057054117322,0.0014758724719285965
1782813402212104400,2.7651044921875,0.002636568620800972,0.0029453702736645937,-0.0007310890359804034
1782813402222174500,2.775174560546875,0.0003380324342288077,0.001270344015210867,-0.00016973441233858466
1782813402232244500,2.785244384765625,-0.00006303959526121616,-0.00049373391084373,0.0000289374147541821
1782813402242313500,2.7953134765625,0.00013076863251626492,-0.00023025460541248322,-0.00031976570608094335
1782813402252383500,2.805383544921875,0.0014876492787152529,0.00023766281083226204,-0.0008643821347504854
1782813402262453200,2.815453369140625,-0.0015417176764458418,0.0007420070469379425,0.0015622114297002554
1782813402272522500,2.8255224609375,-0.00047592062037438154,0.00009565777145326138,-0.000171772699104622
1782813402282592300,2.83559228515625,0.0003858497948385775,0.0005644350312650204,-0.0002490780607331544
1782813402292662300,2.845662353515625,0.0002894433564506471,-0.0007815265562385321,-0.00038836136809550226
1782813402302732500,2.855732666015625,0.00004456262104213238,-0.0012529999949038029,0.0027466900646686554
1782813402312801300,2.86580126953125,-0.0013674454530701041,0.000021056272089481354,-0.0002866503782570362
1782813402322871600,2.87587158203125,0.001129348762333393,0.0003052449319511652,0.0021263849921524525
1782813402332941300,2.88594140625,-0.00020090024918317795,0.0012876850087195635,-0.0003277177456766367
1782813402343011300,2.89601123046875,0.001000863267108798,-0.0003467104397714138,0.0023171294014900923
1782813402353080600,2.90608056640625,-0.0006255292100831866,0.00090204575099051,0.0024268515408039093
1782813402363150300,2.916150390625,-0.0023425426334142685,-0.0007013515569269657,-0.0011784587986767292
1782813402373220400,2.926220458984375,0.000270550895947963,-0.0005756502505391836,0.0013755125692114234
1782813402383289300,2.936289306640625,-0.0012556429719552398,-0.0003853035159409046,-0.0005292398855090141
1782813402393359400,2.946359375,0.0010077775223180652,0.000904998043552041,0.0013347065541893244
1782813402403429600,2.9564296875,-0.00011315860319882631,0.0004092087037861347,0.0014443325344473124
1782813402413499400,2.96649951171875,-0.0008271520491689444,0.0021376002114266157,-0.000025732413632795215
1782813402423568400,2.976568359375,0.0010708464542403817,-0.000667008338496089,-0.0015510141383856535
1782813402433638400,2.986638427734375,0.0011904224520549178,0.00022568320855498314,-0.0019262535497546196
1782813402443708400,2.99670849609375,-0.00044306949712336063,-0.001328102545812726,0.0021422645077109337
1782813402453777400,3.00677734375,-0.00021403771825134754,-0.0009494011756032705,-0.0006551198312081397
1782813402463847400,3.016847412109375,0.0023456825874745846,0.0013100504875183105,0.0006742645055055618
1782813402473917400,3.02691748046875,0.00040690123569220304,-0.00039783469401299953,0.00009502691682428122
1782813402483987500,3.036987548828125,0.00018452724907547235,0.00011642160825431347,0.0012090272502973676
1782813402494056400,3.047056396484375,0.0012215126771479845,0.00016401452012360096,0.0015300486702471972
1782813402504126200,3.057126220703125,-0.000864942092448473,0.00032039894722402096,-0.002529899124056101
1782813402514196500,3.067196533203125,-0.001427934505045414,-0.0004484555684030056,-0.0012553103733807802
1782813402524265200,3.07726513671875,-0.0014611863298341632,-0.0007085981778800488,-0.0011177267879247665
1782813402534335500,3.08733544921875,-0.00013306783512234688,-0.0006156538147479296,0.0018612851854413748
1782813402544405500,3.097405517578125,0.0006974180578254163,-0.0006775453221052885,-0.0005656808498315513
1782813402554475300,3.107475341796875,-0.0009963522898033261,0.002144340192899108,0.0032908427529037
1782813402564544500,3.11754443359375,0.0010612610494717956,0.001473122276365757,0.00030596734723076224
1782813402574614300,3.1276142578125,0.0008308975957334042,0.0009751112665981054,-0.0015212275320664048
1782813402584684300,3.137684326171875,0.0008377954363822937,0.00013710814528167248,0.00004696473479270935
1782813402594753500,3.14775341796875,0.00017253786791116,-0.001011779299005866,0.000643779116217047
1782813402604823300,3.1578232421875,0.00007669662591069937,-0.0007971734739840031,-0.0015909529756754637
1782813402614893300,3.167893310546875,-0.0026205528993159533,-0.0000735926441848278,0.002046125940978527
1782813402624963300,3.17796337890625,0.0008224636549130082,0.00040004891343414783,-0.0004187127633485943
1782813402635032300,3.1880322265625,-0.0012358934618532658,-0.00026467605493962765,0.0005738473264500499
1782813402645102600,3.1981025390625,0.0003211589064449072,0.0006360367406159639,-0.00024562038015574217
1782813402655172400,3.20817236328125,-0.002789146965369582,-0.00018634740263223648,0.0019906358793377876
1782813402665242400,3.218242431640625,0.0011925778817385435,0.00006112060509622097,-0.0025342917069792747
1782813402675311400,3.228311279296875,-0.0013475451851263642,-0.00028642197139561176,0.000015418714610859752
1782813402685381400,3.23838134765625,-0.0004362058825790882,0.0010979125509038568,-0.00034379222779534757
1782813402695451400,3.248451416015625,0.0007736681727692485,-0.0015412799548357725,0.0008692776318639517
1782813402705520400,3.258520263671875,0.00066632020752877,-0.0001307798083871603,-0.0007993605686351657
1782813402715590400,3.26859033203125,0.0010639302199706435,-0.000006143935024738312,0.00015698058996349573
1782813402725660400,3.278660400390625,0.0004557862412184477,0.002008287701755762,-0.00006702533573843539
1782813402735730400,3.28873046875,-0.0021871349308639765,0.00003089080564677715,-0.001962929731234908
1782813402745799400,3.29879931640625,0.00048213719855993986,-0.0006399836856871843,0.0010475167073309422
1782813402755869400,3.308869384765625,-0.000752237974666059,0.0012857479741796851,-0.0008459908422082663
1782813402765939500,3.318939453125,-0.0009216037578880787,0.0009102365002036095,0.00045354352914728224
1782813402776008400,3.329008544921875,-0.0016619623638689518,0.002324907574802637,0.0021867286413908005
1782813402786078500,3.339078369140625,0.00045340543147176504,-0.0018515929114073515,-0.0004909182898700237
1782813402796148200,3.349148193359375,0.001628392143175006,-0.001761311898007989,-0.00024217904137913138
1782813402806218500,3.359218505859375,-0.0017874924233183265,-0.0008448001462966204,-0.002372259506955743
1782813402816287200,3.369287353515625,-0.0010356820421293378,0.0017270144307985902,-0.0016372271347790956
1782813402826357200,3.379357177734375,-0.0017925524152815342,0.000763800460845232,0.00017477339133620262
1782813402836427500,3.389427490234375,-0.00142796547152102,-0.00058775395154953,0.002074139891192317
1782813402846497300,3.399497314453125,0.0004303281311877072,-0.0017107094172388315,-0.0012320743408054113
1782813402856566500,3.40956640625,0.00019517098553478718,0.000025671441107988358,0.00026142632123082876
1782813402866636300,3.41963623046875,0.00023512355983257294,0.001753561431542039,-0.0008142394362948835
1782813402876706300,3.429706298828125,0.0010998520301654935,-0.002401235979050398,0.002971444046124816
1782813402886775300,3.439775390625,-0.0007482183864340186,0.0012641691137105227,-0.0005606311606243253
1782813402896845300,3.44984521484375,-0.002142915967851877,0.0043755401857197285,-0.00025276970700360835
1782813402906915300,3.459915283203125,0.000799638859461993,0.0005238873418420553,-0.000733644759748131
1782813402916985300,3.4699853515625,-0.00048240693286061287,0.00014039198867976665,0.0023249955847859383
1782813402927054300,3.480054443359375,0.0014674332924187183,-0.0004411092959344387,-0.0010088620474562049
1782813402937124400,3.490124267578125,0.002402735408395529,0.0005162970628589392,-0.000785689102485776
1782813402947194400,3.5001943359375,-0.00029568502213805914,-0.00030423630960285664,-0.0001738931896397844
1782813402957263400,3.510263427734375,0.0012092672986909747,-0.0010400679893791676,0.0023395982570946217
1782813402967333400,3.52033349609375,-0.00044416228774935007,0.002357760677114129,0.0009568103705532849
1782813402977403400,3.5304033203125,-0.00013390404637902975,-0.0005679882597178221,-0.0017369771376252174
1782813402987473200,3.54047314453125,0.000576011196244508,0.0007971434388309717,0.00019969407003372908
1782813402997542400,3.55054248046875,0.0005477817030623555,-0.001480391714721918,-0.0003433245001360774
1782813403007612400,3.5606123046875,-0.0018238028278574347,0.003301895223557949,-0.0018957746215164661
1782813403017682400,3.570682373046875,-0.000604341272264719,0.0009804177097976208,-0.000022773485397920012
1782813403027751400,3.58075146484375,0.0019535154569894075,-0.00029997900128364563,0.0010415867436677217
1782813403037821200,3.5908212890625,0.0008171445806510746,0.0001783247571438551,-0.00011715455912053585
1782813403047891500,3.600891357421875,0.0010342285968363285,-0.0004968610592186451,0.000049858965212479234
1782813403057961500,3.61096142578125,-0.0014688764931634068,0.0003510895185172558,-0.00030087935738265514
1782813403068030500,3.621030517578125,-0.00038480921648442745,0.0007044700905680656,0.0022668468300253153
1782813403078100500,3.6311005859375,-0.00043168081901967525,0.0029929245356470346,-0.001021624426357448
1782813403088170200,3.641170166015625,-0.000426136190071702,0.0018948344513773918,-0.0006211971049197018
1782813403098240300,3.651240234375,-0.0015081786550581455,0.00213877996429801,-0.0005447643925435841
1782813403108309200,3.661309326171875,-0.0008127782493829727,0.0009076700080186129,0.0002601995365694165
1782813403118379300,3.671379150390625,-0.00018373958300799131,0.001380380941554904,-0.001770460745319724
1782813403128449500,3.681449462890625,0.00039196008583530784,0.0006649862043559551,0.00024266628315672278
1782813403138518300,3.691518310546875,-0.001033363863825798,-0.002773420885205269,0.0006847509648650885
1782813403148588500,3.701588623046875,0.0008326193783432245,0.0020006513223052025,-0.00026565571897663176
1782813403158658300,3.711658203125,0.0002821439993567765,0.0009566922672092915,0.0007282359874807298
1782813403168728300,3.721728271484375,-0.0006844204617664218,0.001253310707397759,0.0015048773493617773
1782813403178797300,3.73179736328125,-0.00010704714804887772,-0.0017667138017714024,-0.0004402954364195466
1782813403188867300,3.741867431640625,0.002230046782642603,0.0024290645960718393,-0.0004416831652633846
1782813403198937300,3.751937255859375,0.0005834143375977874,0.000934764975681901,0.00007017640746198595
1782813403209006300,3.76200634765625,0.0016255469527095556,0.0021309189032763243,-0.0017946691950783134
1782813403219076400,3.772076416015625,-0.0021167269442230463,-0.0004339716397225857,-0.0012082412140443921
1782813403229146400,3.782146484375,-0.0011571699287742376,-0.0007044065278023481,0.0011204835027456284
1782813403239216400,3.79221630859375,0.0011933359783142805,-0.002784335520118475,-0.0006760850665159523
1782813403249285400,3.802285400390625,0.0014600722352042794,0.0000829482451081276,-0.0003773123607970774
1782813403259355400,3.81235546875,-0.0007564767729490995,-0.0005873693153262138,-0.00032032071612775326
1782813403269425400,3.82242529296875,-0.0008904027054086328,0.0013684870209544897,0.0008064451394602656
1782813403279494400,3.832494384765625,0.00234906654804945,-0.0005631037056446075,0.002083164406940341
1782813403289564400,3.842564453125,-0.0007711175130680203,-0.00041072373278439045,-0.001155357575044036
1782813403299634400,3.852634521484375,0.0002933479263447225,0.0013887742534279823,0.0011940831318497658
1782813403309704200,3.8627041015625,-0.00027497950941324234,-0.0000021064188331365585,0.0022412841208279133
1782813403319773400,3.8727734375,-4.075700417160988e-7,0.00028444966301321983,-0.0011558439582586288
1782813403329843200,3.88284326171875,0.0005141434958204627,-0.0017892082687467337,0.00022690714104101062
1782813403339913500,3.89291357421875,0.0011405189288780093,0.001143464702181518,0.00035527150612324476
1782813403349982200,3.902982177734375,-0.0006328769959509373,-0.0012949523515999317,0.00021608927636407316
1782813403360052200,3.91305224609375,-0.00024671864230185747,-0.0020797858014702797,-0.0010752775706350803
1782813403370122500,3.92312255859375,-0.0012227569241076708,0.0020941109396517277,0.002170541789382696
1782813403380192300,3.933192138671875,-0.0012398012913763523,0.00310078589245677,-0.0021216748282313347
1782813403390261500,3.943261474609375,-0.0019040218321606517,0.0003231237642467022,-0.0019605671986937523
1782813403400331300,3.953331298828125,-0.0014187939232215285,0.0013585607521235943,-0.00019329341012053192
1782813403410401300,3.9634013671875,0.0005530904745683074,0.0011529987677931786,0.00007726525655016303
1782813403420471600,3.973471435546875,-0.0014030012534931302,-0.000018792226910591125,0.000577140599489212
1782813403430540300,3.983540283203125,-0.0023000440560281277,-0.003054918022826314,-0.00018904877651948482
1782813403440610300,3.9936103515625,-0.0012006910983473063,0.0010093320161104202,0.00017101058620028198
1782813403450680300,4.003680419921875,-0.0005705641815438867,0.00071913399733603,0.0006581140914931893
1782813403460749300,4.013749267578125,-0.0003963934723287821,0.0016816004645079374,0.0014496055664494634
1782813403470819600,4.023819580078125,0.0002790407161228359,0.002310536801815033,-0.0006617177277803421
1782813403480889300,4.033889404296875,0.00010273943189531565,0.0021337030921131372,0.00036093610106036067
1782813403490959400,4.04395947265625,0.0005081700510345399,0.00043850275687873363,0.003523807041347027
1782813403501028400,4.0540283203125,0.0009563800995238125,0.002381278667598963,-0.0003431028744671494
1782813403511098400,4.064098388671875,-0.0011150612263008952,0.002325186040252447,0.0028324860613793135
1782813403521168400,4.07416845703125,0.0010668666800484061,-0.0011246725916862488,-0.0016738488338887691
1782813403531237400,4.0842373046875,-0.0009642008226364851,0.00046873558312654495,0.002984463470056653
1782813403541307400,4.094307373046875,-0.0004102631937712431,0.00025088898837566376,0.0005719058681279421
1782813403551377400,4.10437744140625,-0.001272881287150085,0.0003000583965331316,-0.0005262285703793168
1782813403561447400,4.114447509765625,0.0013391469838097692,0.0010585266863927245,0.0017387898406013846
1782813403571516200,4.12451611328125,0.0002897682134062052,-0.0005146965850144625,0.0015098159201443195
1782813403581586400,4.13458642578125,0.00040321884443983436,-0.0005501166451722383,-0.001038296613842249
1782813403591656400,4.144656494140625,0.0003600505297072232,0.0019069924019277096,-0.0022018507588654757
1782813403601725400,4.154725341796875,-0.00042851141188293695,0.0003146883100271225,0.0012597260065376759
1782813403611795500,4.16479541015625,-0.0018310793675482273,-0.000801602378487587,-0.00039582260069437325
1782813403621865200,4.174865234375,-0.0003687376156449318,0.002337199170142412,-0.00009435277024749666
1782813403631935200,4.184935302734375,0.0009605791419744492,-0.0002552277874201536,-0.0010191438486799598
1782813403642004200,4.195004150390625,0.0005951934726908803,-0.0015292840544134378,-0.001531535992398858
1782813403652074200,4.20507421875,-0.0007840137695893645,0.00019996543414890766,0.0013462150236591697
1782813403662144500,4.21514453125,0.0007222701678983867,0.0011898623779416084,-0.0006820483831688762
1782813403672213200,4.225213134765625,0.0003164762747474015,-0.0003113481216132641,0.001481611398048699
1782813403682283500,4.235283447265625,-0.0005077720852568746,-0.0010367929935455322,0.0017069149762392044
1782813403692353300,4.245353271484375,-0.0014809987042099237,-0.0001253762748092413,0.0005924282595515251
1782813403702423300,4.25542333984375,-0.00025754247326403856,0.00040166336111724377,-0.000010245043085888028
1782813403712492500,4.265492431640625,-0.0003896693233400583,-0.00029551493935287,0.0008793671149760485
1782813403722562300,4.275562255859375,-0.001311123138293624,0.000968687585555017,-0.002716166665777564
1782813403732632300,4.28563232421875,-0.0006320225074887276,0.0021548476070165634,-0.00006229493010323495
1782813403742701300,4.295701416015625,0.0012465713080018759,-0.0003216257318854332,0.0023494637571275234
1782813403752771300,4.305771240234375,-0.002567238872870803,-0.0009928613435477018,-0.0005088450270704925
1782813403762841300,4.31584130859375,-0.0013043677899986506,-0.001732953591272235,0.002265902468934655
1782813403772911400,4.325911376953125,0.0012974641285836697,0.0011234802659600973,-0.0003614673623815179
1782813403782980400,4.33598046875,0.0007288792403414845,-0.0004134299233555794,-0.0007167330477386713
1782813403793050400,4.34605029296875,-0.0014969813637435436,-0.0022591373417526484,-0.000778034795075655
1782813403803120400,4.356120361328125,-0.00045861490070819855,-0.0006316797807812691,0.0004928257549181581
1782813403813190400,4.3661904296875,0.00010293768718838692,-0.0007511537987738848,0.000638356723356992
1782813403823259400,4.37625927734375,-0.000661389552988112,0.0006139825563877821,-0.000962203077506274
1782813403833329400,4.386329345703125,0.0003893905086442828,0.0001688995398581028,0.0010609416058287024
1782813403843399200,4.396399169921875,-0.0004574947524815798,0.0008389507420361042,-0.0014621372101828456
1782813403853468400,4.406468505859375,0.0003433794481679797,0.0004394054412841797,-0.000729729887098074
1782813403863538200,4.4165380859375,0.0015010555507615209,0.000010902993381023407,0.001884695258922875
1782813403873608400,4.4266083984375,0.00033473875373601913,0.0023854076862335205,0.000055463286116719246
1782813403883678500,4.436678466796875,0.00044446095125749707,-0.0005232968833297491,0.0009401653660461307
1782813403893747500,4.44674755859375,0.0030349246226251125,-0.0017250585369765759,0.0006535054417327046
1782813403903817500,4.4568173828125,-0.0020208205096423626,-0.0009194521699100733,0.0008316709427163005
1782813403913887200,4.46688720703125,-0.0012556638102978468,-0.0007965120021253824,-0.0002801785885822028
1782813403923956500,4.47695654296875,-0.002250354504212737,0.0006346707232296467,0.0000785492011345923
1782813403934026200,4.487026123046875,0.000877278158441186,-0.001210181973874569,-0.0020269781816750765
1782813403944096300,4.49709619140625,0.0005814009928144515,0.0011389924911782146,-0.00027834661887027323
1782813403954166500,4.50716650390625,0.00100626889616251,-0.00038042617961764336,-0.0007878561737015843
1782813403964235300,4.5172353515625,-0.000992966117337346,0.0005990844219923019,-0.0007255381788127124
1782813403974305300,4.52730517578125,-0.0022831696551293135,0.0022263582795858383,-0.0010359351290389895
1782813403984375300,4.537375244140625,0.00031607557320967317,0.0011216789716854692,-0.0012913323007524014
1782813403994444300,4.5474443359375,0.00015324621926993132,0.0012276095803827047,0.00010707450564950705
1782813404004514600,4.5575146484375,-0.00033837335649877787,-0.00024964590556919575,-0.0013997420901432633
1782813404014584300,4.567584228515625,-0.0004675433738157153,-0.001584173645824194,-0.0006555314175784588
1782813404024654300,4.577654296875,-0.000936525990255177,0.0026510513853281736,0.0010912358993664384
1782813404034723300,4.587723388671875,0.0002567970659583807,-0.0010406742803752422,-0.0003207996196579188
1782813404044793300,4.59779345703125,0.00017024436965584755,-0.0018151216208934784,-0.0007013652939349413
1782813404054863400,4.60786328125,-0.0011538045946508646,0.000003198627382516861,-0.0003611379361245781
1782813404064932400,4.617932373046875,0.0010068179108202457,0.00027404213324189186,0.0002955975942313671
1782813404075002400,4.62800244140625,-0.0006385078886523843,0.0015497405547648668,-0.0010712272487580776
1782813404085072400,4.638072265625,0.0009146475931629539,0.0007555859629064798,0.0010478501208126545
1782813404095142400,4.648142333984375,0.001732910517603159,0.0010354204569011927,0.0016246463637799025
1782813404105211100,4.658211181640625,0.0013054731534793973,0.0020173280499875546,0.0003322143165860325
1782813404115281400,4.668281494140625,0.0015132772969081998,-0.0012868233025074005,0.00010033516446128488
1782813404125351400,4.678351318359375,-0.0000915436539798975,0.0011600889265537262,-0.0004802339244633913
1782813404135420400,4.68842041015625,-0.0013578912476077676,0.0007437784224748611,-0.0019052806310355663
1782813404145490400,4.698490478515625,0.00026157702086493373,0.002201326424255967,0.0012359176762402058
1782813404155560200,4.708560302734375,0.000893851974979043,-0.0016699822153896093,-0.0018713793251663446
1782813404165630500,4.71863037109375,-0.0007969890721142292,-0.0007245598826557398,0.0018948630895465612
1782813404175699500,4.728699462890625,-0.0011945378500968218,0.00035815825685858727,0.0017026860732585192
1782813404185769200,4.738769287109375,0.0000696646748110652,-0.0015233652666211128,0.0026963113341480494
1782813404195839500,4.748839599609375,-0.00036507623735815287,-0.00047265575267374516,-0.0012827978935092688
1782813404205908200,4.758908203125,-0.0008212757529690862,0.0024080853909254074,0.0007449329714290798
1782813404215978500,4.768978515625,-0.00045152788516134024,0.0007667953614145517,0.0007556343916803598
1782813404226048500,4.779048583984375,0.0015258691273629665,-0.0016968951094895601,0.00005895146750845015
1782813404236118300,4.7891181640625,0.000138802919536829,0.0011030026944354177,-0.00008834183972794563
1782813404246187500,4.7991875,0.0004226958262734115,0.0014388272538781166,-0.00016663876886013895
1782813404256257300,4.80925732421875,-0.0013878080062568188,0.000018407125025987625,-0.0007162950932979584
1782813404266327300,4.819327392578125,-0.0002817971399053931,-0.0013342122547328472,-0.001741612097248435
1782813404276396300,4.829396240234375,-0.0007641197880730033,-0.00035110535100102425,-0.002946255961433053
1782813404286466300,4.83946630859375,-0.00012176542077213526,0.0006960495375096798,0.0017651421949267387
1782813404296536300,4.849536376953125,-0.0011247243965044618,-0.0028036399744451046,0.0010340516455471516
1782813404306606300,4.8596064453125,0.0008319001644849777,-0.0016829818487167358,0.002344593172892928
1782813404316675300,4.86967529296875,-0.0012361947447061539,0.00047595566138625145,0.0004898637998849154
1782813404326745300,4.879745361328125,0.0008354783058166504,0.00313698616810143,0.0006001186557114124
1782813404336815400,4.8898154296875,-0.0017373354639858007,0.0014838144415989518,0.00022094231098890305
1782813404346884400,4.89988427734375,-0.00038418336771428585,0.00016048969700932503,0.0004129562294110656
1782813404356954400,4.909954345703125,0.001171696581877768,-0.000025080284103751183,0.0016366355121135712
1782813404367024400,4.9200244140625,-0.0010435207514092326,-0.00025331322103738785,0.001150342170149088
1782813404377094100,4.93009423828125,-0.00020855863112956285,-0.000505576841533184,-0.00018150624237023294
1782813404387163400,4.940163330078125,0.0010516492184251547,-0.001073895487934351,-0.0007825816865079105
1782813404397233200,4.950233154296875,0.00007518113125115633,0.0012949578231200576,0.0015270269941538572
1782813404407303400,4.960303466796875,0.0013628194574266672,0.0013745863689109683,-0.0022722387220710516
1782813404417372400,4.970372314453125,0.00013735948596149683,0.001263375743292272,0.0013926647370681167
1782813404427442400,4.9804423828125,-0.00033109053038060665,-0.000902306754142046,-0.0009463896276429296
1782813404437512400,4.990512451171875,0.0010765736224129796,0.0011163527378812432,0.00025468209059908986
1782813404447582200,5.000582275390625,-0.00023343530483543873,0.00012725475244224072,-0.00046330614713951945
1782813404457651500,5.0106513671875,0.0009388541802763939,0.002322856802493334,-0.0006370668415911496
1782813404467721500,5.020721435546875,-0.001366644399240613,-0.0006124794017523527,0.0008329980773851275
1782813404477791200,5.030791259765625,0.00009239348582923412,0.0016794406110420823,0.0020177150145173073
1782813404487860500,5.040860595703125,-0.0019236194202676415,-0.00032059336081147194,0.00025603390531614423
1782813404497930200,5.05093017578125,-0.002128962427377701,-0.000040117185562849045,-0.00010433020361233503
1782813404508000300,5.061000244140625,-0.0019436064176261425,0.0005162172019481659,0.00014068061136640608
1782813404518070500,5.071070556640625,0.0028404402546584606,-0.0004542882088571787,0.00012072603567503393
1782813404528139300,5.08113916015625,0.00024199392646551132,0.001198469428345561,0.001945790252648294
1782813404538209500,5.09120947265625,-0.0010774200782179832,-0.00021060416474938393,0.0010421948973089457
1782813404548279300,5.101279296875,-0.0000523693161085248,-0.0005080793052911758,0.0017647104104980826
1782813404558348500,5.1113486328125,-0.0020690676756203175,-0.0009846605826169252,0.001156986691057682
1782813404568418300,5.121418212890625,0.0016676136292517185,0.0017528027528896928,-0.00011067796731367707
1782813404578488300,5.13148828125,-0.001224351697601378,-0.001395597355440259,-0.00005039264215156436
1782813404588558300,5.141558349609375,-0.0004983741091564298,0.0028862329199910164,-0.0007161828689277172
1782813404598627300,5.15162744140625,0.0024069449864327908,0.0005374448373913765,0.001751015312038362
1782813404608697300,5.161697265625,0.0015344934072345495,0.0002751236315816641,0.0009147827513515949
1782813404618767400,5.171767333984375,-0.0008167258929461241,0.002266308758407831,-0.001572958193719387
1782813404628836400,5.18183642578125,-0.0016186037100851536,0.0007664163131266832,-0.0028438186272978783
1782813404638906400,5.19190625,-0.00029515393543988466,0.0017365706153213978,-0.0013341556768864393
1782813404648976400,5.201976318359375,0.0003876805421896279,0.0009360243566334248,0.0010280681308358908
1782813404659046400,5.21204638671875,-0.00010248541366308928,0.001223729457706213,0.0020251874811947346
1782813404669115400,5.222115478515625,-0.0019174297340214252,-0.0012407596223056316,-0.002036931924521923
1782813404679185400,5.232185302734375,-0.001118417945690453,0.0008935362566262484,-0.0001474616292398423
1782813404689255400,5.24225537109375,-0.00022173160687088966,0.000028008827939629555,0.001649106852710247
1782813404699324400,5.252324462890625,-0.002250298857688904,-0.0004720019642263651,-0.0018779602833092213
1782813404709394400,5.26239453125,-0.0012787774903699756,0.0009679693030193448,-0.00037487217923626304
1782813404719464200,5.272464111328125,-0.0020214184187352657,0.0005846761632710695,-0.0008594361133873463
1782813404729534500,5.282534423828125,0.0004657077370211482,-0.0001689984928816557,0.000655636191368103
1782813404739603200,5.292603271484375,0.00046169746201485395,-0.0022839463781565428,0.0030475370585918427
1782813404749673500,5.302673583984375,-0.002212915103882551,0.0009786920854821801,0.0018672241130843759
1782813404759743500,5.312743408203125,0.0016937658656388521,-0.0009421792346984148,0.0003127179224975407
1782813404769812200,5.322812255859375,0.0018157497979700565,-0.001314415130764246,0.0022302973084151745
1782813404779882200,5.33288232421875,0.0025936593301594257,-0.0015290658921003342,0.001005775760859251
1782813404789952300,5.3429521484375,-0.0002684202045202255,-0.0004749617073684931,-0.0010621631518006325
1782813404800022300,5.353022216796875,0.0002162751043215394,-0.002251290250569582,0.0010446636006236076
1782813404810091300,5.36309130859375,-0.00014621939044445753,-0.0012323937844485044,-0.0005635931738652289
1782813404820161300,5.373161376953125,-0.0009518257575109601,0.001169244758784771,0.0011048773303627968
1782813404830231300,5.383231201171875,-0.0013267151080071926,-0.0010365310590714216,0.0009199822088703513
1782813404840300300,5.39330029296875,0.0005963534349575639,-0.0003217386547476053,0.002067005727440119
1782813404850370000,5.4033701171875,0.0011993075022473931,0.0012133292621001601,0.000863156805280596
1782813404860440300,5.4134404296875,-0.0008936708327382803,-0.001717479433864355,-0.000969897024333477
1782813404870510300,5.42351025390625,-0.0012786457082256675,-0.0001887138932943344,-0.000010824122000485659
1782813404880579300,5.433579345703125,0.00016558647621423006,-0.00042280578054487705,-0.002242286689579487
1782813404890649300,5.4436494140625,0.0010585762793198228,-0.0008264021016657352,0.0004910093848593533
1782813404900719000,5.453718994140625,0.0005123619339428842,-0.000050623202696442604,-0.0010466998210176826
1782813404910788400,5.463788330078125,0.0018519926816225052,-0.0008657462894916534,0.00004863561480306089
1782813404920858400,5.4738583984375,0.0008652915712445974,0.001036549685522914,-0.000009953917469829321
1782813404930928000,5.48392822265625,-0.0007319798460230231,0.000578664243221283,-0.0015390231274068356
1782813404940997400,5.493997314453125,-0.0007540840888395905,0.0006572275888174772,-0.0027054876554757357
1782813404951067100,5.504067138671875,0.00009153445716947317,-0.000044665997847914696,-0.0008071643533185124
1782813404961137400,5.514137451171875,-0.00016386271454393864,-0.0003714358899742365,-0.0011131616774946451
1782813404971207400,5.52420751953125,-0.0002415028866380453,0.00037282658740878105,0.0010827480582520366
1782813404981276200,5.534276123046875,0.0003643662785179913,0.002026116941124201,-0.001501317135989666
1782813404991346400,5.544346435546875,0.000683349440805614,-0.0001702865120023489,0.0008029172895476222
1782813405001416200,5.554416259765625,-0.00023624009918421507,0.0007098880596458912,0.0005765486275777221
1782813405011485400,5.5644853515625,0.00046724744606763124,0.00012326892465353012,-0.0005372469313442707
1782813405021555200,5.57455517578125,0.004185819067060947,0.0019424741622060537,0.00009791698539629579
1782813405031625200,5.584625244140625,0.0005167854251340032,0.00005601905286312103,-0.001293573877774179
1782813405041695200,5.5946953125,0.0009958881419152021,0.05058364197611809,0.019155774265527725
1782813405051764200,5.60476416015625,-0.00029949750751256943,0.008036073297262192,0.0029931473545730114
1782813405061834200,5.614834228515625,0.0012712348252534866,0.011953583918511868,0.006650999188423157
1782813405071904300,5.624904296875,-0.0019654310308396816,-0.0016332091763615608,0.005198867991566658
1782813405081973200,5.63497314453125,-0.0005334492307156324,-0.0016566449776291847,0.0011735004372894764
1782813405092043300,5.645043212890625,0.0008658610749989748,-0.004733060020953417,-0.00009190689888782799
1782813405102113300,5.65511328125,-0.0007445524679496884,-0.007451614364981651,-0.0078963004052639
1782813405112183300,5.665183349609375,0.0008554334053769708,-0.012319804169237614,-0.0075325206853449345
1782813405122253000,5.675253173828125,0.00012199883349239826,-0.013301446102559566,-0.006365790031850338
1782813405132323300,5.6853232421875,0.0006455762777477503,-0.0026804932858794928,-0.0009084402117878199
1782813405142392000,5.69539208984375,0.00020411110017448664,-0.0007824802305549383,-0.00015587147208862007
