time,seconds_elapsed,z,y,x
1782661630971714000,0.071714111328125,-0.0015282165259122849,-0.0005703202914446592,-0.0009123708005063236
1782661630981786000,0.0817861328125,-0.00021794135682284832,-0.00007204280700534582,0.001163296983577311
1782661630991857200,0.091857177734375,0.0011370806023478508,-0.000490544131025672,0.0013494441518560052
1782661631001928200,0.10192822265625,0.0024148651864379644,-0.0015896307304501534,-0.0005398023640736938
1782661631011999000,0.1119990234375,0.002045748522505164,-0.0005395424086600542,-0.0018166597001254559
1782661631022070000,0.122070068359375,-0.0011300710029900074,0.0013052292633801699,-0.0008733681170269847
1782661631032141800,0.132141845703125,-0.0004335849662311375,-0.00184706412255764,-0.00007521026418544352
1782661631042212900,0.142212890625,0.00006762199336662889,-0.0014204257167875767,-0.0007761542219668627
1782661631052284000,0.152283935546875,-0.000781711598392576,-0.001085610594600439,0.00024703535018488765
1782661631062355000,0.16235498046875,0.0011679886374622583,-0.0025466205552220345,0.0014276145957410336
1782661631072426000,0.172426025390625,-0.0002672337577678263,0.002120502758771181,0.0010779378935694695
1782661631082496800,0.182496826171875,-0.0030254696030169725,-0.003262278623878956,-0.0024150642566382885
1782661631092569000,0.192569091796875,-0.0007125879055820405,-0.00040921266190707684,-0.0027724590618163347
1782661631102639900,0.202639892578125,-0.00019992940360680223,-0.002285143593326211,-0.00027201708871871233
1782661631112711000,0.2127109375,-0.0023646638728678226,-0.001071952749043703,-0.004427895415574312
1782661631122782000,0.222781982421875,0.0010793361579999328,-0.0010162927210330963,0.00048590294318273664
1782661631132853000,0.23285302734375,-0.000798924476839602,0.0009347177110612392,-0.000343315361533314
1782661631142925000,0.242925048828125,-0.002586970804259181,-0.0009119182359427214,0.0004811993567273021
1782661631152996000,0.25299609375,-0.0028049598913639784,-0.004693579860031605,0.0004527660203166306
1782661631163067100,0.263067138671875,-0.0007079869392327964,-0.0024642476346343756,0.000007219146937131882
1782661631173138000,0.273137939453125,-0.0017535907682031393,-0.004643535241484642,-0.0010257430840283632
1782661631183209000,0.283208984375,-0.0029088701121509075,-0.002474656794220209,0.002529576886445284
1782661631193280000,0.293280029296875,-0.0029936053324490786,-0.007029786705970764,0.003858222160488367
1782661631203352000,0.30335205078125,-0.003227430861443281,-0.00594987440854311,0.0028539439663290977
1782661631213423000,0.313423095703125,-0.004462513141334057,-0.008249657228589058,0.003069936763495207
1782661631223494100,0.323494140625,-0.005952018778771162,-0.009016647934913635,0.004431610926985741
1782661631233565200,0.333565185546875,-0.005178223364055157,-0.009245457127690315,0.0032502301037311554
1782661631243636000,0.343635986328125,-0.008001440204679966,-0.009527752175927162,0.003335184883326292
1782661631253707000,0.35370703125,-0.006676563993096352,-0.01068735308945179,0.004662765190005302
1782661631263778800,0.36377880859375,-0.004172393586486578,-0.011393889784812927,-0.0007485118694603443
1782661631273849900,0.373849853515625,-0.005279276520013809,-0.007468902971595526,0.0011801514774560928
1782661631283921000,0.3839208984375,-0.00698689604178071,-0.009950703009963036,0.0036518312990665436
1782661631293992000,0.393991943359375,-0.006621537730097771,-0.007335393689572811,0.0021639293991029263
1782661631304063000,0.40406298828125,-0.003624682081863284,-0.009445416741073132,-0.0005245317588560283
1782661631314135000,0.414135009765625,-0.0030254200100898743,-0.005106915254145861,-0.0030560018494725227
1782661631324206000,0.4242060546875,-0.0017529618926346302,-0.00619934406131506,0.001161646330729127
1782661631334276900,0.43427685546875,-0.0031605386175215244,-0.0014645201154053211,0.000262562301941216
1782661631344348000,0.444347900390625,-0.000628405308816582,-0.0050896150059998035,-0.0009196149185299873
1782661631354419000,0.4544189453125,-0.003731327597051859,-0.0018493258394300938,-0.0039939661510288715
1782661631364490000,0.464489990234375,-0.0028317118994891644,-0.001879419432953,-0.0019441312178969383
1782661631374562000,0.47456201171875,-0.000017823302187025547,-0.004077732563018799,-0.004089301452040672
1782661631384633000,0.484633056640625,-0.0022793796379119158,-0.0032982255797833204,-0.005391853861510754
1782661631394704100,0.4947041015625,-0.0007338403374888003,-0.0035349386744201183,-0.00039098586421459913
1782661631404775000,0.50477490234375,-0.003356521250680089,-0.0032276096753776073,-0.0019310920033603907
1782661631414846000,0.514845947265625,-0.02045549266040325,0.003348571015521884,-0.0007837974699214101
1782661631424918000,0.52491796875,-0.05692588537931442,0.005701473914086819,0.01816565729677677
1782661631434989000,0.534989013671875,-0.032145462930202484,-0.036907535046339035,0.03140875697135925
1782661631445060000,0.54506005859375,-0.038108546286821365,-0.0042316121980547905,-0.007978863082826138
1782661631455131100,0.555131103515625,-0.029026128351688385,0.049220237880945206,0.018281245604157448
1782661631465202200,0.5652021484375,0.029506955295801163,-0.005345800891518593,-0.02099984884262085
1782661631475273000,0.57527294921875,0.017196420580148697,0.04492910951375961,-0.03724353387951851
1782661631485344800,0.5853447265625,0.03658183664083481,0.03614147752523422,0.00022927526151761413
1782661631495415800,0.595415771484375,0.030750317499041557,0.020470794290304184,-0.02331787347793579
1782661631505486800,0.60548681640625,0.024676978588104248,0.010409638285636902,-0.04084120690822601
1782661631515558000,0.615557861328125,-0.001214929623529315,0.04087680205702782,-0.0014304100768640637
1782661631525629000,0.62562890625,0.017669811844825745,-0.038974884897470474,-0.002061845501884818
1782661631535701000,0.635700927734375,0.01871761865913868,-0.023364728316664696,-0.0015965879429131746
1782661631545772000,0.64577197265625,0.0167362280189991,-0.010813514702022076,-0.0004450371488928795
1782661631555843000,0.655843017578125,0.024729805067181587,-0.018073393031954765,-0.030138228088617325
1782661631565914000,0.6659140625,0.024244843050837517,-0.007552573923021555,-0.012860437855124474
1782661631575985200,0.675985107421875,0.01743457280099392,-0.01676291413605213,-0.0005339820636436343
1782661631586056000,0.686055908203125,-0.02077166736125946,-0.008576623164117336,0.0127719696611166
1782661631596128000,0.6961279296875,-0.037686992436647415,-0.03881864622235298,0.013574628159403801
1782661631606199000,0.706198974609375,-0.03128794580698013,-0.026980893686413765,0.0288502536714077
1782661631616270000,0.71627001953125,-0.03295140713453293,-0.01122452225536108,0.02863907255232334
1782661631626341000,0.726341064453125,0.005429537035524845,-0.041863925755023956,0.014826586470007896
1782661631636412200,0.736412109375,-0.006463005673140287,-0.01849539205431938,0.010543964803218842
1782661631646483200,0.746483154296875,-0.0009425392490811646,-0.01596512272953987,0.01698002591729164
1782661631656555300,0.75655517578125,-0.029868610203266144,-0.03745492547750473,0.02304830774664879
1782661631666626000,0.7666259765625,-0.02377929352223873,-0.004864490125328302,0.007123935967683792
1782661631676697000,0.776697021484375,-0.015580140985548496,-0.02256159856915474,0.03173153102397919
1782661631686768000,0.78676806640625,0.006267900113016367,0.015066203661262989,-0.001782217645086348
1782661631696839200,0.796839111328125,0.00996378529816866,-0.016522031277418137,-0.0013816733844578266
1782661631706911000,0.806910888671875,0.007697168737649918,0.013071545399725437,-0.002613651566207409
1782661631716982000,0.81698193359375,-0.009542708285152912,0.007719933986663818,0.0022077360190451145
1782661631727053000,0.827052978515625,0.011417434550821781,0.011951164342463017,-0.00046234927140176296
1782661631737123800,0.837123779296875,0.013250534422695637,0.019947903230786324,-0.008989520370960236
1782661631747195000,0.84719482421875,0.022966809570789337,0.01716410182416439,-0.006612915545701981
1782661631757266000,0.857265869140625,0.013721918687224388,0.025850683450698853,-0.012570681981742382
1782661631767338000,0.867337890625,0.009702942334115505,0.02558916062116623,-0.007114664185792208
1782661631777409000,0.877408935546875,0.00870192889124155,0.02379002422094345,-0.011136029846966267
1782661631787480000,0.88747998046875,0.017706608399748802,0.028448957949876785,-0.011061727069318295
1782661631797551000,0.897551025390625,0.020847834646701813,0.03342472389340401,-0.01198132336139679
1782661631807622100,0.9076220703125,0.0242079459130764,0.03145904466509819,-0.01662294752895832
1782661631817694200,0.917694091796875,0.01713462918996811,0.028542540967464447,-0.013241787441074848
1782661631827765000,0.927764892578125,0.012643206864595413,0.027127070352435112,-0.01078129280358553
1782661631837836000,0.9378359375,0.016890496015548706,0.01585935428738594,-0.006123431026935577
1782661631847907000,0.947906982421875,-0.03572797402739525,0.06200287863612175,-0.0055521829053759575
1782661631857978000,0.95797802734375,0.02744598127901554,-0.06465326249599457,0.009046205319464207
1782661631868049200,0.968049072265625,0.0004961228696629405,-0.03181542456150055,0.01649187132716179
1782661631878121200,0.978121337890625,-0.00550383934751153,0.005740821827203035,-0.00017818316700868309
1782661631888192300,0.988192138671875,0.005095275584608316,-0.02204979583621025,-0.010562647134065628
1782661631898263000,0.998262939453125,-0.008726692758500576,0.009606282226741314,0.0013696415117010474
1782661631908334000,1.008333984375,0.0039520845748484135,0.0055553484708070755,0.003292710054665804
1782661631918405000,1.018405029296875,0.006661561783403158,0.008735131472349167,-0.008323733694851398
1782661631928476200,1.02847607421875,0.010843522846698761,0.011012133210897446,-0.00458971643820405
1782661631938548000,1.0385478515625,-0.015395610593259335,0.024108247831463814,-0.002338011981919408
1782661631948619000,1.048618896484375,0.012873045168817043,-0.033697791397571564,0.005428831093013287
1782661631958690000,1.05868994140625,-0.0176544152200222,0.0023823219817131758,0.00543123297393322
1782661631968761000,1.068760986328125,0.008187035098671913,-0.014233139343559742,0.0036016416270285845
1782661631978832100,1.07883203125,-0.005293396767228842,0.0009079225128516555,-0.0051393876783549786
1782661631988904000,1.088904052734375,0.004309962037950754,-0.004870604258030653,-0.00010548054706305265
1782661631998975000,1.09897509765625,-0.0034962957724928856,0.006525062024593353,0.00004418910248205066
1782661632009046000,1.1090458984375,0.004815962631255388,0.0038358017336577177,-0.003480238141492009
1782661632019117000,1.119116943359375,0.0011385639663785696,0.012390799820423126,-0.0012812638888135552
1782661632029188000,1.12918798828125,-0.009499698877334595,0.02156006172299385,-0.002267965115606785
1782661632039259100,1.139259033203125,0.009470715187489986,-0.015910876914858818,0.0012708312133327127
1782661632049331200,1.149331298828125,-0.0008748673717491329,-0.010673771612346172,0.0056317574344575405
1782661632059402000,1.159402099609375,-0.003616670612245798,-0.001411424484103918,0.007383860647678375
1782661632069473000,1.16947314453125,0.000019875820726156235,0.00044799456372857094,0.0017656565178185701
1782661632079544000,1.1795439453125,0.0014333630679175258,-0.00020399258937686682,0.00045244948705658317
1782661632089615000,1.189614990234375,-0.005447979085147381,0.012604480609297752,-0.004342838190495968
1782661632099686100,1.19968603515625,0.003345443867146969,-0.006915518082678318,-0.0006450468208640814
1782661632109758200,1.20975830078125,0.0019368981011211872,-0.005821491591632366,0.0031936336308717728
1782661632119829200,1.219829345703125,0.0013283725129440427,-0.003066160250455141,0.0023353088181465864
1782661632129900000,1.229900146484375,0.0006183737423270941,0.00006118963938206434,-0.0017888625152409077
1782661632139971000,1.23997119140625,-0.001084707211703062,0.004042475018650293,-0.005165752489119768
1782661632150042000,1.2500419921875,0.00006764248246327043,-0.0012731945607811213,-0.00042612472316250205
1782661632160114200,1.2601142578125,-0.0009716501808725297,-0.0035623605363070965,0.0018543419428169727
1782661632170185200,1.270185302734375,0.0008909646421670914,-0.0022773854434490204,-0.0009515646379441023
1782661632180256300,1.28025634765625,0.000508321390952915,0.0011191474040970206,-0.0014695505378767848
1782661632190327000,1.2903271484375,0.0003157748142257333,-0.0009392097126692533,-0.0010242699645459652
1782661632200398000,1.300398193359375,-0.0003781490377150476,-0.00065583735704422,-0.002099121455103159
1782661632210469000,1.31046923828125,0.00046554041909985244,-0.0018012628424912691,-0.0008519631810486317
1782661632220541000,1.320541015625,0.0011015032650902867,0.0009828056208789349,0.001090280245989561
1782661632230612000,1.330612060546875,0.00083145871758461,-0.0015261583030223846,0.00019625702407211065
1782661632240683000,1.34068310546875,0.001329544116742909,0.0008104750886559486,-0.0007212026393972337
1782661632250754000,1.350754150390625,-0.0016950077842921019,0.00036652619019150734,0.0016362275928258896
1782661632260825000,1.3608251953125,-0.0015532635152339935,-0.0006150002591311932,-0.0011265343055129051
1782661632270896000,1.370896240234375,0.0006670138100162148,0.0009823637083172798,-0.00020960788242518902
1782661632280968200,1.38096826171875,-0.001239917939528823,0.001997909042984247,-0.001571020344272256
1782661632291039000,1.3910390625,0.002342033665627241,0.00009508035145699978,-0.002930564107373357
1782661632301110000,1.401110107421875,-0.0015917513519525528,-0.0009040439035743475,-0.0006540903123095632
1782661632311181000,1.41118115234375,0.0006935070268809795,0.0004035681486129761,-0.002648797817528248
1782661632321252000,1.421252197265625,0.0020182374864816666,0.0008480256656184793,0.00045538193080574274
1782661632331323100,1.4313232421875,0.00035482714883983135,-0.00023774511646479368,0.00064926000777632
1782661632341395200,1.441395263671875,-0.0010735003743320704,-0.0006369289476424456,-0.0013182826805859804
1782661632351466200,1.45146630859375,0.0011670170351862907,-0.0016262931749224663,-0.0002703287755139172
1782661632361537000,1.461537109375,0.0009901089360937476,-0.000603347783908248,-0.0004056168836541474
1782661632371608000,1.471608154296875,0.0012684091925621033,-0.000056334538385272026,-0.0021025831811130047
1782661632381679000,1.48167919921875,-0.0007996237254701555,-0.0016077666077762842,0.00021702470257878304
1782661632391750100,1.491750244140625,-0.00019402086036279798,-0.00014222902245819569,0.0007041168864816427
1782661632401822200,1.501822265625,0.002199417445808649,0.000689722946844995,0.0009810910560190678
1782661632411893200,1.511893310546875,0.000542132300324738,-0.0009353379718959332,-0.002962517784908414
1782661632421964300,1.52196435546875,0.0009830767521634698,-0.00015180744230747223,0.0023145354352891445
1782661632432035000,1.53203515625,-0.0013695599045604467,-0.0012136097066104412,-0.0008210705127567053
1782661632442106000,1.542106201171875,0.0009621240315027535,-0.0028681375551968813,0.00008520286064594984
1782661632452177200,1.55217724609375,-0.0006355062942020595,-0.0005884715355932713,0.0007011920679360628
1782661632462249000,1.5622490234375,0.0009459004504606128,-0.0005165287293493748,0.0013075945898890495
1782661632472320000,1.572320068359375,0.00036186922807246447,-0.001945048337802291,0.0005869432352483273
1782661632482391000,1.58239111328125,-0.0005011871107853949,0.00012127310037612915,-0.001019475981593132
1782661632492462000,1.592462158203125,-0.0013414144050329924,0.0011034468188881874,-0.002959588775411248
1782661632502533000,1.602533203125,-0.0013905444648116827,-0.004671793431043625,0.0016317017143592238
1782661632512605200,1.612605224609375,-0.0014997341204434633,-0.0009707985445857048,-0.0007816548459231853
1782661632522676200,1.62267626953125,-0.0005154720856808126,0.0006930661620572209,0.0004183649434708059
1782661632532747300,1.632747314453125,-0.0018164264038205147,-0.0007234693039208651,0.0018865657038986683
1782661632542818300,1.642818359375,-0.0017711000982671976,-0.0009882482700049877,0.000699593045283109
1782661632552889000,1.65288916015625,-0.0000802590511739254,-0.00039010215550661087,-0.0010264016455039382
1782661632562960100,1.662960205078125,-0.0017488563898950815,0.0013615450588986278,-0.0014378579799085855
1782661632573032200,1.6730322265625,-0.0014505824074149132,-0.0002755001187324524,0.0005280874902382493
1782661632583103200,1.683103271484375,0.0021307282149791718,-0.0017638045828789473,0.0012617874890565872
1782661632593174300,1.69317431640625,-0.0007529425784014165,0.0006250508595257998,-0.000958489952608943
1782661632603245300,1.703245361328125,-0.00022097985493019223,-0.0018437961116433144,-0.000431182881584391
1782661632613316400,1.71331640625,-0.0016441729385405779,0.00039911805652081966,-0.0007097495254129171
1782661632623387100,1.72338720703125,0.0013587531866505742,0.001949945231899619,0.000079344492405653
1782661632633459200,1.733459228515625,-0.0027134863194078207,-0.0002801858354359865,0.0004013206926174462
1782661632643530200,1.7435302734375,-0.0027466053143143654,0.00197176868095994,-0.0026730322279036045
1782661632653601300,1.753601318359375,0.001128294039517641,-0.0006285416893661022,0.0022008188534528017
1782661632663672300,1.76367236328125,-0.001422300236299634,0.002183334669098258,-0.0023430678993463516
1782661632673743400,1.773743408203125,-0.0012137745507061481,-0.0019480271730571985,0.0015648547559976578
1782661632683814400,1.783814453125,-0.001162918983027339,-0.002305548172444105,-0.00042905256850644946
1782661632693885400,1.793885498046875,-0.0017208512872457504,-0.00005517702084034681,-0.0010240027913823724
1782661632703957200,1.803957275390625,0.0013615530915558338,-0.0008921888656914234,0.0017071180045604706
1782661632714028000,1.814028076171875,-0.0006035934202373028,0.00044578337110579014,0.000601906212978065
1782661632724099000,1.82409912109375,0.00024409993784502149,-0.0023865331895649433,0.0035250158980488777
1782661632734170000,1.834170166015625,-0.0008683024207130075,-0.0004677257966250181,0.002162809018045664
1782661632744241200,1.8442412109375,-0.00022493640426546335,0.0002495289081707597,0.0011374924797564745
1782661632754313200,1.854313232421875,0.001052315579727292,0.0030346629209816456,-0.0005706590600311756
1782661632764384300,1.86438427734375,-0.00037416908890008926,0.003020801115781069,0.0008458763477392495
1782661632774455300,1.874455322265625,-0.00009933090768754482,0.0002878651721403003,0.0010512061417102814
1782661632784526000,1.884526123046875,5.790498107671738e-7,-0.003916917368769646,-0.002389865228906274
1782661632794597000,1.89459716796875,-0.0000020841252990067005,0.0006373543292284012,0.002095430623739958
1782661632804668200,1.904668212890625,0.0002379746874794364,-0.0012368466705083847,0.002256019739434123
1782661632814739200,1.9147392578125,-0.0027282540686428547,-0.00047891098074615,0.001203538617119193
1782661632824811300,1.924811279296875,-0.0013408756349235773,-0.001858868869021535,0.0022288556210696697
1782661632834882300,1.93488232421875,-0.0025496846064925194,-0.00036936276592314243,0.00007968471618369222
1782661632844953300,1.944953369140625,0.0001103958347812295,-0.0020103147253394127,-0.0012174323201179504
1782661632855024000,1.955024169921875,0.00007577473297715187,-0.0037701316177845,0.0009304070263169706
1782661632865095200,1.96509521484375,-0.0005693868733942509,-0.002598350401967764,-0.002371917711570859
1782661632875167200,1.975167236328125,-0.0006865658797323704,0.0006453797686845064,0.0006821954157203436
1782661632885238300,1.98523828125,0.0007073061424307525,0.00021237251348793507,0.0002526326570659876
1782661632895309300,1.995309326171875,-0.002485557459294796,-0.0007836498552933335,0.0014420005027204752
1782661632905380400,2.00538037109375,0.003221317194402218,0.0033129770308732986,0.001438802806660533
1782661632915451400,2.015451416015625,-0.0011055207578465343,0.006852318067103624,0.0037528234533965588
1782661632925522200,2.025522216796875,0.0015336850192397833,0.0028760661371052265,-0.004201238043606281
1782661632935594200,2.03559423828125,-0.001781151513569057,0.002568737370893359,-0.00015962467296049
1782661632945665000,2.0456650390625,-0.00020212156232446432,0.0010904972441494465,-0.0009926618076860905
1782661632955736000,2.055736083984375,-0.0002266226802021265,0.0003746395232155919,0.00035250093787908554
1782661632965807000,2.06580712890625,-0.00012823590077459812,0.0029092268086969852,-0.0009465902112424374
1782661632975878100,2.075878173828125,-0.0020923172123730183,0.0013283744920045137,-0.0000720081152394414
1782661632985949200,2.08594921875,-0.0012628382537513971,-0.000902836094610393,0.00006700929952785373
1782661632996020200,2.096020263671875,-0.0007451197598129511,-0.00026474264450371265,0.0015629068948328495
1782661633006092300,2.10609228515625,0.0007580021629109979,0.000060585327446460724,0.001626824028789997
1782661633016163000,2.1161630859375,-0.0005826331907883286,0.0004725763574242592,0.0011455907952040434
1782661633026234000,2.126234130859375,0.000742468808311969,0.002013335470110178,-0.0002629590453580022
1782661633036305200,2.13630517578125,-0.0018320089438930154,-0.0015409194165840745,-0.00008399461512453854
1782661633046376200,2.146376220703125,-0.0013715362874791026,-0.001887490157969296,-0.001688012620434165
1782661633056448300,2.1564482421875,-0.0017310631228610873,0.00013917544856667519,-0.0011777509935200214
1782661633066519300,2.166519287109375,-0.0016334851970896125,0.002004592679440975,-0.000184926379006356
1782661633076590300,2.17659033203125,-0.0016156419878825545,0.00012173783034086227,-0.00043659511720761657
1782661633086661000,2.1866611328125,-0.0017345043597742915,0.0007983485120348632,-0.0007095676846802235
1782661633096732200,2.196732177734375,-0.0012793702771887183,0.00041352177504450083,0.0010047090472653508
1782661633106803200,2.20680322265625,0.0007997595821507275,-0.0023305993527173996,0.00028139451751485467
1782661633116875300,2.216875244140625,-0.001370450365357101,0.00034241529647260904,-0.0008403289248235524
1782661633126946300,2.2269462890625,-0.00003921444294974208,-0.0019393929978832603,-0.0013007973320782185
1782661633137017300,2.237017333984375,0.0012335102073848248,-0.0018392581259831786,-0.0026033492758870125
1782661633147088400,2.24708837890625,-0.0012539951130747795,-0.0015625710366293788,0.00025502959033474326
1782661633157159200,2.2571591796875,0.00018118234584107995,-0.0006320626707747579,0.0019695726223289967
1782661633167230200,2.267230224609375,0.0002372792223468423,-0.0011388756101951003,-0.0017340853810310364
1782661633177302000,2.277302001953125,0.00035978463711217046,0.0016097730258479714,0.00005369464633986354
1782661633187373000,2.287373046875,-0.002755177905783057,-0.0008024206617847085,-0.0004741454613395035
1782661633197444000,2.297444091796875,-0.0009684632532298565,-0.0008429005974903703,-0.00012607028475031257
1782661633207515100,2.30751513671875,-0.0015831411583349109,0.002915043383836746,-0.0006238141213543713
1782661633217586200,2.317586181640625,0.0007162320544011891,0.0019661590922623873,-0.0011713600251823664
1782661633227657200,2.3276572265625,0.00020150310592725873,-0.0021360409446060658,-0.0004648274043574929
1782661633237729300,2.337729248046875,-0.0001630836632102728,0.00013137422502040863,-0.00045177791616879404
1782661633247800000,2.347800048828125,-0.00035795150324702263,-0.001409295597113669,-0.0001516384945716709
1782661633257871000,2.35787109375,-0.0006796614034101367,-0.0012774689821526408,-0.0011971956118941307
1782661633267942100,2.367942138671875,-0.0036047822795808315,0.00033775356132537127,-0.00206591933965683
1782661633278013200,2.37801318359375,-0.0004803615156561136,0.0010432249400764704,0.0009591653943061829
1782661633288084200,2.388084228515625,-0.0017172357765957713,-0.0024902033619582653,-0.0023719125892966986
1782661633298156300,2.39815625,-0.0017491936450824142,-0.002595664467662573,-0.0019450078252702951
1782661633308227300,2.408227294921875,0.0004294637474231422,-0.0023490292951464653,-0.003143696580082178
1782661633318298000,2.418298095703125,-0.00015936116687953472,0.0030302898958325386,-0.0022129216231405735
1782661633328369200,2.428369140625,-0.0009377284441143274,-0.002057439647614956,-0.002638761419802904
1782661633338440200,2.438440185546875,-0.0005723427748307586,0.0009561933693476021,-0.0007354000699706376
1782661633348511200,2.44851123046875,0.0007440995541401207,0.0009594697621650994,0.0011644987389445305
1782661633358583300,2.458583251953125,0.003225100226700306,-0.003982824739068747,-0.0001308628125116229
1782661633368654300,2.468654296875,-0.00023750867694616318,0.0002565555041655898,0.0005146873882040381
1782661633378725400,2.478725341796875,-0.00029157090466469526,0.0016003865748643875,-0.0012832125648856163
1782661633388796200,2.488796142578125,0.0014997133985161781,-0.003049680031836033,0.0019549252465367317
1782661633398867200,2.4988671875,0.0005966354510746896,-0.0013290118658915162,0.0014744909713044763
1782661633408938200,2.508938232421875,0.002199208829551935,-0.0024819476529955864,-0.000850182375870645
1782661633419010000,2.519010009765625,0.0023912228643894196,0.0004107779823243618,-0.0011447279248386621
1782661633429081000,2.5290810546875,-0.0005675280699506402,-0.003509887959808111,0.00214108033105731
1782661633439152000,2.539152099609375,-0.0018610254628583789,-0.0031543560326099396,0.0019543927628546953
1782661633449223200,2.54922314453125,-0.0021393164061009884,0.0001804741332307458,-0.0006581804482266307
1782661633459294200,2.559294189453125,-0.0001643159775994718,0.0007695653475821018,-0.0007599132368341088
1782661633469365000,2.569364990234375,0.0031948373652994633,-0.0022913420107215643,0.0009200096828863025
1782661633479437000,2.57943701171875,-0.000010277086403220892,-0.003897228045389056,-0.00166352279484272
1782661633489508000,2.589508056640625,-0.00232140114530921,-0.0003449958749115467,0.0008278640452772379
1782661633499579100,2.5995791015625,-0.0023347169626504183,-0.0006986635271459818,-0.003028126899152994
1782661633509650000,2.60964990234375,0.0013205466093495488,-0.00027658080216497183,0.001888601458631456
1782661633519720700,2.619720703125,-0.0002837415668182075,-0.001779136247932911,0.003106465097516775
1782661633529791700,2.629791748046875,0.002216533524915576,0.001038712915033102,-0.0006754974601790309
1782661633539862800,2.63986279296875,0.000039399368688464165,-0.004196262918412685,-0.0004797551082447171
1782661633549934800,2.649934814453125,-0.0014012833125889301,-0.0018936224514618516,-0.00042320412467233837
1782661633560006000,2.660005859375,-0.0024468405172228813,-0.000032871728762984276,-0.0010533080203458667
1782661633570077000,2.670076904296875,0.0014280988834798336,-0.0012061498127877712,0.0009057854185812175
1782661633580148000,2.68014794921875,0.000881884538102895,-0.0013278562109917402,0.0007571810274384916
1782661633590218800,2.69021875,0.00038851017598062754,0.0007921440992504358,-0.000829527445603162
1782661633600290800,2.700290771484375,-0.001910064136609435,-0.0017466472927480936,0.0005758226616308093
1782661633610361900,2.71036181640625,-0.000783200201112777,-0.002659175079315901,-0.00026974797947332263
1782661633620433000,2.720432861328125,0.0003518390585668385,-0.0014812592417001724,0.0019318872364237905
1782661633630504000,2.73050390625,0.0008702432969585061,-0.0014475060161203146,0.0014850135194137692
1782661633640575000,2.740574951171875,-0.0002701222547329962,-0.0019148909486830235,0.00294469203799963
1782661633650646000,2.75064599609375,0.00009109213715419173,-0.0025169318541884422,-0.0003229180001653731
1782661633660716800,2.760716796875,0.00022371753584593534,0.000292436801828444,0.000932762399315834
1782661633670788900,2.770788818359375,-0.000040638435166329145,-0.0001768016954883933,0.0011679788585752249
1782661633680860000,2.78085986328125,0.0011785567039623857,-0.0008234173292294145,-0.0005612116656266153
1782661633690931000,2.790930908203125,0.0023988422472029924,0.001374139916151762,0.0020159739069640636
1782661633701002000,2.801001953125,-0.0009673934546299279,-0.001389954937621951,0.00034404121106490493
1782661633711073000,2.811072998046875,-0.001523300539702177,-0.001123629743233323,-0.001553970156237483
1782661633721144000,2.82114404296875,0.001174481469206512,-0.0017207106575369835,0.0009603202342987061
1782661633731216000,2.8312158203125,0.0014036446809768677,-0.0023419575300067663,-0.00004815010470338166
1782661633741287000,2.841286865234375,0.0002345170360058546,-0.0009776202496141195,0.00045438838424161077
1782661633751357700,2.851357666015625,0.0004224420990794897,-0.0004519715439528227,-0.0005413775215856731
1782661633761428700,2.8614287109375,-0.0010231216438114643,-0.0013196293730288744,0.00019551912555471063
1782661633771499800,2.871499755859375,-0.000906647474039346,-0.0013081184588372707,0.0002831471501849592
1782661633781570800,2.88157080078125,0.002168770879507065,0.00156117114238441,-0.002078011631965637
1782661633791643000,2.891642822265625,0.00099385145585984,-0.0012763958657160401,-0.0009184000082314014
1782661633801714000,2.9017138671875,0.000175994704477489,-0.0004878338659182191,-0.0009362432174384594
1782661633811785000,2.911784912109375,-0.0009285329724662006,-0.0019301644060760736,-0.0005254828138276935
1782661633821855700,2.921855712890625,0.0006280846428126097,0.001135932863689959,-0.0005310754058882594
1782661633831926800,2.9319267578125,0.0023178448900580406,0.00008982012514024973,-0.0002593318640720099
1782661633841997800,2.941997802734375,0.001515434356406331,-0.0014225890627130866,-0.001814085291698575
1782661633852070000,2.95206982421875,0.003441776614636183,-0.003588272025808692,0.0011173461098223925
1782661633862141000,2.962140869140625,0.0012864804593846202,-0.001871332060545683,0.0007780595333315432
1782661633872212000,2.9722119140625,-0.0013922638026997447,-0.002489278791472316,0.002355538308620453
1782661633882283000,2.982282958984375,-0.00007293373346328735,-0.0012684855610132217,0.00040903384797275066
1782661633892353800,2.992353759765625,-0.0007194685749709606,-0.0004993821494281292,-0.0001546737621538341
1782661633902424800,3.0024248046875,0.000998536590486765,0.00011873745825141668,0.0013460174668580294
1782661633912497000,3.012496826171875,-0.0002038290840573609,-0.002076455857604742,-0.0006781595875509083
1782661633922568000,3.02256787109375,0.00020496611250564456,0.0005749872652813792,-0.0008075892110355198
1782661633932639000,3.032638916015625,0.0008187690400518477,0.0009995701257139444,-0.0007327568018808961
1782661633942710000,3.0427099609375,-0.0001868405961431563,-0.0006441328441724181,-0.0019247877644374967
1782661633952781000,3.052781005859375,0.000840777822304517,-0.0006524041527882218,-0.000655790907330811
1782661633962851800,3.062851806640625,0.000903362117242068,-0.0010646615410223603,-0.000729826744645834
1782661633972923600,3.072923583984375,0.0015338833909481764,0.000497222994454205,0.0014401187654584646
1782661633982994700,3.08299462890625,0.0020409494172781706,-0.0015480847796425223,0.0008086832240223885
1782661633993065700,3.093065673828125,0.0009142810595221817,-0.0017504253191873431,0.00014049425953999162
1782661634003136800,3.10313671875,-0.00024073192616924644,0.0011356421746313572,0.0001649953774176538
1782661634013207800,3.113207763671875,-0.0023671016097068787,-0.0024483688175678253,0.0013028034009039402
1782661634023278800,3.12327880859375,-0.0017114310758188367,-0.0016741877188906074,-0.0017246780917048454
1782661634033350000,3.133349853515625,-0.00196525058709085,0.0025676509831100702,-0.0023862060625106096
1782661634043422000,3.143421875,-0.0023213152308017015,0.003781519830226898,-0.0006381071289069951
1782661634053492700,3.15349267578125,-0.00782692339271307,0.0016105846734717488,0.00009878724813461304
1782661634063563800,3.163563720703125,-0.005605847574770451,-0.002596410922706127,0.0009933430701494217
1782661634073634800,3.173634765625,-0.0020254934206604958,0.003857760224491358,0.0012055969564244151
1782661634083705900,3.183705810546875,0.0029130722396075726,0.00044891389552503824,-0.0002929637557826936
1782661634093777000,3.19377685546875,0.004813368432223797,-0.0017717318842187524,-0.004519131034612656
1782661634103849000,3.203848876953125,0.013498203828930855,-0.0008819698123261333,-0.0045817154459655285
1782661634113920000,3.213919921875,0.012182069011032581,-0.005013598129153252,-0.006959385704249144
1782661634123990800,3.22399072265625,0.0032266569323837757,-0.003524092026054859,-0.0028261595871299505
1782661634134061800,3.234061767578125,-0.007024307735264301,0.00048074149526655674,0.0027680769562721252
1782661634144132900,3.2441328125,-0.0028045286890119314,-0.002938224468380213,0.006101822014898062
1782661634154204000,3.254203857421875,-0.0004913070006296039,0.008837474510073662,0.00030065811006352305
1782661634164276000,3.26427587890625,0.006842506118118763,-0.007302346173673868,-0.0008258590241894126
1782661634174347000,3.274346923828125,-0.0029095676727592945,0.0026859845966100693,-0.0003257021016906947
1782661634184418000,3.28441796875,-0.002738592680543661,-0.0024643023498356342,0.002825083676725626
1782661634194488800,3.29448876953125,-0.007305154576897621,0.009378951974213123,-0.00036564667243510485
1782661634204560000,3.304559814453125,0.00903280545026064,-0.0042620254680514336,-0.0012396960519254208
1782661634214631000,3.314630859375,-0.0025871540419757366,0.007606425788253546,-0.0005824302788823843
1782661634224702700,3.32470263671875,0.004632941912859678,-0.013278083875775337,0.0014708669623360038
1782661634234773800,3.334773681640625,-0.007700023241341114,0.0025720964185893536,0.0013163986150175333
1782661634244844800,3.3448447265625,-0.00021840480621904135,-0.000026349793188273907,0.0000711043830960989
1782661634254915800,3.354915771484375,-0.0004376779543235898,0.002539323642849922,-0.0017595515819266438
1782661634264987000,3.36498681640625,0.003811129368841648,-0.004786500241607428,-0.0034450660459697247
1782661634275058000,3.375057861328125,0.0010448450921103358,-0.0023192204535007477,-0.002196038141846657
1782661634285129700,3.385129638671875,0.0011186145711690187,-0.004087293054908514,-0.000038877566112205386
1782661634295200800,3.39520068359375,0.0020135119557380676,-0.002056395635008812,0.0019430476240813732
1782661634305271800,3.405271728515625,0.0015914009418338537,0.006295277737081051,0.002466358710080385
1782661634315342800,3.4153427734375,-0.001901123789139092,-0.0005947790341451764,-0.0018703349633142352
1782661634325414000,3.425413818359375,-0.00930444523692131,0.0003628936829045415,0.0017723367782309651
1782661634335485000,3.43548486328125,-0.02391342632472515,0.010196276009082794,0.0062728151679039
1782661634345555700,3.4455556640625,-0.017420107498764992,0.004671015776693821,0.00849495641887188
1782661634355627800,3.455627685546875,-0.01608222723007202,0.003937781788408756,-0.0034647753927856684
1782661634365698800,3.46569873046875,0.0003441500593908131,-0.004038119222968817,-0.0022727446630597115
1782661634375769900,3.475769775390625,-0.001652766251936555,0.002461138879880309,0.0005749814445152879
1782661634385841000,3.4858408203125,0.010531729087233543,-0.003906745929270983,-0.0052373674698174
1782661634395912000,3.495911865234375,0.012024926021695137,-0.003171591553837061,-0.003917509224265814
1782661634405983000,3.50598291015625,0.015234568156301975,-0.005270961206406355,-0.003380616195499897
1782661634416055000,3.516054931640625,0.015529757365584373,-0.007274074945598841,-0.004754003137350082
1782661634426125800,3.526125732421875,0.02326677367091179,-0.007406967226415873,-0.003980887588113546
1782661634436196900,3.53619677734375,0.0032433392480015755,-0.0030287583358585835,0.005579860880970955
1782661634446268000,3.546267822265625,-0.010339846834540367,-0.014191931113600731,0.0030943327583372593
1782661634456339000,3.5563388671875,-0.016694245859980583,-0.0024695084430277348,0.004280771594494581
1782661634466410000,3.566409912109375,-0.0031294345390051603,-0.003987510222941637,0.005038440693169832
1782661634476481800,3.576481689453125,0.0028823509346693754,-0.004059832543134689,0.00263386988081038
1782661634486552800,3.586552734375,0.004004074260592461,-0.005679300986230373,-0.006488788407295942
1782661634496623900,3.596623779296875,-0.004523367155343294,0.005741358734667301,0.002333453856408596
1782661634506695000,3.60669482421875,-0.004364376422017813,-0.0063155703246593475,0.003626684658229351
1782661634516765700,3.616765625,-0.009650600142776966,-0.004835936706513166,-0.0010660580592229962
1782661634526836700,3.626836669921875,-0.00016974739264696836,-0.001731756259687245,0.0031281542032957077
1782661634536908500,3.636908447265625,0.005036505870521069,0.003220214508473873,0.000707338098436594
1782661634546979600,3.6469794921875,0.0015392430359497666,-0.004100548569113016,-0.004399007186293602
1782661634557050600,3.657050537109375,-0.004877320025116205,-0.0008766473038122058,-0.0021379904355853796
1782661634567121700,3.66712158203125,-0.003016036469489336,0.0013825121568515897,0.00008228688966482878
1782661634577192700,3.677192626953125,0.0011049371678382158,-0.0024321535602211952,-0.0006103916093707085
1782661634587263700,3.687263671875,0.0033403944689780474,-0.002187941689044237,-0.005735645070672035
1782661634597335800,3.697335693359375,0.003371688537299633,0.006447996944189072,-0.0009368988685309887
1782661634607406600,3.707406494140625,-0.004093152470886707,-0.00633304612711072,-0.0005028035957366228
1782661634617477600,3.7174775390625,-0.007879862561821938,-0.006718308199197054,-0.0008426279528066516
1782661634627548700,3.727548583984375,-0.008594389073550701,0.002612076699733734,0.002366481116041541
1782661634637619700,3.73761962890625,-0.008200756274163723,0.0015018980484455824,0.005971343722194433
1782661634647690800,3.747690673828125,-0.005529338959604502,0.0063933259807527065,0.00006338732782751322
1782661634657762800,3.7577626953125,-0.0006187921389937401,0.002619702834635973,-0.003997403662651777
1782661634667833900,3.767833740234375,0.008693483658134937,0.0022055814042687416,-0.0005110594211146235
1782661634677904600,3.777904541015625,0.007903380319476128,0.00671685766428709,-0.006566563155502081
1782661634687975700,3.7879755859375,0.014650498516857624,0.004666490014642477,-0.009523204527795315
1782661634698046700,3.798046630859375,0.007583096623420715,0.0019932659342885017,0.00082531722728163
1782661634708117800,3.80811767578125,0.004107937682420015,-0.015760963782668114,0.0039835600182414055
1782661634718188800,3.818188720703125,-0.010909723117947578,-0.006764554418623447,0.005467739887535572
1782661634728260900,3.8282607421875,-0.006710983347147703,-0.01183148380368948,0.006036324892193079
1782661634738332000,3.838331787109375,-0.004421253688633442,-0.008193795569241047,0.006614494603127241
1782661634748402700,3.848402587890625,-0.006244719959795475,-0.017105799168348312,0.0027254801243543625
1782661634758473700,3.8584736328125,-0.010326546616852283,-0.012797336094081402,0.002387525048106909
1782661634768544800,3.868544677734375,-0.0121771777048707,-0.014315337873995304,0.004154799040406942
1782661634778615800,3.87861572265625,-0.008686516433954239,-0.01203921064734459,0.006948457565158606
1782661634788687600,3.8886875,-0.00908386055380106,-0.015280810184776783,0.003996876068413258
1782661634798758700,3.898758544921875,-0.008539585396647453,-0.01233372651040554,0.007561250124126673
1782661634808829700,3.90882958984375,-0.009169689379632473,-0.016204632818698883,0.005221130326390266
1782661634818900700,3.918900634765625,-0.008324593305587769,-0.013290896080434322,0.0046261814422905445
1782661634828971500,3.928971435546875,-0.00845535472035408,-0.01550717931240797,0.004142817575484514
1782661634839042600,3.93904248046875,-0.007960634306073189,-0.014165493659675121,0.0006357011152431369
1782661634849114600,3.949114501953125,-0.006730519700795412,-0.012484773062169552,-0.0018634091829881072
1782661634859185700,3.959185546875,-0.005934442393481731,-0.008403339423239231,-0.002322277519851923
1782661634869256700,3.969256591796875,-0.003092583268880844,-0.005461344961076975,-0.002082060556858778
1782661634879327700,3.97932763671875,-0.0012098622974008322,-0.002261666115373373,-0.003508711000904441
1782661634889398800,3.989398681640625,0.004598225466907024,-0.0001809387467801571,-0.007337271235883236
1782661634899469600,3.999469482421875,0.00479686027392745,0.005624079145491123,-0.0012831129133701324
1782661634909541600,4.009541748046875,0.005577965639531612,0.007378836162388325,-0.00571967288851738
1782661634919612700,4.01961279296875,0.008612750098109245,0.008283089846372604,-0.00629384396597743
1782661634929683700,4.02968359375,0.007646821439266205,0.011413635686039925,-0.006189714185893536
1782661634939754800,4.039754638671875,0.008716919459402561,0.013451844453811646,-0.007525026798248291
1782661634949825800,4.04982568359375,0.01060403510928154,0.01230775099247694,-0.009101351723074913
1782661634959896800,4.059896728515625,0.00864394661039114,0.010099958628416061,-0.005474939476698637
1782661634969969000,4.069968994140625,0.00717068649828434,0.010215806774795055,-0.0038173880893737078
1782661634980039700,4.080039794921875,0.004908996634185314,0.0016427494119852781,-0.004677038639783859
1782661634990110700,4.09011083984375,0.002005884423851967,0.0018068001372739673,-0.0034850076772272587
1782661635000181800,4.100181640625,-0.0008157709380611777,0.0036522261798381805,-0.0004540684458333999
1782661635010252800,4.110252685546875,-0.0030099493451416492,-0.004914896562695503,-0.0015877761179581285
1782661635020323800,4.12032373046875,-0.007012852001935244,-0.008554089814424515,0.0020287958905100822
1782661635030395000,4.130394775390625,-0.0066828858107328415,-0.010459315031766891,0.003535612253472209
1782661635040466700,4.140466796875,-0.005436393897980452,-0.011164138093590736,0.004524437244981527
1782661635050537700,4.150537841796875,-0.0070148492231965065,-0.012291987426578999,0.0028061657212674618
1782661635060608500,4.1606083984375,-0.0041203731670975685,-0.009242202155292034,0.0038701025769114494
1782661635070679600,4.170679443359375,-0.005622928496450186,-0.008988402783870697,0.004261055029928684
1782661635080750600,4.18075048828125,-0.004046110436320305,-0.004263818264007568,0.0008482049452140927
1782661635090821600,4.190821533203125,-0.0008884005947038531,-0.003329048864543438,-0.0005022840341553092
1782661635100893700,4.200893798828125,0.0004214004147797823,-0.0005975310923531651,-0.0013888443354517221
1782661635110964700,4.21096484375,0.00021021172869950533,0.003137019695714116,-0.003131883218884468
1782661635121035800,4.221035888671875,0.0015620507765561342,0.005556856747716665,-0.004161452408879995
1782661635131106600,4.2311064453125,0.004419356118887663,0.005770975258201361,-0.006338320206850767
1782661635141177600,4.241177490234375,0.0038506388664245605,0.008148489519953728,-0.006071476731449366
1782661635151248600,4.25124853515625,0.006108999717980623,0.007605737540870905,-0.0058477711863815784
1782661635161320700,4.26132080078125,0.007156915031373501,0.012512249872088432,-0.005086901597678661
1782661635171391700,4.271391845703125,0.005776332225650549,0.011498117819428444,-0.003606183920055628
1782661635181462800,4.281462890625,0.005825791507959366,0.009493055753409863,-0.002195775043219328
1782661635191533800,4.291533935546875,0.005394092760980129,0.009694124571979046,0.002588327508419752
1782661635201604600,4.3016044921875,0.004724346101284027,0.011208760552108288,0.00468423031270504
1782661635211675600,4.311675537109375,0.0035664038732647896,0.00808860082179308,0.01120711024850607
1782661635221747700,4.321747802734375,0.003197326324880123,0.008407751098275185,0.011309103108942509
1782661635231818800,4.33181884765625,0.0025507109239697456,0.004539242945611477,0.009250479750335217
1782661635241889800,4.341889892578125,-0.00003459112485870719,0.00201511662453413,-0.0038520079106092453
1782661635251960800,4.3519609375,0.0008581004804000258,-0.0016696330858394504,-0.008358876220881939
1782661635262032000,4.362031982421875,-0.0019804472103714943,-0.0037665092386305332,-0.005698366556316614
1782661635272102700,4.3721025390625,-0.003339990507811308,-0.004970258101820946,-0.0018855191301554441
1782661635282173700,4.382173583984375,-0.005695138592272997,-0.007102981209754944,-0.002323606051504612
1782661635292245500,4.39224560546875,-0.006424578372389078,-0.008085421286523342,0.0028541116043925285
1782661635302316500,4.402316650390625,-0.007878987118601799,-0.009840364567935467,0.005241099279373884
1782661635312387600,4.4123876953125,-0.0092411944642663,-0.009794025681912899,0.0072613731026649475
1782661635322458600,4.422458740234375,-0.006653952412307262,-0.01154510211199522,0.008898687548935413
1782661635332529700,4.43252978515625,-0.005153527483344078,-0.013806924223899841,0.0114603815600276
1782661635342600700,4.4426005859375,-0.008701867423951626,-0.010889509692788124,0.009650234133005142
1782661635352672800,4.4526728515625,-0.00860306341201067,-0.011325201950967312,0.008321050554513931
1782661635362743600,4.46274365234375,-0.00809440016746521,-0.010104982182383537,0.007474952843040228
1782661635372814600,4.472814697265625,-0.008726101368665695,-0.009673018008470535,0.0032975180074572563
1782661635382885600,4.4828857421875,-0.003957103006541729,-0.010047225281596184,0.0037902051117271185
1782661635392956700,4.492956787109375,-0.002015924546867609,-0.006220262497663498,0.000807464646641165
1782661635403027700,4.50302783203125,-0.005551062989979982,-0.003589506261050701,0.003000039141625166
1782661635413098800,4.5130986328125,-0.0014098474057391286,-0.002561792265623808,0.000736085930839181
1782661635423170800,4.5231708984375,0.0010352212702855468,0.0000023799948394298553,-0.00039840920362621546
1782661635433241600,4.53324169921875,0.0023462953977286816,0.0007454018923453987,0.000882571330294013
1782661635443312600,4.543312744140625,0.006582565139979124,0.00423965509980917,-0.0015742062823846936
1782661635453383700,4.5533837890625,0.0035673342645168304,0.00856995489448309,-0.0024280156940221786
1782661635463454700,4.563454833984375,0.0061481669545173645,0.011614111252129078,-0.002463961485773325
1782661635473525800,4.57352587890625,0.007255243137478828,0.012760069221258163,-0.0037715735379606485
1782661635483597800,4.583597900390625,0.008000621572136879,0.009998244233429432,-0.0040892986580729485
1782661635493668900,4.5936689453125,0.006702863611280918,0.01311467494815588,-0.007806005887687206
1782661635503739600,4.60373974609375,0.0069045997224748135,0.013036788441240788,-0.006341791246086359
1782661635513810400,4.613810546875,0.010774705559015274,0.01298938412219286,-0.006389461923390627
1782661635523881500,4.623881591796875,0.006846579723060131,0.010963622480630875,-0.0048099481500685215
1782661635533952500,4.633952392578125,0.0080143753439188,0.010511151514947414,-0.004117260221391916
1782661635544024600,4.644024658203125,0.005933399312198162,0.008217957802116871,-0.0021912665106356144
1782661635554095600,4.654095703125,0.0042090024799108505,0.006827254313975573,-0.0037968861870467663
1782661635564166700,4.664166748046875,0.00040095148142427206,0.005180913023650646,-0.0014341133646667004
1782661635574237400,4.674237548828125,-0.0006579213077202439,0.0048493496142327785,-0.00400219950824976
1782661635584308500,4.68430859375,0.0013469437835738063,-0.000843590241856873,-0.002566761802881956
1782661635594379500,4.694379638671875,-0.0017380618955940008,-0.002718189265578985,-0.0019081617938354611
1782661635604450600,4.704450439453125,-0.001290957909077406,-0.002367042936384678,-0.0009523638291284442
1782661635614522400,4.7145224609375,-0.002587650902569294,-0.0038458961062133312,0.0027022920548915863
1782661635624593400,4.724593505859375,-0.0027394872158765793,-0.004169843625277281,0.0030820672400295734
1782661635634664400,4.73466455078125,-0.0031599998474121094,-0.006341119296848774,0.0025398475117981434
1782661635644735500,4.744735595703125,-0.005258265417069197,-0.0056070201098918915,0.004157992545515299
1782661635654806300,4.75480615234375,-0.004983960185199976,-0.007033143192529678,0.003289269283413887
1782661635664877300,4.764877197265625,-0.005935431458055973,-0.008401506580412388,0.002576076425611973
1782661635674949400,4.774949462890625,-0.004464301280677319,-0.007346095982939005,0.0018090858357027173
1782661635685020400,4.7850205078125,-0.003188975155353546,-0.006743359845131636,0.004892737604677677
1782661635695091500,4.795091552734375,-0.0054811579175293446,-0.006155866663902998,0.004135600756853819
1782661635705162500,4.80516259765625,-0.006679254584014416,-0.007207107730209827,0.00032569008180871606
1782661635715233500,4.815233642578125,-0.002340965438634157,-0.004115178249776363,0.0015235799364745617
1782661635725304300,4.82530419921875,-0.004180142190307379,-0.0045433854684233665,-0.0024000401608645916
1782661635735375400,4.835375244140625,-0.0017305667279288173,-0.006941562052816153,0.0011038808152079582
1782661635745447400,4.845447509765625,-0.0035519045777618885,-0.005045952741056681,0.0014695178251713514
1782661635755518500,4.8555185546875,-0.0014314957661554217,-0.003168158233165741,0.0018950907979160547
1782661635765589500,4.865589599609375,-0.0023910924792289734,-0.0022783037275075912,-0.0007843229686841369
1782661635775660500,4.87566064453125,0.0019996613264083862,-0.0020133191719651222,-0.0006357186357490718
1782661635785731600,4.885731689453125,-0.0010015153093263507,0.00086352409562096,-0.00038033025339245796
1782661635795802400,4.89580224609375,0.00015110074309632182,0.00012582854833453894,-0.0021188417449593544
1782661635805874400,4.90587451171875,-0.0018392853671684861,0.0011089707259088755,-0.001945461262948811
1782661635815945500,4.915945556640625,-0.00003366213059052825,0.0007422534399665892,-0.001361696282401681
1782661635826016500,4.9260166015625,0.001998809166252613,0.002195643726736307,-0.0009968304075300694
1782661635836087600,4.936087646484375,0.0028869733214378357,0.002373010152950883,-0.0031089833937585354
1782661635846158600,4.94615869140625,0.0012891532387584448,0.002619317965582013,-0.00017471029423177242
1782661635856229600,4.956229736328125,0.004438341129571199,0.0013809481170028448,-0.000357935787178576
1782661635866300400,4.966300537109375,0.002636807505041361,0.0030457070097327232,-0.002079670550301671
1782661635876372500,4.97637255859375,0.004512472078204155,0.0023804495576769114,-0.000022112333681434393
1782661635886443300,4.986443359375,-0.0002750745043158531,0.0023882254026830196,-0.00022558157797902822
1782661635896514300,4.996514404296875,0.0032229875214397907,0.002624447923153639,-0.0024655661545693874
1782661635906585300,5.00658544921875,0.0015579236205667257,0.0017774092266336083,-0.00238779210485518
1782661635916656400,5.016656494140625,0.0008045153808780015,0.0004191971383988857,0.00009853497613221407
1782661635926727400,5.0267275390625,0.0021056784316897392,0.0013284838059917092,0.0009627258405089378
1782661635936798500,5.036798583984375,-0.0009484346956014633,0.0021383510902523994,-0.0018261364893987775
1782661635946870500,5.04687060546875,-0.002044916618615389,-0.0007945006946101785,-0.0022469221148639917
1782661635956941300,5.05694140625,0.0015532803954556584,0.0013565345434471965,-0.0008410393493250012
1782661635967012400,5.067012451171875,0.0003354168147780001,-0.00169092055875808,-0.00035953987389802933
1782661635977083400,5.07708349609375,-0.00012584263458848,-0.000376384356059134,0.001218649442307651
1782661635987154400,5.087154541015625,0.0010023415088653564,-0.0011005374835804105,0.0013792184181511402
1782661635997225500,5.0972255859375,0.00015758676454424858,0.00093837856547907,0.00044551410246640444
1782661636007297500,5.107297607421875,-0.0023709055967628956,0.0000033294782042503357,0.0001501929946243763
1782661636017368600,5.11736865234375,-0.0036364393308758736,-0.0013120059156790376,0.0007315611001104116
1782661636027439400,5.127439453125,0.0007736783009022474,-0.003077114000916481,-0.001622942159883678
1782661636037510400,5.137510498046875,-0.0009062436874955893,-0.00005309435073286295,0.0014098656829446554
1782661636047581400,5.14758154296875,-0.002367462031543255,-0.0021474906243383884,-0.0016908468678593636
1782661636057652500,5.157652587890625,0.0012523066252470016,-0.003093179315328598,-0.0006380992126651108
1782661636067723500,5.1677236328125,-0.0011893376940861344,-0.00022939557675272226,-0.0006793842185288668
1782661636077795600,5.177795654296875,0.00026022084057331085,-0.0016198320081457496,0.0006697732023894787
1782661636087866600,5.18786669921875,-0.0016158120706677437,-0.000988951069302857,-0.0015268230345100164
1782661636097937400,5.1979375,-0.000620855251327157,-0.0018576743314042687,0.0015826839953660965
1782661636108008400,5.208008544921875,0.0008504468714818358,0.0005250363610684872,-0.00207010586746037
1782661636118079500,5.21807958984375,0.001407047500833869,-0.0009591433918103576,0.000660965743009001
1782661636128150500,5.228150634765625,-0.0002824618713930249,0.0002515297383069992,-0.0024400190450251102
1782661636138221600,5.2382216796875,0.003400157205760479,0.00024247495457530022,0.00043433072278276086
1782661636148293400,5.24829345703125,0.0011150363134220243,0.0021238643676042557,0.00007827801164239645
1782661636158364400,5.258364501953125,0.0015083851758390665,0.0012218516785651445,-0.0005148079362697899
1782661636168435500,5.268435546875,-0.0010403975611552596,0.0028041694313287735,-0.0016581148374825716
1782661636178506500,5.278506591796875,0.0033178655430674553,0.002402831334620714,-0.0011281459592282772
1782661636188577500,5.28857763671875,0.0005890964530408382,0.0013018605532124639,0.00028306496096774936
1782661636198648600,5.298648681640625,0.0008607389172539115,0.001689350581727922,-0.000747312034945935
1782661636208720400,5.308720458984375,-0.0005824731197208166,0.0013148050056770444,-0.000589136267080903
1782661636218788400,5.318788330078125,0.0014694924466311932,-0.0004553982289507985,-0.0001803410123102367
1782661636228859400,5.328859375,0.0032041035592556,0.001194450887851417,-0.0005643710610456765
1782661636238930400,5.338930419921875,-0.0000553394784219563,0.0020732940174639225,0.0003767900634557009
1782661636249001500,5.34900146484375,-0.000515463063493371,-0.0006541520124301314,0.0014796392060816288
1782661636259073500,5.359073486328125,0.0012864316813647747,0.0008489360334351659,0.0011970777995884418
1782661636269144600,5.36914453125,-0.0012252043234184384,0.000805526680778712,0.00013525196118280292
1782661636279215600,5.379215576171875,-0.0005407718708738685,-0.002337003592401743,-0.0002479769173078239
1782661636289286400,5.389286376953125,0.000293596473056823,-0.001708231051452458,0.002377899829298258
1782661636299357400,5.399357421875,-0.00196849275380373,-0.0013002346968278289,0.00004603608977049589
1782661636309428500,5.409428466796875,-0.0014141943538561463,-0.00026158138643950224,0.0010718837147578597
1782661636319499500,5.41949951171875,-0.0007081904914230108,-0.0025641503743827343,0.0012998502934351563
1782661636329571600,5.429571533203125,-0.00087844452355057,-0.003190485294908285,0.0009123561321757734
1782661636339642600,5.439642578125,-0.003622831776738167,-0.0036546746268868446,0.0017240876331925392
1782661636349713700,5.449713623046875,0.00037939409958198667,-0.0025078682228922844,0.00015524023910984397
1782661636359784400,5.459784423828125,-0.001600399729795754,-0.0021304981783032417,0.00034805305767804384
1782661636369855500,5.46985546875,-0.0001643638825044036,-0.0028981133364140987,0.00025245314463973045
1782661636379926500,5.479926513671875,-0.0007555856136605144,-0.0008533386280760169,-0.0008615470724180341
1782661636389998300,5.489998291015625,-0.0006782688433304429,-0.00036968535277992487,-0.002883711364120245
1782661636400069400,5.5000693359375,0.0009377372916787863,0.0002841205568984151,0.0021003945730626583
1782661636410140400,5.510140380859375,-0.0011246927315369248,0.0013651386834681034,-0.002379313111305237
1782661636420211500,5.52021142578125,0.0021187711972743273,-0.0007648573955520988,-0.0004533150349743664
1782661636430282200,5.5302822265625,0.0011957194656133652,0.002342518884688616,-0.003216344630345702
1782661636440353300,5.540353271484375,0.002227428136393428,0.0037468038499355316,0.0009634866146370769
1782661636450424300,5.55042431640625,0.002494495827704668,0.0017626540502533317,-0.0005920848343521357
1782661636460495400,5.560495361328125,-0.00028051796834915876,0.0019794353283941746,-0.0002448085870128125
1782661636470567400,5.5705673828125,0.0014662184985354543,-0.0008969079935923219,-0.0018213852308690548
1782661636480638500,5.580638427734375,0.0002875034115277231,0.0012349523603916168,0.0008604179020039737
1782661636490709500,5.59070947265625,0.0003529514651745558,0.002950052497908473,-0.0028930173721164465
1782661636500780300,5.6007802734375,0.00013803434558212757,0.002054165117442608,-0.001710041193291545
1782661636510851300,5.610851318359375,0.0014211328234523535,0.0005617474671453238,-0.002354288473725319
1782661636520923100,5.620923095703125,-0.0017435015179216862,-0.0017805026145651937,-0.0018610712140798569
1782661636530995200,5.6309951171875,-0.0009690840379334986,-0.0005801592487841845,0.000769185135141015
1782661636541066200,5.641066162109375,0.0003473164979368448,0.02044842764735222,0.005765807814896107
1782661636551137300,5.65113720703125,-0.0004530742880888283,-0.007772638462483883,0.0014184715691953897
1782661636561208300,5.661208251953125,0.00033735192846506834,0.014248774386942387,0.0034403433091938496
1782661636571279400,5.671279296875,-0.0015490264631807804,-0.004603909328579903,-0.000006329442840069532
1782661636581350400,5.681350341796875,-0.0002523331786505878,-0.0012110418174415827,0.0012283120304346085
1782661636591421200,5.691421142578125,-0.0010737795382738113,-0.008099714294075966,-0.0017640022560954094
1782661636601494300,5.701494384765625,-0.0015451591461896896,-0.011832133866846561,0.0012373803183436394
1782661636611565000,5.71156494140625,-0.0010212552733719349,-0.004321848042309284,0.0002163326134905219
1782661636621637000,5.72163720703125,-0.00014614051906391978,-0.003925570286810398,0.001707436516880989
1782661636631708200,5.731708251953125,-0.0008506843005307019,-0.0024471150245517492,0.0030006556771695614
