time,seconds_elapsed,z,y,x
1782813382268962300,0.05296240234375,-0.0015364435967057943,-0.0009731096215546131,-0.0006059842417016625
1782813382279031300,0.06303125,-0.002566862851381302,0.0017716384027153254,-0.000150484120240435
1782813382289101300,0.073101318359375,-0.001377228763885796,0.0014368790434673429,-0.00044689394417218864
1782813382299171300,0.08317138671875,-0.000021841959096491337,-0.0014757863245904446,-0.0010981984669342637
1782813382309240300,0.093240234375,-0.0006314394995570183,0.00022197887301445007,-0.0009852803777903318
1782813382319310000,0.10331005859375,-0.0009753950871527195,0.00001930142752826214,-0.0017009954899549484
1782813382329380400,0.11338037109375,-0.002085933228954673,0.00011331099085509777,0.0005451145116239786
1782813382339450400,0.123450439453125,-0.0026428457349538803,-0.0012630792334675789,-0.0015848735347390175
1782813382349519400,0.133519287109375,0.00017531123012304306,-0.00032085273414850235,0.0021643247455358505
1782813382359589400,0.14358935546875,-0.0003316081129014492,-0.0037348768673837185,-0.00021790392929688096
1782813382369659100,0.1536591796875,-0.0008179013384506106,0.001009278348647058,-0.0009598606266081333
1782813382379728400,0.163728271484375,-0.000132086337544024,-0.0005211927928030491,0.0007895308081060648
1782813382389798100,0.173798095703125,0.00042398174991831183,-0.00024635461159050465,-0.0018821523990482092
1782813382399868200,0.1838681640625,0.001135549508035183,0.0007037108298391104,0.0016170558519661427
1782813382409938400,0.1939384765625,-0.0005739335902035236,-0.0006441150326281786,0.0020335742738097906
1782813382420007200,0.204007080078125,0.000987469800747931,0.0003727951552718878,0.0037455353885889053
1782813382430077400,0.214077392578125,0.00041489017894491553,0.000709951389580965,0.0015801192494109273
1782813382440147200,0.224147216796875,0.00007476104656234384,0.0005003956612199545,0.0008558435365557671
1782813382450216200,0.23421630859375,-0.0014160764403641224,0.0010700458660721779,0.0011101753916591406
1782813382460286500,0.244286376953125,0.0004421941703185439,-0.0006271074526011944,-0.003007360501214862
1782813382470356200,0.254356201171875,-0.0001231948845088482,0.0010829082457348704,-0.00036177621223032475
1782813382480425500,0.264425537109375,-0.00012401631101965904,-0.00010054092854261398,-0.0020607884507626295
1782813382490495200,0.2744951171875,-0.0004814125131815672,-0.00024142209440469742,0.00011155192623846233
1782813382500565200,0.284565185546875,-0.001524117193184793,-0.0006138707976788282,-0.0020685738418251276
1782813382510635300,0.29463525390625,0.00017551227938383818,-0.0008263911586254835,0.0004651577619370073
1782813382520704300,0.304704345703125,0.0002924427390098572,0.0008508074097335339,-0.0006334802019409835
1782813382530774300,0.314774169921875,-0.001115836901590228,-0.0008996883407235146,0.0010733397211879492
1782813382540844300,0.32484423828125,-0.00033000775147229433,-0.0017225565388798714,0.0012211056891828775
1782813382550913300,0.334913330078125,-0.0009854118106886744,0.001989357639104128,0.00020537603995762765
1782813382560983300,0.3449833984375,0.00026193965459242463,0.0018154968274757266,0.0002431554312352091
1782813382571053300,0.35505322265625,-0.0015575319994241,0.0011457118671387434,-0.0005145138711668551
1782813382581123300,0.365123291015625,-0.0022563673555850983,0.0002664639614522457,-0.0013918210752308369
1782813382591192300,0.3751923828125,-0.0003756430232897401,0.000011865748092532158,-0.00023281337053049356
1782813382601262300,0.385262451171875,0.00042378297075629234,-0.001633479492738843,-0.0010793947149068117
1782813382611332000,0.39533203125,0.00022591010201722383,0.0009061109740287066,0.0025600811932235956
1782813382621401300,0.4054013671875,0.00011883315164595842,0.001877099508419633,0.001103598508052528
1782813382631471400,0.415471435546875,-0.0025850743986666203,0.001972706988453865,-0.0013177476357668638
1782813382641541000,0.425541015625,0.0013762556482106447,-0.00006380071863532066,0.0009881409350782633
1782813382651610400,0.4356103515625,-0.0005273717688396573,0.0010595206404104829,-0.003157069208100438
1782813382661680000,0.44568017578125,-0.002080409787595272,-0.0006554278079420328,0.0022996857296675444
1782813382671750400,0.45575048828125,-0.0010668106842786074,-0.0013547739945352077,0.00046583314542658627
1782813382681820400,0.4658203125,-0.0005164468893781304,-0.000007701106369495392,-0.0019833333790302277
1782813382691889400,0.475889404296875,0.0016252672066912055,0.0006423764862120152,-0.0009564183419570327
1782813382701959400,0.48595947265625,0.0005309550324454904,0.0011489008320495486,-0.000034841097658500075
1782813382712029200,0.496029296875,0.001038553542457521,0.00017471658065915108,0.0006397375836968422
1782813382722098400,0.506098388671875,0.0009073932887986302,0.003256328171119094,-0.00008203441393561661
1782813382732168200,0.516168212890625,-0.0010854500578716397,-0.0010049957782030106,-0.00032651261426508427
1782813382742238200,0.52623828125,-0.0008554068626835942,0.0013583209365606308,-0.0015810276381671429
1782813382752307200,0.53630712890625,0.00027457240503281355,-0.0009727440774440765,0.0007308624917641282
1782813382762377500,0.54637744140625,0.00014947651652619243,0.0006134030409157276,-0.0004999750526621938
1782813382772447500,0.556447509765625,-0.000821511959657073,-0.0015181913040578365,-0.0015457984991371632
1782813382782517800,0.566517822265625,-0.0011064389254897833,-0.0005399489309638739,0.00028169353026896715
1782813382792586500,0.57658642578125,-0.00007233349606394768,0.0022339997813105583,-0.0024669549893587828
1782813382802656800,0.58665673828125,0.0007137848297134042,-0.0010707660112529993,-0.001650886028073728
1782813382812726500,0.5967265625,0.0014557415852323174,-0.000808977521955967,0.0008650022791698575
1782813382822795500,0.60679541015625,0.0010295446263626218,0.00027830759063363075,-0.00026147259632125497
1782813382832865500,0.616865478515625,-0.00019471044652163982,0.0009590114932507277,0.00015637738397344947
1782813382842935600,0.626935546875,-0.0004971652524545789,0.0009880060097202659,-0.002029834780842066
1782813382853004500,0.637004638671875,-0.0015283412067219615,-0.0001829857937991619,-0.001735555473715067
1782813382863074600,0.647074462890625,-0.0009570340625941753,0.0020675219129770994,0.0001811946276575327
1782813382873144600,0.65714453125,0.00014737877063453197,0.0033013643696904182,-0.0009533119737170637
1782813382883214600,0.667214599609375,-0.0009040329605340958,0.0005509478505700827,0.003366864752024412
1782813382893283600,0.67728369140625,-0.00043318618554621935,-0.0003393469378352165,-0.003006612416356802
1782813382903353300,0.687353271484375,-0.0017268569208681583,-0.0018976835999637842,0.0011143381707370281
1782813382913423600,0.697423583984375,-0.0013612050097435713,-0.0008047223091125488,-0.00014160864520817995
1782813382923492600,0.70749267578125,-0.0007776934653520584,-0.001647507306188345,-0.0010430716210976243
1782813382933562600,0.717562744140625,-0.0005510584451258183,-0.0000014076940715312958,-0.000643597450107336
1782813382943632600,0.727632568359375,0.0010519460774958134,0.0012775672366842628,0.0007047884864732623
1782813382953702700,0.73770263671875,0.000014378572814166546,0.0016205823048949242,0.0009111834224313498
1782813382963771600,0.747771728515625,-0.001313953660428524,-0.00018411502242088318,0.0011023798724636436
1782813382973841700,0.757841552734375,0.0014006064739078283,0.0018854273948818445,-0.00038899038918316364
1782813382983911400,0.767911376953125,-0.002525166841223836,0.0006966753862798214,0.0012304827105253935
1782813382993980700,0.777980712890625,0.0005808778223581612,0.0004242339637130499,-0.00015409471234306693
1782813383004050400,0.788050537109375,-0.002274748869240284,0.0006140389014035463,0.002013274235650897
1782813383014120700,0.79812060546875,-0.0010731307556852698,0.00022015743888914585,0.001732843229547143
1782813383024189400,0.808189453125,-0.0023912021424621344,0.0012456871336326003,0.0009907447965815663
1782813383034259500,0.818259521484375,0.0007840846665203571,-0.0005205213092267513,-0.0019278135150671005
1782813383044329700,0.828329833984375,-0.0015034738462418318,-0.000753812724724412,0.00014154938980937004
1782813383054399500,0.8383994140625,0.001039045979268849,0.0006267700809985399,0.0015943037578836083
1782813383064468700,0.84846875,-0.00257735513150692,0.0009856189135462046,-0.001980470959097147
1782813383074538500,0.85853857421875,-0.000958419288508594,0.0013310308568179607,0.0009338263189420104
1782813383084608500,0.8686083984375,-0.003002289216965437,0.001240608631633222,-0.0010316191473975778
1782813383094677800,0.878677734375,0.0019815503619611263,0.0005023803096264601,-0.00034399094874970615
1782813383104747500,0.88874755859375,0.0010117902420461178,-0.00046859076246619225,0.001309388317167759
1782813383114817500,0.898817626953125,0.0003361463313922286,-0.00009228591807186604,0.0001903281081467867
1782813383124886500,0.908886474609375,-0.00043710111640393734,-0.0003602227661758661,0.0010384505148977041
1782813383134956500,0.91895654296875,-0.001592912944033742,0.0008459228556603193,-0.0017818370833992958
1782813383145026600,0.929026611328125,-0.001998182386159897,-0.001504744403064251,0.0006349387113004923
1782813383155096600,0.9390966796875,-0.0018584103090688586,0.0022302682045847178,0.0009983998024836183
1782813383165165600,0.94916552734375,0.0014692639233544469,-0.0017992020584642887,-0.0009071630192920566
1782813383175235600,0.959235595703125,-0.0008857694920152426,-0.0010428642854094505,0.0005141660221852362
1782813383185305600,0.9693056640625,-0.0015466397162526846,-0.0006525234784930944,-0.0012164227664470673
1782813383195374600,0.97937451171875,0.0009561991319060326,0.00032805255614221096,0.0032835204619914293
1782813383205444600,0.989444580078125,0.0011218518484383821,-0.0006170563865453005,0.0016464367508888245
1782813383215514600,0.9995146484375,-0.001781792612746358,0.00005885399878025055,0.001660285284742713
1782813383225584400,1.00958447265625,0.0011803028173744678,-0.00010206061415374279,-0.0016985780093818903
1782813383235653600,1.019653564453125,0.0005864179111085832,0.0016084876842796803,-0.0005696640582755208
1782813383245723400,1.029723388671875,-0.001447235350497067,0.0006730835884809494,-0.00021116086281836033
1782813383255793700,1.039793701171875,-0.0010179338278248906,-0.0014489234890788794,-0.0011573820374906063
1782813383265862400,1.0498623046875,0.00013960269279778004,0.00045650149695575237,-0.00032193801598623395
1782813383275932700,1.0599326171875,0.0011204448528587818,0.0012477266136556864,0.0002565005561336875
1782813383286002700,1.070002685546875,-0.0021997918374836445,-0.000609769718721509,-0.0002975792158395052
1782813383296071400,1.080071533203125,0.00002288247924298048,0.0029317017178982496,-0.001126887509599328
1782813383306141700,1.0901416015625,0.001459205523133278,0.0012483297614380717,0.0004210257320664823
1782813383316211500,1.10021142578125,0.0001657081302255392,0.00026988424360752106,0.0007158376392908394
1782813383326281500,1.110281494140625,0.000016100355423986912,-0.00021659350022673607,-0.002343092579394579
1782813383336350700,1.120350830078125,0.0012217133771628141,0.0002438670489937067,0.0006811932544223964
1782813383346420500,1.13042041015625,-0.0005775181343778968,-0.00018490198999643326,0.0005347193800844252
1782813383356490500,1.140490478515625,-0.00007364805787801743,-0.00010101241059601307,0.0008204765035770833
1782813383366559500,1.1505595703125,0.000037102727219462395,-0.0016654778737574816,-0.0024737981148064137
1782813383376629500,1.16062939453125,-0.001937098684720695,0.0013718573609367013,0.00216622743755579
1782813383386699800,1.17069970703125,-0.0007320598233491182,-0.0013072364963591099,0.0014518473763018847
1782813383396768500,1.1807685546875,-0.0017051787581294775,-0.0002363794483244419,-0.00016921883798204362
1782813383406838500,1.190838623046875,-0.0007719536079093814,0.00088677485473454,-0.0006937356665730476
1782813383416908500,1.200908447265625,-0.002764797070994973,0.001134182559326291,0.002520699752494693
1782813383426978600,1.210978515625,-0.00042560428846627474,0.0008362326771020889,0.0006528435042127967
1782813383437047600,1.221047607421875,-0.0005763391964137554,0.00027936557307839394,0.001864581718109548
1782813383447117600,1.23111767578125,-0.0010768836364150047,-0.0016719663981348276,-0.0007906944956630468
1782813383457187600,1.2411875,0.0013945299433544278,0.00012433575466275215,0.001151548814959824
1782813383467256600,1.251256591796875,-0.0010557149071246386,0.0011333709117025137,0.0032279121223837137
1782813383477326600,1.26132666015625,0.0013318090932443738,-0.0007678596302866936,0.000027857779059559107
1782813383487396400,1.271396240234375,-0.0014890707097947598,0.0003380933776497841,-0.0004062335938215256
1782813383497465600,1.281465576171875,-0.0006083633052185178,0.0009945626370608807,-0.0009039784199558198
1782813383507535400,1.291535400390625,0.0012327460572123528,-0.00028096348978579044,0.0009564438369125128
1782813383517605600,1.301605712890625,0.0007179570384323597,-0.0007904260419309139,-0.00018685118993744254
1782813383527675600,1.311675537109375,-0.00226798327639699,-0.000025611836463212967,-0.0017074778443202376
1782813383537744600,1.32174462890625,-0.0009113689884543419,-0.0009356141090393066,0.0012233309680595994
1782813383547814700,1.331814697265625,0.00019370659720152617,-0.0007082049269229174,0.0012867420446127653
1782813383557884400,1.341884521484375,-0.00027341186068952084,-0.0013281891588121653,0.0019112532027065754
1782813383567953700,1.35195361328125,-0.003102213144302368,0.0007932675071060658,-0.0015864553861320019
1782813383578023700,1.362023681640625,-0.0005855257622897625,-0.0009540324099361897,0.0016194578493013978
1782813383588093400,1.372093505859375,-0.0007202879060059786,-0.0023714250419288874,-0.0006262091919779778
1782813383598162700,1.38216259765625,-0.000011620810255408287,0.0004280901048332453,-0.0003303319972474128
1782813383608232400,1.392232421875,-0.000006789690814912319,-0.0007113916799426079,-0.0010240951087325811
1782813383618302500,1.402302490234375,0.0021668823901563883,-0.0020224659238010645,0.0000773883075453341
1782813383628372700,1.412372802734375,0.0003937367582693696,0.002701222663745284,0.0014492732007056475
1782813383638441500,1.42244140625,-0.0005895022768527269,-0.0010687480680644512,-0.001352105988189578
1782813383648511700,1.43251171875,-0.00041907140985131264,-0.0019438285380601883,-0.0003926081699319184
1782813383658581500,1.44258154296875,-0.0009863246232271194,-0.0006221018265932798,-0.0019609436858445406
1782813383668650800,1.452650634765625,-0.0013044554507359862,-0.0007637748494744301,0.000383914855774492
1782813383678720500,1.462720458984375,-0.000691129476763308,0.0002269209362566471,-0.00042968086199834943
1782813383688790500,1.47279052734375,-0.0024806088767945766,0.0003532727714627981,0.0007029295666143298
1782813383698859500,1.482859619140625,0.0003146450035274029,-0.0013953589368611574,0.0009998721070587635
1782813383708929500,1.492929443359375,0.0026851119473576546,-0.0013346371706575155,-0.0013591800816357136
1782813383718999600,1.50299951171875,-0.0017237513093277812,-0.0012313064653426409,-0.0012968620285391808
1782813383729069600,1.513069580078125,0.000014685210771858692,-0.0012412427458912134,-0.0004819604801014066
1782813383739138600,1.523138671875,-0.0025739073753356934,-0.000647357665002346,0.0006759819225408137
1782813383749208600,1.53320849609375,-0.00042693864088505507,0.0009919205913320184,-0.0012389009352773428
1782813383759278600,1.543278564453125,0.0013688307953998446,0.00015701958909630775,0.0006301054963842034
1782813383769347600,1.55334765625,0.0034394562244415283,-0.00006404006853699684,-0.00019102430087514222
1782813383779417900,1.56341796875,-0.00036540196742862463,0.00012104958295822144,0.0013176564825698733
1782813383789487600,1.573487548828125,0.0008059359388425946,-0.0007478953339159489,0.0004181265248917043
1782813383799557600,1.5835576171875,-0.0004888930125162005,-0.0003558781463652849,-0.0006202399963513017
1782813383809626600,1.593626708984375,-0.000193718820810318,-0.0000745975412428379,-0.0005556342075578868
1782813383819696600,1.603696533203125,-0.001103720860555768,0.002091085072606802,0.00015489716315642
1782813383829766700,1.6137666015625,0.0015379374381154776,0.001017797621898353,0.0009531856048852205
1782813383839835600,1.623835693359375,-0.0002956489333882928,-0.0029436543118208647,0.000035460339859128
1782813383849905700,1.63390576171875,-0.0012010344071313739,-0.0007499388884752989,-0.0005354512250050902
1782813383859975700,1.6439755859375,-0.0010130152804777026,0.00015526940114796162,0.001836626324802637
1782813383870044700,1.654044677734375,0.0012768418528139591,-0.0012802614364773035,-0.00036079584970138967
1782813383880114400,1.664114501953125,-0.0005367709090933204,-0.0008972990326583385,-0.00019647882436402142
1782813383890184700,1.674184814453125,-0.00022624724078923464,0.0024484239984303713,0.0001581339747644961
1782813383900253400,1.68425341796875,-0.00004834809806197882,-0.00013590743765234947,0.000030035909730941057
1782813383910323700,1.69432373046875,0.0006439136923290789,-0.0006893719546496868,0.0023569376207888126
1782813383920393700,1.704393798828125,-0.001413910766132176,0.00081797712482512,-0.0003400457208044827
1782813383930463500,1.71446337890625,0.0009766496950760484,-0.0003988458774983883,0.0003149425028823316
1782813383940532700,1.72453271484375,0.00002456957008689642,0.0022480699699372053,0.0003791245981119573
1782813383950602800,1.734602783203125,0.0007286409963853657,-0.0015963551122695208,0.0001831975532695651
1782813383960672500,1.744672607421875,0.0015188008546829224,-0.0019004882778972387,-0.00004743220051750541
1782813383970741800,1.75474169921875,0.002750708255916834,-0.000410629203543067,-0.0014769143890589476
1782813383980811500,1.7648115234375,0.0010841020848602057,-0.00034618075005710125,-0.0018383052665740252
1782813383990881800,1.7748818359375,0.0000734180212020874,0.0002351838629692793,0.0004162306431680918
1782813384000951800,1.784951904296875,-0.00015827699098736048,-0.00027321348898112774,-0.0005235988646745682
1782813384011020500,1.7950205078125,-0.0006430069915950298,-0.0013519679196178913,-0.0006444943719543517
1782813384021090800,1.8050908203125,-0.0004182361299172044,-0.00018816650845110416,0.0002575183170847595
1782813384031160600,1.81516064453125,-0.00147738226223737,-0.0019242637790739536,-0.00033375807106494904
1782813384041229800,1.825229736328125,0.00021851883502677083,-0.0008864300325512886,-0.0018448357004672289
1782813384051299600,1.835299560546875,0.00136986852157861,-0.0010649869218468666,-0.0011849876027554274
1782813384061369600,1.84536962890625,-0.0010267101461067796,-0.0004785587079823017,-0.0028603821992874146
1782813384071438600,1.8554384765625,-0.0019385998602956533,0.0019315376412123442,0.0015439392300322652
1782813384081508600,1.865508544921875,0.0035698823630809784,-0.001495684264227748,0.0015689729480072856
1782813384091578600,1.87557861328125,0.0011257092701271176,0.0012340249959379435,0.00014189694775268435
1782813384101648600,1.885648681640625,0.000552596990019083,0.0009298920631408691,0.001003695884719491
1782813384111717600,1.895717529296875,0.000568274175748229,0.0003261631354689598,-0.0017105420120060444
1782813384121787600,1.90578759765625,0.0003890434163622558,-0.0011300533078610897,0.0009813813958317041
1782813384131857700,1.915857666015625,-0.0007248369511216879,0.0016883125063031912,-0.0006251015001907945
1782813384141926700,1.9259267578125,0.0010325830662623048,0.00006671366281807423,-0.0022112801671028137
1782813384151996700,1.93599658203125,-0.001449244562536478,-0.00034679798409342766,-0.00011591974180191755
1782813384162066700,1.946066650390625,0.0008077843813225627,0.0012660124339163303,-0.0011241924948990345
1782813384172135700,1.9561357421875,0.00030078378040343523,0.0018889509374275804,-0.00045893320930190384
1782813384182205700,1.966205810546875,-0.000908025074750185,0.0003768082242459059,-0.0002163192257285118
1782813384192275700,1.976275634765625,-0.00003958039451390505,0.0014836310874670744,0.00006952579133212566
1782813384202345700,1.986345703125,-0.0003453112440183759,-0.0004937660414725542,0.0005475631915032864
1782813384212414700,1.996414794921875,0.001681752735748887,-0.0003931168466806412,0.0006896761478856206
1782813384222484500,2.006484375,0.0003869237843900919,0.0004729432985186577,-0.002000648993998766
1782813384232554800,2.0165546875,-0.0011984144803136587,0.00007904227823019028,-0.0013732830993831158
1782813384242623500,2.02662353515625,0.00022717553656548262,0.0009243296226486564,-0.00109445012640208
1782813384252693800,2.03669384765625,-0.00013038876932114363,0.0007839903701096773,0.0014117697719484568
1782813384262763800,2.046763671875,0.00042195076821371913,0.002164040459319949,-0.0016324894968420267
1782813384272832500,2.05683251953125,-0.00037173402961343527,0.0007462233770638704,-0.00012929929653182626
1782813384282902800,2.06690283203125,0.00010816764552146196,-0.00009693345054984093,-0.0005455513601191342
1782813384292972500,2.07697265625,0.0014318815665319562,0.00019347318448126316,-0.0016995944315567613
1782813384303042600,2.08704248046875,-0.0013780196895822883,-0.00021132733672857285,0.0007539758225902915
1782813384313111600,2.097111572265625,0.002699911128729582,0.00021660723723471165,-0.0011491648619994521
1782813384323181600,2.107181640625,-1.5133991837501526e-9,0.0019324820023030043,-0.0009590151021257043
1782813384333251800,2.117251953125,0.00017229316290467978,0.0005753785371780396,-0.0012792221968993545
1782813384343320600,2.127320556640625,-0.0003022821620106697,-0.0008672557305544615,-0.0005436571082100272
1782813384353390600,2.137390625,0.00010621128603816032,0.0012145660584792495,-0.0009961531031876802
1782813384363460600,2.147460693359375,-0.0017156570684164762,0.0017155066598206758,0.0006070698145776987
1782813384373529600,2.157529541015625,-0.001412205514498055,-0.0008685854263603687,-0.00136581901460886
1782813384383599900,2.167599853515625,0.0006477496353909373,0.0014385110698640347,0.001828642562031746
1782813384393669600,2.177669677734375,-0.00025284907314926386,-0.0014158855192363262,-0.001113886944949627
1782813384403739600,2.18773974609375,-0.0012893512612208724,-0.0009192060679197311,-0.0005884452839381993
1782813384413808600,2.19780859375,0.0014681494794785976,0.0005410590674728155,0.00045597797725349665
1782813384423878700,2.207878662109375,0.0006646738038398325,0.0009181626373901963,0.001030688057653606
1782813384433948700,2.21794873046875,0.0004598767263814807,0.000405504135414958,0.0007726277690380812
1782813384444017700,2.228017578125,0.0001363445771858096,-0.0018810201436281204,-0.0008182877791114151
1782813384454087700,2.238087646484375,0.00131912250071764,-0.0010382451582700014,0.0005912421620450914
1782813384464157700,2.24815771484375,0.0018059483263641596,-0.0016579627990722656,-0.0009262270177714527
1782813384474226700,2.258226806640625,0.0006547318189404905,0.002145714359357953,0.0010620082030072808
1782813384484296400,2.26829638671875,-0.0013500958448275924,-0.001510272966697812,0.00004041963256895542
1782813384494366700,2.27836669921875,-0.001891488442197442,-0.0014463032130151987,-0.0024772444739937782
1782813384504436700,2.288436767578125,-0.0007364754565060139,0.00010259146802127361,0.0001909764250740409
1782813384514505700,2.298505615234375,0.0016827201470732689,-0.00040188455022871494,-0.0016196912620216608
1782813384524575700,2.30857568359375,-0.0010797767899930477,0.0002141045406460762,-0.00004576309584081173
1782813384534645500,2.3186455078125,0.0017272522673010826,0.0014137404505163431,0.00029861764051020145
1782813384544714800,2.32871484375,0.0001045882236212492,-0.0019144120160490274,-0.0004460021445993334
1782813384554784500,2.338784423828125,-0.0010117371566593647,-0.0019769424106925726,-0.0008509161416441202
1782813384564854500,2.3488544921875,-0.000759269343689084,-0.001311152009293437,-0.00019711011555045843
1782813384574923800,2.358923828125,0.000042121740989387035,0.00009352527558803558,-0.00023100609541870654
1782813384584993500,2.36899365234375,-0.00008650892414152622,-0.000800497829914093,-0.00163555727340281
1782813384595063800,2.379063720703125,0.0003816810785792768,0.0005254470743238926,0.0006836247048340738
1782813384605133800,2.3891337890625,-0.0005930358311161399,0.0016202726401388645,-0.001416277838870883
1782813384615202600,2.39920263671875,-0.00015989597886800766,-0.0005182633176445961,-0.002973033580929041
1782813384625272800,2.40927294921875,0.0006702113314531744,-0.0008101458661258221,0.0003375419182702899
1782813384635342600,2.419342529296875,-0.0013928639236837626,0.0004058275371789932,0.00030012818751856685
1782813384645411800,2.429411865234375,-0.0014855419285595417,-0.00017500785179436207,-0.0017720775213092566
1782813384655481600,2.439481689453125,-0.0001216342207044363,-0.0000419015996158123,0.00046144681982696056
1782813384665551600,2.449551513671875,0.001001420896500349,-0.000014204764738678932,-0.001536989351734519
1782813384675620600,2.45962060546875,0.0012434780364856124,-0.0005705400835722685,-0.0009477968560531735
1782813384685690600,2.469690673828125,0.001227232743985951,0.0015719729708507657,-0.000054838950745761395
1782813384695760600,2.4797607421875,0.0015368597814813256,-0.001986438874155283,-0.00035555745125748217
1782813384705830700,2.48983056640625,-0.0007390776881948113,-0.001429305411875248,0.003098029876127839
1782813384715899600,2.499899658203125,0.002581374952569604,-0.000520776491612196,0.00016568065620958805
1782813384725969700,2.5099697265625,-0.0011049724416807294,-0.00018415297381579876,0.001709781470708549
1782813384736039700,2.520039794921875,-0.0028634844347834587,0.0005341933574527502,-0.001063580042682588
1782813384746108700,2.530108642578125,-0.0009028649656102061,0.0008457832736894488,-0.00007075356552377343
1782813384756178400,2.540178466796875,-0.0014351306017488241,0.0005497576203197241,0.0006780370022170246
1782813384766248200,2.550248291015625,-0.000402623089030385,0.0011598877608776093,0.0018407730385661125
1782813384776317400,2.5603173828125,0.0001436449820175767,0.001740277511999011,0.00009778840467333794
1782813384786387200,2.57038720703125,-0.00004277634434401989,-0.00031222053803503513,0.00018061266746371984
1782813384796457200,2.580457275390625,-0.00045446015428751707,-0.00023989053443074226,0.00036641216138377786
1782813384806527500,2.590527587890625,0.0009213288431055844,0.00021417834796011448,-0.0015396121889352798
1782813384816596200,2.60059619140625,0.0019463549833744764,-0.0016642000991851091,0.0014241859316825867
1782813384826666200,2.610666259765625,-0.0007698030676692724,-0.00017655803821980953,0.0003671773592941463
1782813384836736300,2.620736328125,0.0011691820109263062,-0.002802073722705245,-0.0010173324262723327
1782813384846805200,2.63080517578125,0.00006476906128227711,-0.0013160298112779856,0.0018213309813290834
1782813384856875500,2.64087548828125,-0.0005150303477421403,0.0012649395503103733,0.0027911453507840633
1782813384866945300,2.6509453125,-0.0007906676037237048,0.002025538356974721,-0.003235055599361658
1782813384877015300,2.661015380859375,0.00010844192001968622,0.00112639251165092,-0.002167364815250039
1782813384887084300,2.671084228515625,-0.00103458680678159,-0.0008731088601052761,0.0015927522908896208
1782813384897154300,2.681154296875,-0.0003052476095035672,-0.0012896247208118439,-0.0008700813632458448
1782813384907224300,2.691224365234375,0.0008827885030768812,0.00011971988715231419,0.0006393984076566994
1782813384917293300,2.701293212890625,0.0007558647776022553,-0.000060075195506215096,0.0009753288468346
1782813384927363300,2.71136328125,-0.00044016086030751467,-0.0009855236858129501,-0.0006215025787241757
1782813384937433300,2.721433349609375,0.00027492863591760397,-0.0007179914973676205,-0.0016429191455245018
1782813384947502300,2.73150244140625,-0.0007589105516672134,-0.000315321609377861,-0.0018831363413482904
1782813384957572000,2.741572021484375,0.0003592204302549362,-0.0003844501916319132,0.0012207928812131286
1782813384967642400,2.751642333984375,0.001483340747654438,-0.0008688790258020163,0.0012436960823833942
1782813384977712400,2.76171240234375,-0.0023545771837234497,0.0002455806825309992,-0.0016875775763764977
1782813384987781400,2.771781494140625,0.0005935421795584261,-0.002429831074550748,0.00041871657595038414
1782813384997851400,2.781851318359375,0.00034493464045226574,0.0006873284000903368,-0.00029813835863023996
1782813385007921200,2.791921142578125,0.0012445504544302821,0.0024447485338896513,0.001105880131945014
1782813385017990400,2.801990478515625,-0.0011964422883465886,0.0003959785681217909,-0.0004290938377380371
1782813385028060400,2.812060302734375,0.0014866925776004791,-0.0016882114578038454,-0.003180405590683222
1782813385038130200,2.822130126953125,0.002299659885466099,-0.0023208879865705967,0.0014643247704952955
1782813385048199400,2.832199462890625,-0.00037308840546756983,-0.0008217946160584688,0.000670968962367624
1782813385058269200,2.842269287109375,0.00023862533271312714,0.0010950652649626136,-0.0012702024541795254
1782813385068339500,2.85233935546875,-0.0004719060380011797,-0.0012900619767606258,0.00021877093240618706
1782813385078409500,2.862409423828125,0.0012769775930792093,0.000155638437718153,0.0010323964525014162
1782813385088478200,2.872478271484375,-0.0018005713354796171,0.0008541856659576297,-0.0003303430858068168
1782813385098548500,2.882548583984375,0.00030149659141898155,-0.0003953082486987114,0.00095417071133852
1782813385108618200,2.8926181640625,0.0002722018398344517,-0.0020565881859511137,-0.0015819575637578964
1782813385118687500,2.9026875,-0.0006185846868902445,-0.00033906265161931515,0.0008019519736990333
1782813385128757200,2.91275732421875,-0.0007517427438870072,-0.00007407809607684612,0.0007721246220171452
1782813385138827300,2.9228271484375,0.0016212236369028687,-0.0004075346514582634,-0.0002952803042717278
1782813385148896300,2.932896240234375,-0.0007750885561108589,0.0003565263468772173,-0.001759219914674759
1782813385158966300,2.94296630859375,0.0004917621263302863,0.0009214278543367982,-0.0003258573415223509
1782813385169036300,2.953036376953125,0.0006393012590706348,-0.0018192313145846128,-0.000381251098588109
1782813385179106300,2.963106201171875,0.0008963873842731118,0.0008589483331888914,0.0010718412231653929
1782813385189175300,2.97317529296875,-0.0006991124246269464,0.001414483762346208,-0.00109703722409904
1782813385199245300,2.983245361328125,-0.0011185164330527186,0.0002422099933028221,0.0015303331892937422
1782813385209315300,2.9933154296875,0.0015041646547615528,0.0009093319531530142,-0.00018820460536517203
1782813385219384300,3.00338427734375,-0.0010932019213214517,-0.0012558945454657078,-0.0009705785196274519
1782813385229454300,3.013454345703125,-0.002179238945245743,0.0008999340934678912,-0.0018907005432993174
1782813385239524400,3.0235244140625,-0.00027184176724404097,0.00011897692456841469,0.0008784827659837902
1782813385249593300,3.03359326171875,0.0013393707340583205,-0.00012416974641382694,-0.001639269758015871
1782813385259663400,3.043663330078125,0.00043440627632662654,0.0021589521784335375,0.0008393207681365311
1782813385269733400,3.0537333984375,-0.002501196227967739,0.0010308371856808662,0.00045529293129220605
1782813385279803400,3.063803466796875,-0.0007898416370153427,-0.00006731553003191948,-0.0007144200499169528
1782813385289872400,3.073872314453125,-0.000993040855973959,0.0018898413982242346,0.0014011950697749853
1782813385299942100,3.083942138671875,-0.00017151120118796825,-0.0012173084542155266,0.0016770652728155255
1782813385310012400,3.094012451171875,0.0008639259031042457,0.00021973345428705215,-0.0007980766240507364
1782813385320081200,3.1040810546875,-0.00048578239511698484,0.0014382866211235523,-0.0006120759062469006
1782813385330151400,3.1141513671875,-0.0002951000351458788,-0.00014442997053265572,0.0005812865565530956
1782813385340221400,3.124221435546875,-0.0003510238602757454,-0.00029404344968497753,0.0014188885688781738
1782813385350291200,3.134291259765625,0.002685246057808399,0.0007054407615214586,0.00006653543096035719
1782813385360360400,3.1443603515625,-0.002161501906812191,-0.0006276557687669992,0.0013015925651416183
1782813385370430200,3.15443017578125,0.0008683763444423676,-0.00030088587664067745,-0.002138678915798664
1782813385380500200,3.164500244140625,-0.0011404870310798287,0.0003283224068582058,0.0030163591727614403
1782813385390569200,3.1745693359375,-0.0013285061577335,-0.00023014238104224205,-0.0019336583791300654
1782813385400639200,3.18463916015625,-0.001067467383109033,-0.0013425617944449186,0.0011566092725843191
1782813385410709500,3.19470947265625,0.0003184417146258056,0.0011030191089957952,-0.0005435528000816703
1782813385420778200,3.2047783203125,-0.0008618721039965749,-0.0005726474337279797,-0.000544309732504189
1782813385430848300,3.21484814453125,0.0035611060447990894,-0.00035559991374611855,0.000631209637504071
1782813385440918300,3.224918212890625,0.0009959506569430232,0.0018401448614895344,-0.000979807460680604
1782813385450987300,3.2349873046875,-0.00002190947998315096,-0.0005772064905613661,-0.0014165658503770828
1782813385461057500,3.2450576171875,0.00046571571147069335,-0.001497252844274044,-0.00017377024050801992
1782813385471127300,3.255127197265625,0.00009553635027259588,0.0011312869610264897,0.0015386423328891397
1782813385481197300,3.265197265625,0.00013749254867434502,-0.0019442981574684381,-0.0017798382323235273
1782813385491266300,3.275266357421875,-0.00010165933053940535,0.0005649321246892214,0.0012774707283824682
1782813385501336300,3.28533642578125,-0.00037630973383784294,-0.00034888298250734806,-0.0020959023386240005
1782813385511406300,3.29540625,0.00001624017022550106,-0.0011345155071467161,-0.0005917488015256822
1782813385521475300,3.305475341796875,-0.00008145102765411139,0.0018486245535314083,-0.001026229583658278
1782813385531545300,3.31554541015625,0.0004935254692099988,-0.0005969563499093056,0.0014563691802322865
1782813385541615400,3.325615478515625,0.0013268563197925687,-0.000631311908364296,-0.0015566328074783087
1782813385551685400,3.335685302734375,0.0017247325740754604,0.0008784340461716056,0.0009374174987897277
1782813385561754000,3.345754150390625,0.001491762581281364,-0.0013523465022444725,-0.0007632907945662737
1782813385571824400,3.355824462890625,0.0015378352254629135,-0.0010724482126533985,-0.0008554361411370337
1782813385581894400,3.365894287109375,-0.001463593915104866,-0.001335599459707737,0.0008724218350835145
1782813385591963400,3.37596337890625,-0.002293434925377369,-0.00029643415473401546,-0.0006197473267093301
1782813385602033400,3.386033447265625,-0.0006182707147672772,-0.00009932508692145348,0.000948128174059093
1782813385612103200,3.396103271484375,-0.0011330597335472703,0.0007004223298281431,0.0004232191713526845
1782813385622172400,3.40617236328125,-0.0002163117751479149,-0.0002032378688454628,0.0004952916642650962
1782813385632242200,3.4162421875,-0.0007460145279765129,-0.00021309172734618187,-0.0006083222106099129
1782813385642312200,3.426312255859375,-0.0009222053922712803,-0.0012263450771570206,-0.00023658326244913042
1782813385652382500,3.436382568359375,0.00009964953642338514,-0.000847377348691225,0.002303539775311947
1782813385662451200,3.446451171875,-0.000016821082681417465,-0.0016471296548843384,-0.0016415570862591267
1782813385672521500,3.456521484375,-0.0011071193730458617,-0.0003741385880857706,0.0004082780214957893
1782813385682591500,3.466591552734375,0.00023045693524181843,0.001906353048980236,0.001585853286087513
1782813385692660200,3.47666015625,0.0004389824462123215,0.0015854421071708202,-0.0007537337951362133
1782813385702730500,3.48673046875,0.0011814370518550277,0.0007049017585813999,-0.00012946539209224284
1782813385712800300,3.49680029296875,0.001518326927907765,-0.0003574332222342491,0.0012340729590505362
1782813385722869500,3.506869384765625,-0.0000067624496296048164,-0.0006900981534272432,0.000050713075324893
1782813385732939300,3.516939208984375,-0.0004112966125831008,0.0004779642913490534,0.0009130446705967188
1782813385743009300,3.52700927734375,0.0022230506874620914,-0.00016244384460151196,-0.001961537403985858
1782813385753079300,3.537079345703125,-0.0002438355004414916,-0.0019113416783511639,0.0017828671261668205
1782813385763148800,3.547148681640625,-0.00021072989329695702,0.0009567803936079144,-0.0005083060823380947
1782813385773218800,3.55721875,0.0021179381292313337,-0.0015665646642446518,-0.0016577263595536351
1782813385783288800,3.567288818359375,0.0012840041890740395,0.00027634110301733017,-0.0026372442953288555
1782813385793357800,3.57735791015625,-0.0003695524064823985,-0.0030233152210712433,-0.002005542628467083
1782813385803427600,3.587427490234375,-0.0010982907842844725,0.0016456474550068378,-0.0009110966930165887
1782813385813497900,3.597497802734375,-0.0031515879090875387,0.00036120484583079815,-0.0009294725023210049
1782813385823566600,3.607566650390625,0.0002049931208603084,-0.002459150506183505,-0.0016791948582977057
1782813385833636900,3.617636962890625,-0.0019487052923068404,-0.00298539106734097,0.003074015025049448
1782813385843707000,3.627706787109375,-0.0007083474192768335,0.0019796141423285007,-0.00023133595823310316
1782813385853776600,3.637776611328125,0.0006333531346172094,0.0015335347270593047,0.000672274618409574
1782813385863846000,3.647845947265625,-0.0009757103398442268,-0.00022729416377842426,0.000019388215150684118
1782813385873915600,3.65791552734375,0.0004261776921339333,-0.00047044060193002224,0.0018505777698010206
1782813385883985700,3.667985595703125,0.0003049424849450588,0.0011221137829124928,-0.00014315624139271677
1782813385894055000,3.678054931640625,-0.0013278416590765119,-0.0009303844999521971,-0.00048111137584783137
1782813385904124700,3.688124755859375,0.00016835995484143496,-0.0029438133351504803,-0.0018024330493062735
1782813385914195000,3.69819482421875,-0.0013752082595601678,-0.001961373258382082,-0.0006636654143221676
1782813385924263700,3.708263671875,-0.00029846630059182644,0.001595516107045114,0.0002719831536523998
1782813385934333700,3.718333740234375,-0.0008955469820648432,-0.0018511470407247543,-0.00026118167443200946
1782813385944404000,3.728404052734375,0.00042166723869740963,0.0018217958277091384,-0.0011759721674025059
1782813385954473700,3.7384736328125,0.000042433151975274086,0.0019661393016576767,-0.000816445448435843
1782813385964543000,3.74854296875,-0.0009894192917272449,0.0015840160194784403,-0.0010415855795145035
1782813385974612700,3.75861279296875,-0.000742810545489192,-0.0009406607132405043,-0.002748139202594757
1782813385984682800,3.768682861328125,-0.0014170866925269365,0.0011222922476008534,-0.0008765514940023422
1782813385994751700,3.778751708984375,0.00025484582874923944,-0.0005762719083577394,-0.00040810147766023874
1782813386004821800,3.78882177734375,-0.002097310032695532,-0.0014518338721245527,-0.0005378585192374885
1782813386014891800,3.798891845703125,0.0014849076978862286,-0.00272802053950727,0.0007412576815113425
1782813386024961800,3.8089619140625,-0.0003688838332891464,-0.0015662738587707281,0.0015138278249651194
1782813386035030800,3.81903076171875,-0.00030257110483944416,0.0013765189796686172,-0.002129376633092761
1782813386045100800,3.829100830078125,-0.0014948650496080518,0.0001189238391816616,-0.0007125025149434805
1782813386055170800,3.8391708984375,0.0005198163562454283,0.0007104116957634687,-0.00021023032604716718
1782813386065239600,3.849239501953125,-0.0008821613155305386,0.0009631974389776587,-0.002253643935546279
1782813386075309800,3.859309814453125,-0.000543939764611423,-0.0016056876629590988,-0.0002908942406065762
1782813386085379800,3.8693798828125,-0.000011221854947507381,-0.0007548532448709011,-0.0013401936739683151
1782813386095448800,3.87944873046875,-0.0012455970281735063,-0.0018800387624651194,-0.002851004945114255
1782813386105518800,3.889518798828125,-0.0008584056049585342,-0.0006771725602447987,-0.00027313450118526816
1782813386115588600,3.899588623046875,-0.0001476079924032092,-0.001273987116292119,0.0006238181376829743
1782813386125657900,3.909657958984375,-0.0016950524877756834,-0.0006521306931972504,0.001368785509839654
1782813386135727900,3.919727783203125,0.0018418917898088694,-0.000020162435248494148,-0.0002714554429985583
1782813386145797600,3.929797607421875,-0.0011273529380559921,0.00023021805100142956,-0.0001395753351971507
1782813386155868000,3.939867919921875,0.00010036432649940252,0.00043687946163117886,0.00036562635796144605
1782813386165936600,3.9499365234375,-0.0012846525060012937,0.0024985945783555508,0.0007662498392164707
1782813386176007000,3.9600068359375,0.0005819571088068187,0.0008085526060312986,0.0014730527764186263
1782813386186077000,3.970076904296875,-0.0011412410531193018,-0.0013081843499094248,0.0018344179261475801
1782813386196145700,3.980145751953125,0.00022469437681138515,0.0003871843218803406,-0.0008167588384822011
1782813386206216000,3.9902158203125,0.0005704646464437246,-0.002736045280471444,-0.0011622246820479631
1782813386216285700,4.00028564453125,-0.0006410073256120086,-0.0004228237085044384,0.0005525847082026303
1782813386226355700,4.010355712890625,-0.0010252130450680852,-0.0005538519471883774,0.0003348115715198219
1782813386236424700,4.0204248046875,-0.0013024479849264026,-0.00003853021189570427,-0.0003147333627566695
1782813386246494700,4.03049462890625,-0.001317308284342289,-0.0017327344976365566,0.0008973195217549801
1782813386256564700,4.040564697265625,-0.0010089143179357052,0.0012071290984749794,0.0007282088045030832
1782813386266633700,4.0506337890625,-0.00008989835623651743,0.00038044247776269913,-0.0015998565359041095
1782813386276703700,4.060703857421875,-0.0005996273830533028,-0.0018624719232320786,0.0010159002849832177
1782813386286773800,4.070773681640625,-0.0014744813088327646,-0.0004769053775817156,-0.0018582867924124002
1782813386296842800,4.0808427734375,0.00017215113621205091,0.0008112655486911535,-0.0005362936644814909
1782813386306912800,4.090912841796875,-0.0006258764769881964,-0.000045514898374676704,-0.00036272135912440717
1782813386316982800,4.100982666015625,-0.0009867348708212376,0.0003632805310189724,0.001977398293092847
1782813386327052800,4.111052734375,-0.00039081904105842113,0.0012693473836407065,0.0007880217162892222
1782813386337121800,4.121121826171875,0.0008819056674838066,-0.0008614477701485157,-0.0006002841400913894
1782813386347191800,4.13119189453125,0.0005551897338591516,-0.00021582189947366714,-0.0009209854761138558
1782813386357261800,4.14126171875,-0.0015130211832001805,0.0015168306417763233,0.0009498851140961051
1782813386367330800,4.151330810546875,-0.002217896282672882,0.0009225053945556283,-0.0006617559702135623
1782813386377400800,4.16140087890625,0.0015925546176731586,0.0014170544454827905,-0.0022484674118459225
1782813386387470800,4.171470947265625,0.0013996203197166324,0.0008665057830512524,0.001427110517397523
1782813386397539800,4.181539794921875,-0.001088038319721818,0.0010926082031801343,-0.0016456447774544358
1782813386407609600,4.191609619140625,0.0020293297711759806,0.000916245044209063,-0.00009494391269981861
1782813386417680000,4.201679931640625,-0.000051397946663200855,-0.0006084146443754435,-0.002518686931580305
1782813386427750000,4.21175,-0.00004968757275491953,-0.0014272797852754593,-0.0008732992573641241
1782813386437819000,4.22181884765625,-0.0011503719724714756,0.000346119049936533,-0.0031641502864658833
1782813386447889000,4.231888916015625,-0.0001536952331662178,0.0006060509476810694,0.0009144142386503518
1782813386457958700,4.241958740234375,-0.0021518650464713573,0.0012555959401652217,0.0004275884130038321
1782813386468028000,4.25202783203125,-0.0001385613577440381,0.0015348163433372974,-0.000993928057141602
1782813386478097700,4.26209765625,0.0014596015680581331,0.0012730276212096214,0.00034138094633817673
1782813386488167700,4.272167724609375,0.0006189812556840479,0.00006464007310569286,0.00007252092473208904
1782813386498237000,4.28223681640625,-0.00036159472074359655,0.0002468004822731018,-0.00017488672165200114
1782813386508306700,4.292306640625,-0.0005116106476634741,0.001234997296705842,0.0018007314065471292
1782813386518376700,4.302376708984375,-0.002552391029894352,0.00013537798076868057,0.0019336232217028737
1782813386528446700,4.31244677734375,0.00013712956570088863,0.0019319632556289434,-0.00020992103964090347
1782813386538515700,4.322515625,0.0007784187328070402,-0.0013189571909606457,0.000029497139621526003
1782813386548586000,4.3325859375,0.00048457778757438064,0.0009028080385178328,0.0008357806364074349
1782813386558655700,4.34265576171875,0.00016925949603319168,-0.00146793806925416,-0.000669704342726618
1782813386568725000,4.35272509765625,0.0005609039799310267,-0.000813209218904376,0.00192252139095217
1782813386578794800,4.362794677734375,0.0001158897066488862,-0.000006271526217460632,0.0004950672155246139
1782813386588864800,4.37286474609375,-0.0035808116663247347,0.0008940738625824451,0.0007441898342221975
1782813386598933800,4.382933837890625,-0.0014098025858402252,-0.0006769248284399509,0.0007969203870743513
1782813386609003800,4.393003662109375,-0.0022458296734839678,0.0016723184380680323,-0.0012726245913654566
1782813386619073800,4.40307373046875,0.0010775290429592133,0.00288538821041584,0.000052564253564924
1782813386629143800,4.413143798828125,-0.0014157171826809645,-0.00022166874259710312,-0.0007701378199271858
1782813386639212800,4.423212890625,-0.0015446143224835396,0.0011229612864553928,-0.0007903778459876776
1782813386649282800,4.43328271484375,-0.00023325392976403236,0.0013363993493840098,0.00026620127027854323
1782813386659352800,4.443352783203125,-0.0004234036896377802,-0.002094284864142537,0.0016800733283162117
1782813386669421600,4.453421630859375,-0.0014717464800924063,-0.00034803617745637894,0.0006527288351207972
1782813386679491800,4.463491943359375,0.00044093572068959475,-0.0017959969118237495,-0.001186716603115201
1782813386689561900,4.473561767578125,-0.0012815357185900211,0.0006767923478037119,0.0008208391955122352
1782813386699630800,4.483630859375,-0.0014919254463165998,0.0013963783858343959,-0.0011240672320127487
1782813386709700900,4.493700927734375,0.0014092862838879228,-0.0008662492036819458,-0.000296236714348197
1782813386719770600,4.5037705078125,-0.0004972707247361541,0.0012541597243398428,-0.0013593705371022224
1782813386729840600,4.513840576171875,-0.0008471893379464746,0.0021767225116491318,-0.0011348853586241603
1782813386739910000,4.523909912109375,0.0009182201465591788,-0.000023847445845603943,-0.0011561906430870295
1782813386749979600,4.533979736328125,-0.001839234959334135,0.0009479119908064604,-0.0019845301285386086
1782813386760049400,4.54404931640625,0.0017586955800652504,0.0007215433288365602,-0.0011307206004858017
1782813386770118400,4.554118408203125,-0.0036254350561648607,-0.0013861018233001232,0.00004636577796190977
1782813386780188700,4.564188720703125,0.0006257691420614719,0.0006181930657476187,0.00205172598361969
1782813386790258400,4.574258544921875,-0.0010752689559012651,0.001647031749598682,-0.0007732029189355671
1782813386800327400,4.584327392578125,0.000507980294059962,0.0012406333116814494,-0.0004978320794180036
1782813386810397400,4.5943974609375,0.0013282574946060777,-0.0008185375481843948,-0.00012175022857263684
1782813386820467500,4.604467529296875,-0.001160732819698751,0.001983640482649207,-0.002070917747914791
1782813386830537500,4.614537353515625,-0.001372211379930377,-0.000491185812279582,-0.00035248784115538
1782813386840606500,4.6246064453125,-0.00021613319404423237,0.0020718402229249477,-0.00016180551028810441
1782813386850676500,4.634676513671875,-0.0026498306542634964,0.0004710559733211994,-0.002543277107179165
1782813386860746500,4.64474658203125,-0.0007789599476382136,-0.00043441890738904476,0.001389412907883525
1782813386870815500,4.6548154296875,0.001981540350243449,0.0004979283548891544,-0.0006319406093098223
1782813386880885200,4.66488525390625,-0.0011071937624365091,-0.001618752023205161,-0.0010439315810799599
1782813386890955500,4.67495556640625,0.0005386264529079199,0.0007853787392377853,0.0006576714222319424
1782813386901025500,4.685025634765625,-0.003009502775967121,0.0022344046737998724,-0.001872331602498889
1782813386911094500,4.695094482421875,0.001160231651738286,-0.000635023694485426,0.0008032856276258826
1782813386921164500,4.70516455078125,0.0003461032756604254,-0.00004726415500044823,0.0013215368380770087
1782813386931234300,4.715234375,-0.002561718923971057,-0.0019428827799856663,-0.00017894641496241093
1782813386941303600,4.725303466796875,0.0010165042476728559,0.0015381352277472615,-0.0002652328403200954
1782813386951373300,4.735373291015625,-0.0009021654259413481,0.0021104426123201847,0.00028153153834864497
1782813386961443300,4.745443359375,0.00032661703880876303,-0.002873130841180682,0.001721236389130354
1782813386971512600,4.7555126953125,0.0025311114732176065,0.001781029743142426,0.0008504442521370947
1782813386981582300,4.765582275390625,-0.0012164886575192213,-0.0012720180675387383,0.00020808976842090487
1782813386991652600,4.775652587890625,0.0002523032599128783,0.0020278985612094402,-0.0005086557939648628
1782813387001722400,4.785722412109375,-0.0007754105608910322,0.0002883216366171837,-0.00195768172852695
1782813387011791400,4.795791259765625,0.0012688318965956569,-0.00003179023042321205,-0.0002761618234217167
1782813387021861600,4.805861572265625,-0.0002679956378415227,-0.00027416180819272995,-0.00011857072240673006
1782813387031931400,4.815931396484375,0.0007275169482454658,0.0011177421547472477,0.0004349736263975501
1782813387042000600,4.826000732421875,-0.0010285715106874704,-0.0008625844493508339,-0.0007490678108297288
1782813387052070400,4.8360703125,0.0014026416465640068,-0.00068426295183599,-0.0001997851359192282
1782813387062140400,4.846140380859375,-0.001556396484375,-0.000943388557061553,-0.0010591872269287705
1782813387072209400,4.85620947265625,0.0007437514141201973,-0.0016201946418732405,-0.0003230980655644089
1782813387082279400,4.866279541015625,-0.00021285598631948233,0.0012163380160927773,0.001609025290235877
1782813387092349400,4.876349365234375,-0.0013503768714144826,0.000971785862930119,-0.0014437114587053657
1782813387102419500,4.88641943359375,-0.0011634229449555278,-0.0004130578599870205,0.0009584598592482507
1782813387112488400,4.896488525390625,-0.00047828175593167543,0.001351938582956791,0.00007325125625357032
1782813387122558500,4.906558349609375,0.001209629699587822,0.0021924322936683893,0.0005651370738632977
1782813387132628500,4.91662841796875,0.0011620830046012998,-0.0018654195591807365,0.0006279228255152702
1782813387142697200,4.926697265625,-0.0005492642521858215,0.0007561964448541403,-0.0014030038146302104
1782813387152767500,4.936767578125,0.0005933359498158097,-0.000851272139698267,-0.0002853907644748688
1782813387162837500,4.94683740234375,0.001084955525584519,0.0009130720281973481,0.0007764115580357611
1782813387172906500,4.956906494140625,0.0020015703048557043,0.00008578505367040634,0.0006561929476447403
1782813387182976500,4.9669765625,0.00023349758703261614,0.0005806004628539085,-0.00039948406629264355
1782813387193046300,4.97704638671875,-9.51811671257019e-7,0.000004030996933579445,0.0016177351353690028
1782813387203116500,4.987116455078125,-0.0016278768889606,0.0006272108294069767,0.0019503639778122306
1782813387213185500,4.997185546875,-0.0015838139224797487,0.0002729864791035652,-0.0016476729651913047
1782813387223255300,5.00725537109375,-0.0009281437378376722,0.0006660688668489456,0.0005901813274249434
1782813387233325600,5.01732568359375,-0.003362729912623763,-0.00014999834820628166,-0.0010913796722888947
1782813387243394300,5.027394287109375,-0.002604794455692172,0.0002974127419292927,0.000017560552805662155
1782813387253464600,5.037464599609375,-0.0011421581730246544,0.0009162940550595522,0.000541284738574177
1782813387263534600,5.04753466796875,-0.0010393601842224598,0.00016208691522479057,-0.0009705918491818011
1782813387273603300,5.057603271484375,-0.001108800177462399,-0.0007151395548135042,-0.00166116445325315
1782813387283673600,5.067673583984375,0.000027570524252951145,-0.0024635049048811197,0.0018483492312952876
1782813387293743400,5.077743408203125,-0.0006107615772634745,0.001235753996297717,-0.000720743671990931
1782813387303813400,5.0878134765625,0.0017756971064954996,0.0004964605905115604,-0.0006333920173346996
1782813387313882400,5.09788232421875,-0.0013248042669147253,-0.0005415140185505152,0.0003915601992048323
1782813387323952400,5.107952392578125,-0.001237186137586832,-0.0011598998680710793,-0.0014303082134574652
1782813387334022400,5.1180224609375,-0.0005004892591387033,0.00014845002442598343,0.0005622525350190699
1782813387344091400,5.12809130859375,0.0009858208941295743,-0.00023930612951517105,-0.00020180834690108895
1782813387354161400,5.138161376953125,-0.0015330989845097065,0.0006648288108408451,0.00028634147020056844
1782813387364231400,5.1482314453125,0.0002107389154843986,-0.0001865839585661888,0.0013428174424916506
1782813387374300400,5.158300537109375,0.0010041235946118832,-0.0028429413214325905,-0.0017470680177211761
1782813387384370400,5.168370361328125,0.0012376827653497458,-0.0012461096048355103,-0.0009571743430569768
1782813387394440400,5.1784404296875,0.0009660759824328125,0.00027372315526008606,0.001198886544443667
1782813387404510500,5.188510498046875,-0.00006430107168853283,0.0018852018984034657,-0.003748201532289386
1782813387414579500,5.198579345703125,-0.001493574120104313,-0.0008988012559711933,0.0011698869056999683
1782813387424649500,5.2086494140625,0.00008195207919925451,0.00004449044354259968,-0.0017041964456439018
1782813387434719500,5.218719482421875,0.00032210443168878555,-0.0014589251950383186,-0.0001791358517948538
1782813387444788500,5.22878857421875,0.0014385015238076448,0.0013805372873321176,0.0006541672628372908
1782813387454858500,5.2388583984375,-0.0016074222512543201,-0.00047403713688254356,0.0015337138902395964
1782813387464928500,5.248928466796875,-0.000699017895385623,0.0008330424316227436,0.0015875096432864666
1782813387474998500,5.25899853515625,-0.002047434449195862,-0.00017374218441545963,-0.0011373447487130761
1782813387485067300,5.2690673828125,-0.0007052012952044606,0.0020390781573951244,0.0006914479890838265
1782813387495137500,5.279137451171875,0.0011995694367215037,0.00033201626501977444,-0.0012672164011746645
1782813387505206300,5.289206298828125,-0.0014489442110061646,-0.0004189952742308378,-0.0013977112248539925
1782813387515276500,5.299276611328125,-0.0005260183243080974,0.0022555275354534388,0.000286097580101341
1782813387525345500,5.309345458984375,-0.0012618497712537646,-0.0005780758801847696,-0.0030095642432570457
1782813387535415300,5.319415283203125,0.0014481275575235486,0.00010507507249712944,-0.0010914100566878915
1782813387545485600,5.329485595703125,0.001440138090401888,-0.0007508648559451103,-0.001295674592256546
1782813387555554300,5.33955419921875,0.0007138913497328758,0.0008053253404796124,0.0006799251423217356
1782813387565624600,5.34962451171875,0.0019056559540331364,-0.0023329437244683504,-0.0017440840601921082
1782813387575694600,5.359694580078125,-0.0012637142790481448,0.00023620831780135632,-0.0014396359911188483
1782813387585764400,5.369764404296875,-0.001193140516988933,0.0015917574055492878,0.001211807131767273
1782813387595833600,5.37983349609375,0.001012308057397604,-0.00022645527496933937,0.0016218014061450958
1782813387605903400,5.3899033203125,-0.0009706817800179124,-0.0007052915170788765,-0.000292478856863454
1782813387615973400,5.399973388671875,0.000845092348754406,-0.0021905654575675726,0.0001963812974281609
1782813387626042400,5.41004248046875,0.00040274130878970027,-0.000493599334731698,-0.0005077584646642208
1782813387636112400,5.4201123046875,-0.0014956118538975716,0.0011555720120668411,0.0013618685770779848
1782813387646182700,5.4301826171875,-0.0006846792530268431,0.0002194708213210106,-0.003258449723944068
1782813387656251400,5.44025146484375,-0.0008025390561670065,0.0014394039753824472,0.0009701441158540547
1782813387666321400,5.4503212890625,-0.0015887042973190546,0.0002380521036684513,-0.00026369839906692505
1782813387676391400,5.460391357421875,-0.0015568608650937676,0.0004945057444274426,-0.0015734895132482052
1782813387686461400,5.47046142578125,-0.0005757524631917477,-0.0007792841643095016,0.0005607676575891674
1782813387696530400,5.480530517578125,0.0021060574799776077,0.0009058858267962933,-0.0004633671196643263
1782813387706600400,5.490600341796875,-0.0003251422895118594,0.00081853405572474,-0.0016756380209699273
1782813387716670500,5.50067041015625,-0.0010375153506174684,0.0018992366967722774,-0.00014130235649645329
1782813387726739500,5.510739501953125,0.0015468160854652524,-0.0006818990223109722,-0.0006925766938365996
1782813387736809500,5.5208095703125,0.0010633777128532529,-0.0006688078865408897,-0.0003334051289130002
1782813387746879200,5.530879150390625,0.0013408790109679103,0.06607187539339066,0.013095318339765072
1782813387756948500,5.540948486328125,-0.002172830980271101,0.017726203426718712,0.000802594528067857
1782813387767018200,5.551018310546875,0.001628564903512597,0.017823942005634308,0.0043145050294697285
1782813387777088300,5.561088134765625,0.000029634451493620872,0.006069459952414036,0.0015722736716270447
1782813387787158300,5.571158203125,-0.001671859179623425,0.0005449987947940826,0.0005719903856515884
1782813387797227300,5.581227294921875,-0.0015441183932125568,0.00038972427137196064,0.00241145514883101
1782813387807297300,5.59129736328125,0.0002394006005488336,-0.0007045688107609749,0.0015198288019746542
1782813387817367300,5.6013671875,0.0002769264974631369,0.00042322115041315556,-0.00032452703453600407
1782813387827436300,5.611436279296875,0.002061777049675584,-0.0022479291073977947,-0.001281667035073042
1782813387837506300,5.62150634765625,-0.0002684658393263817,-0.012741360813379288,-0.005105749703943729
1782813387847576300,5.631576416015625,0.0021536792628467083,-0.026937607675790787,-0.008380372077226639
1782813387857645300,5.641645263671875,-0.00048361090011894703,-0.013847327791154385,-0.008538068272173405
1782813387867715300,5.65171533203125,-0.00040265079587697983,-0.002168833278119564,0.0006112208939157426
1782813387877785000,5.66178515625,0.0005001607351005077,-0.0013088989071547985,-0.0014889478916302323
